time/ms;Fluo/V;P700 deltaI/I x10³;
-199.8000;0.1555;-0.1390;
-199.5000;0.1522;-0.1533;
-199.2000;0.1522;-0.1533;
-198.9000;0.1555;-0.1414;
-198.6000;0.1522;-0.1581;
-198.3000;0.1522;-0.1557;
-198.0000;0.1449;-0.1725;
-197.7000;0.1563;-0.1390;
-197.4000;0.1522;-0.1509;
-197.1000;0.1490;-0.1509;
-196.8000;0.1522;-0.1366;
-196.5000;0.1522;-0.1366;
-196.2000;0.1522;-0.1366;
-195.9000;0.1563;-0.1294;
-195.6000;0.1514;-0.1462;
-195.3000;0.1506;-0.1414;
-195.0000;0.1579;-0.1270;
-194.7000;0.1555;-0.1366;
-194.4000;0.1522;-0.1366;
-194.1000;0.1538;-0.1390;
-193.8000;0.1498;-0.1533;
-193.5000;0.1547;-0.1342;
-193.2000;0.1522;-0.1390;
-192.9000;0.1522;-0.1414;
-192.6000;0.1555;-0.1342;
-192.3000;0.1547;-0.1294;
-192.0000;0.1595;-0.1174;
-191.7000;0.1530;-0.1414;
-191.4000;0.1481;-0.1486;
-191.1000;0.1538;-0.1246;
-190.8000;0.1522;-0.1294;
-190.5000;0.1579;-0.1198;
-190.2000;0.1514;-0.1366;
-189.9000;0.1555;-0.1318;
-189.6000;0.1514;-0.1366;
-189.3000;0.1547;-0.1366;
-189.0000;0.1547;-0.1390;
-188.7000;0.1595;-0.1246;
-188.4000;0.1571;-0.1294;
-188.1000;0.1538;-0.1414;
-187.8000;0.1563;-0.1318;
-187.5000;0.1498;-0.1462;
-187.2000;0.1530;-0.1366;
-186.9000;0.1563;-0.1246;
-186.6000;0.1498;-0.1462;
-186.3000;0.1449;-0.1653;
-186.0000;0.1555;-0.1509;
-185.7000;0.1563;-0.1462;
-185.4000;0.1579;-0.1390;
-185.1000;0.1514;-0.1509;
-184.8000;0.1514;-0.1486;
-184.5000;0.1555;-0.1462;
-184.2000;0.1514;-0.1581;
-183.9000;0.1498;-0.1557;
-183.6000;0.1522;-0.1462;
-183.3000;0.1538;-0.1509;
-183.0000;0.1522;-0.1533;
-182.7000;0.1465;-0.1773;
-182.4000;0.1522;-0.1653;
-182.1000;0.1530;-0.1701;
-181.8000;0.1547;-0.1605;
-181.5000;0.1506;-0.1629;
-181.2000;0.1530;-0.1629;
-180.9000;0.1538;-0.1533;
-180.6000;0.1514;-0.1557;
-180.3000;0.1530;-0.1462;
-180.0000;0.1538;-0.1438;
-179.7000;0.1514;-0.1462;
-179.4000;0.1514;-0.1509;
-179.1000;0.1522;-0.1342;
-178.8000;0.1514;-0.1270;
-178.5000;0.1555;-0.1222;
-178.2000;0.1522;-0.1318;
-177.9000;0.1522;-0.1318;
-177.6000;0.1530;-0.1366;
-177.3000;0.1563;-0.1342;
-177.0000;0.1555;-0.1366;
-176.7000;0.1514;-0.1462;
-176.4000;0.1538;-0.1342;
-176.1000;0.1530;-0.1318;
-175.8000;0.1547;-0.1246;
-175.5000;0.1457;-0.1533;
-175.2000;0.1522;-0.1390;
-174.9000;0.1530;-0.1438;
-174.6000;0.1538;-0.1390;
-174.3000;0.1498;-0.1462;
-174.0000;0.1530;-0.1342;
-173.7000;0.1506;-0.1366;
-173.4000;0.1547;-0.1198;
-173.1000;0.1538;-0.1222;
-172.8000;0.1530;-0.1294;
-172.5000;0.1547;-0.1222;
-172.2000;0.1538;-0.1294;
-171.9000;0.1538;-0.1294;
-171.6000;0.1506;-0.1390;
-171.3000;0.1563;-0.1246;
-171.0000;0.1530;-0.1246;
-170.7000;0.1514;-0.1270;
-170.4000;0.1514;-0.1294;
-170.1000;0.1530;-0.1342;
-169.8000;0.1530;-0.1270;
-169.5000;0.1522;-0.1246;
-169.2000;0.1595;-0.0982;
-168.9000;0.1522;-0.1102;
-168.6000;0.1506;-0.1174;
-168.3000;0.1547;-0.1150;
-168.0000;0.1595;-0.1030;
-167.7000;0.1547;-0.1174;
-167.4000;0.1498;-0.1270;
-167.1000;0.1530;-0.1174;
-166.8000;0.1547;-0.1150;
-166.5000;0.1538;-0.1246;
-166.2000;0.1538;-0.1222;
-165.9000;0.1522;-0.1198;
-165.6000;0.1530;-0.1126;
-165.3000;0.1538;-0.1150;
-165.0000;0.1530;-0.1150;
-164.7000;0.1530;-0.1150;
-164.4000;0.1522;-0.1102;
-164.1000;0.1514;-0.1030;
-163.8000;0.1498;-0.1222;
-163.5000;0.1514;-0.1150;
-163.2000;0.1506;-0.1174;
-162.9000;0.1514;-0.1198;
-162.6000;0.1652;-0.0910;
-162.3000;0.1530;-0.1198;
-162.0000;0.1530;-0.1174;
-161.7000;0.1522;-0.1102;
-161.4000;0.1490;-0.1246;
-161.1000;0.1522;-0.1150;
-160.8000;0.1530;-0.1198;
-160.5000;0.1530;-0.1198;
-160.2000;0.1555;-0.1126;
-159.9000;0.1522;-0.1174;
-159.6000;0.1514;-0.1246;
-159.3000;0.1555;-0.1198;
-159.0000;0.1522;-0.1294;
-158.7000;0.1555;-0.1198;
-158.4000;0.1506;-0.1390;
-158.1000;0.1538;-0.1270;
-157.8000;0.1530;-0.1318;
-157.5000;0.1538;-0.1270;
-157.2000;0.1538;-0.1318;
-156.9000;0.1481;-0.1509;
-156.6000;0.1644;-0.1078;
-156.3000;0.1522;-0.1486;
-156.0000;0.1530;-0.1533;
-155.7000;0.1538;-0.1390;
-155.4000;0.1514;-0.1342;
-155.1000;0.1530;-0.1150;
-154.8000;0.1473;-0.1318;
-154.5000;0.1522;-0.1246;
-154.2000;0.1522;-0.1174;
-153.9000;0.1465;-0.1342;
-153.6000;0.1530;-0.1102;
-153.3000;0.1522;-0.1126;
-153.0000;0.1604;-0.0863;
-152.7000;0.1530;-0.1150;
-152.4000;0.1538;-0.1270;
-152.1000;0.1522;-0.1318;
-151.8000;0.1538;-0.1294;
-151.5000;0.1522;-0.1294;
-151.2000;0.1547;-0.1222;
-150.9000;0.1481;-0.1462;
-150.6000;0.1538;-0.1318;
-150.3000;0.1522;-0.1438;
-150.0000;0.1563;-0.1342;
-149.7000;0.1538;-0.1294;
-149.4000;0.1538;-0.1318;
-149.1000;0.1538;-0.1270;
-148.8000;0.1547;-0.1222;
-148.5000;0.1595;-0.1102;
-148.2000;0.1563;-0.1150;
-147.9000;0.1522;-0.1222;
-147.6000;0.1538;-0.1246;
-147.3000;0.1538;-0.1246;
-147.0000;0.1514;-0.1294;
-146.7000;0.1514;-0.1294;
-146.4000;0.1530;-0.1222;
-146.1000;0.1538;-0.1126;
-145.8000;0.1530;-0.1294;
-145.5000;0.1433;-0.1701;
-145.2000;0.1579;-0.1318;
-144.9000;0.1530;-0.1438;
-144.6000;0.1522;-0.1462;
-144.3000;0.1587;-0.1318;
-144.0000;0.1530;-0.1366;
-143.7000;0.1547;-0.1318;
-143.4000;0.1522;-0.1294;
-143.1000;0.1506;-0.1318;
-142.8000;0.1457;-0.1438;
-142.5000;0.1538;-0.1318;
-142.2000;0.1538;-0.1366;
-141.9000;0.1530;-0.1318;
-141.6000;0.1522;-0.1294;
-141.3000;0.1555;-0.1270;
-141.0000;0.1547;-0.1270;
-140.7000;0.1547;-0.1270;
-140.4000;0.1538;-0.1222;
-140.1000;0.1538;-0.1198;
-139.8000;0.1579;-0.1126;
-139.5000;0.1425;-0.1557;
-139.2000;0.1465;-0.1390;
-138.9000;0.1538;-0.1198;
-138.6000;0.1538;-0.1222;
-138.3000;0.1473;-0.1438;
-138.0000;0.1514;-0.1342;
-137.7000;0.1530;-0.1342;
-137.4000;0.1530;-0.1342;
-137.1000;0.1547;-0.1318;
-136.8000;0.1538;-0.1270;
-136.5000;0.1498;-0.1318;
-136.2000;0.1506;-0.1318;
-135.9000;0.1547;-0.1126;
-135.6000;0.1522;-0.1222;
-135.3000;0.1547;-0.1198;
-135.0000;0.1530;-0.1198;
-134.7000;0.1563;-0.1102;
-134.4000;0.1530;-0.1174;
-134.1000;0.1538;-0.1174;
-133.8000;0.1555;-0.1150;
-133.5000;0.1506;-0.1366;
-133.2000;0.1555;-0.1270;
-132.9000;0.1555;-0.1342;
-132.6000;0.1530;-0.1509;
-132.3000;0.1530;-0.1605;
-132.0000;0.1530;-0.1486;
-131.7000;0.1620;-0.1222;
-131.4000;0.1522;-0.1342;
-131.1000;0.1514;-0.1318;
-130.8000;0.1530;-0.1318;
-130.5000;0.1465;-0.1462;
-130.2000;0.1522;-0.1342;
-129.9000;0.1506;-0.1366;
-129.6000;0.1538;-0.1294;
-129.3000;0.1538;-0.1294;
-129.0000;0.1547;-0.1366;
-128.7000;0.1522;-0.1414;
-128.4000;0.1555;-0.1342;
-128.1000;0.1547;-0.1318;
-127.8000;0.1538;-0.1294;
-127.5000;0.1547;-0.1270;
-127.2000;0.1530;-0.1342;
-126.9000;0.1563;-0.1198;
-126.6000;0.1555;-0.1294;
-126.3000;0.1514;-0.1462;
-126.0000;0.1530;-0.1414;
-125.7000;0.1538;-0.1438;
-125.4000;0.1538;-0.1318;
-125.1000;0.1530;-0.1366;
-124.8000;0.1522;-0.1366;
-124.5000;0.1628;-0.1102;
-124.2000;0.1530;-0.1294;
-123.9000;0.1514;-0.1294;
-123.6000;0.1522;-0.1294;
-123.3000;0.1522;-0.1318;
-123.0000;0.1522;-0.1246;
-122.7000;0.1547;-0.1174;
-122.4000;0.1530;-0.1174;
-122.1000;0.1481;-0.1318;
-121.8000;0.1547;-0.1150;
-121.5000;0.1538;-0.1270;
-121.2000;0.1522;-0.1246;
-120.9000;0.1514;-0.1342;
-120.6000;0.1522;-0.1414;
-120.3000;0.1506;-0.1390;
-120.0000;0.1522;-0.1270;
-119.7000;0.1506;-0.1342;
-119.4000;0.1538;-0.1342;
-119.1000;0.1514;-0.1414;
-118.8000;0.1538;-0.1390;
-118.5000;0.1441;-0.1701;
-118.2000;0.1530;-0.1438;
-117.9000;0.1457;-0.1653;
-117.6000;0.1538;-0.1533;
-117.3000;0.1514;-0.1581;
-117.0000;0.1530;-0.1486;
-116.7000;0.1473;-0.1605;
-116.4000;0.1555;-0.1342;
-116.1000;0.1506;-0.1509;
-115.8000;0.1538;-0.1438;
-115.5000;0.1530;-0.1390;
-115.2000;0.1530;-0.1366;
-114.9000;0.1465;-0.1533;
-114.6000;0.1522;-0.1342;
-114.3000;0.1571;-0.1198;
-114.0000;0.1547;-0.1294;
-113.7000;0.1441;-0.1677;
-113.4000;0.1506;-0.1557;
-113.1000;0.1538;-0.1462;
-112.8000;0.1538;-0.1390;
-112.5000;0.1555;-0.1438;
-112.2000;0.1498;-0.1557;
-111.9000;0.1473;-0.1581;
-111.6000;0.1522;-0.1533;
-111.3000;0.1514;-0.1462;
-111.0000;0.1547;-0.1414;
-110.7000;0.1514;-0.1438;
-110.4000;0.1612;-0.1174;
-110.1000;0.1538;-0.1414;
-109.8000;0.1538;-0.1438;
-109.5000;0.1530;-0.1342;
-109.2000;0.1538;-0.1318;
-108.9000;0.1538;-0.1318;
-108.6000;0.1506;-0.1342;
-108.3000;0.1530;-0.1270;
-108.0000;0.1604;-0.1054;
-107.7000;0.1522;-0.1342;
-107.4000;0.1538;-0.1222;
-107.1000;0.1547;-0.1342;
-106.8000;0.1522;-0.1390;
-106.5000;0.1522;-0.1366;
-106.2000;0.1425;-0.1557;
-105.9000;0.1538;-0.1294;
-105.6000;0.1530;-0.1318;
-105.3000;0.1514;-0.1366;
-105.0000;0.1449;-0.1653;
-104.7000;0.1555;-0.1414;
-104.4000;0.1522;-0.1342;
-104.1000;0.1506;-0.1462;
-103.8000;0.1538;-0.1366;
-103.5000;0.1522;-0.1462;
-103.2000;0.1522;-0.1366;
-102.9000;0.1530;-0.1366;
-102.6000;0.1538;-0.1366;
-102.3000;0.1530;-0.1438;
-102.0000;0.1522;-0.1462;
-101.7000;0.1498;-0.1557;
-101.4000;0.1538;-0.1366;
-101.1000;0.1538;-0.1342;
-100.8000;0.1555;-0.1294;
-100.5000;0.1530;-0.1390;
-100.2000;0.1425;-0.1581;
-99.9000;0.1514;-0.1342;
-99.6000;0.1522;-0.1342;
-99.3000;0.1530;-0.1366;
-99.0000;0.1473;-0.1533;
-98.7000;0.1547;-0.1366;
-98.4000;0.1612;-0.1174;
-98.1000;0.1522;-0.1438;
-97.8000;0.1506;-0.1533;
-97.5000;0.1595;-0.1270;
-97.2000;0.1538;-0.1438;
-96.9000;0.1563;-0.1509;
-96.6000;0.1547;-0.1653;
-96.3000;0.1506;-0.1629;
-96.0000;0.1530;-0.1509;
-95.7000;0.1433;-0.1797;
-95.4000;0.1530;-0.1581;
-95.1000;0.1530;-0.1581;
-94.8000;0.1498;-0.1605;
-94.5000;0.1538;-0.1462;
-94.2000;0.1563;-0.1414;
-93.9000;0.1522;-0.1581;
-93.6000;0.1538;-0.1533;
-93.3000;0.1522;-0.1629;
-93.0000;0.1522;-0.1773;
-92.7000;0.1530;-0.1677;
-92.4000;0.1514;-0.1677;
-92.1000;0.1522;-0.1629;
-91.8000;0.1538;-0.1629;
-91.5000;0.1563;-0.1557;
-91.2000;0.1538;-0.1629;
-90.9000;0.1473;-0.1725;
-90.6000;0.1547;-0.1581;
-90.3000;0.1547;-0.1581;
-90.0000;0.1522;-0.1581;
-89.7000;0.1555;-0.1486;
-89.4000;0.1587;-0.1366;
-89.1000;0.1522;-0.1509;
-88.8000;0.1514;-0.1486;
-88.5000;0.1555;-0.1414;
-88.2000;0.1530;-0.1462;
-87.9000;0.1547;-0.1462;
-87.6000;0.1538;-0.1533;
-87.3000;0.1522;-0.1581;
-87.0000;0.1522;-0.1509;
-86.7000;0.1620;-0.1318;
-86.4000;0.1547;-0.1509;
-86.1000;0.1669;-0.1126;
-85.8000;0.1538;-0.1486;
-85.5000;0.1530;-0.1605;
-85.2000;0.1547;-0.1557;
-84.9000;0.1506;-0.1509;
-84.6000;0.1465;-0.1605;
-84.3000;0.1530;-0.1486;
-84.0000;0.1530;-0.1462;
-83.7000;0.1579;-0.1438;
-83.4000;0.1514;-0.1653;
-83.1000;0.1530;-0.1629;
-82.8000;0.1538;-0.1605;
-82.5000;0.1538;-0.1581;
-82.2000;0.1530;-0.1629;
-81.9000;0.1563;-0.1557;
-81.6000;0.1628;-0.1342;
-81.3000;0.1530;-0.1509;
-81.0000;0.1490;-0.1581;
-80.7000;0.1506;-0.1486;
-80.4000;0.1522;-0.1390;
-80.1000;0.1538;-0.1318;
-79.8000;0.1514;-0.1342;
-79.5000;0.1514;-0.1390;
-79.2000;0.1538;-0.1294;
-78.9000;0.1522;-0.1342;
-78.6000;0.1530;-0.1414;
-78.3000;0.1514;-0.1486;
-78.0000;0.1530;-0.1509;
-77.7000;0.1522;-0.1557;
-77.4000;0.1538;-0.1462;
-77.1000;0.1522;-0.1509;
-76.8000;0.1514;-0.1533;
-76.5000;0.1522;-0.1557;
-76.2000;0.1547;-0.1557;
-75.9000;0.1481;-0.1701;
-75.6000;0.1530;-0.1509;
-75.3000;0.1563;-0.1342;
-75.0000;0.1498;-0.1509;
-74.7000;0.1538;-0.1486;
-74.4000;0.1538;-0.1509;
-74.1000;0.1555;-0.1438;
-73.8000;0.1563;-0.1509;
-73.5000;0.1449;-0.1797;
-73.2000;0.1441;-0.1797;
-72.9000;0.1473;-0.1773;
-72.6000;0.1530;-0.1653;
-72.3000;0.1522;-0.1677;
-72.0000;0.1498;-0.1677;
-71.7000;0.1579;-0.1509;
-71.4000;0.1555;-0.1557;
-71.1000;0.1555;-0.1533;
-70.8000;0.1481;-0.1821;
-70.5000;0.1465;-0.1749;
-70.2000;0.1408;-0.1845;
-69.9000;0.1530;-0.1414;
-69.6000;0.1547;-0.1366;
-69.3000;0.1563;-0.1342;
-69.0000;0.1547;-0.1342;
-68.7000;0.1530;-0.1366;
-68.4000;0.1506;-0.1366;
-68.1000;0.1514;-0.1438;
-67.8000;0.1547;-0.1366;
-67.5000;0.1555;-0.1318;
-67.2000;0.1522;-0.1390;
-66.9000;0.1514;-0.1342;
-66.6000;0.1514;-0.1294;
-66.3000;0.1522;-0.1342;
-66.0000;0.1514;-0.1342;
-65.7000;0.1506;-0.1366;
-65.4000;0.1547;-0.1318;
-65.1000;0.1530;-0.1462;
-64.8000;0.1547;-0.1462;
-64.5000;0.1547;-0.1438;
-64.2000;0.1547;-0.1414;
-63.9000;0.1563;-0.1366;
-63.6000;0.1490;-0.1462;
-63.3000;0.1530;-0.1366;
-63.0000;0.1498;-0.1509;
-62.7000;0.1555;-0.1366;
-62.4000;0.1530;-0.1462;
-62.1000;0.1538;-0.1438;
-61.8000;0.1530;-0.1486;
-61.5000;0.1538;-0.1486;
-61.2000;0.1530;-0.1533;
-60.9000;0.1538;-0.1438;
-60.6000;0.1522;-0.1462;
-60.3000;0.1498;-0.1557;
-60.0000;0.1522;-0.1438;
-59.7000;0.1514;-0.1462;
-59.4000;0.1514;-0.1342;
-59.1000;0.1522;-0.1366;
-58.8000;0.1538;-0.1342;
-58.5000;0.1547;-0.1462;
-58.2000;0.1506;-0.1533;
-57.9000;0.1481;-0.1629;
-57.6000;0.1514;-0.1605;
-57.3000;0.1538;-0.1581;
-57.0000;0.1530;-0.1533;
-56.7000;0.1538;-0.1581;
-56.4000;0.1514;-0.1653;
-56.1000;0.1522;-0.1629;
-55.8000;0.1522;-0.1605;
-55.5000;0.1555;-0.1486;
-55.2000;0.1538;-0.1486;
-54.9000;0.1522;-0.1509;
-54.6000;0.1555;-0.1462;
-54.3000;0.1538;-0.1533;
-54.0000;0.1563;-0.1509;
-53.7000;0.1522;-0.1677;
-53.4000;0.1563;-0.1605;
-53.1000;0.1547;-0.1629;
-52.8000;0.1514;-0.1581;
-52.5000;0.1530;-0.1438;
-52.2000;0.1473;-0.1557;
-51.9000;0.1538;-0.1438;
-51.6000;0.1547;-0.1438;
-51.3000;0.1522;-0.1533;
-51.0000;0.1530;-0.1486;
-50.7000;0.1530;-0.1557;
-50.4000;0.1522;-0.1605;
-50.1000;0.1506;-0.1653;
-49.8000;0.1538;-0.1533;
-49.5000;0.1530;-0.1509;
-49.2000;0.1538;-0.1438;
-48.9000;0.1522;-0.1438;
-48.6000;0.1522;-0.1509;
-48.3000;0.1490;-0.1605;
-48.0000;0.1547;-0.1533;
-47.7000;0.1538;-0.1629;
-47.4000;0.1571;-0.1438;
-47.1000;0.1538;-0.1438;
-46.8000;0.1579;-0.1294;
-46.5000;0.1522;-0.1533;
-46.2000;0.1522;-0.1557;
-45.9000;0.1538;-0.1486;
-45.6000;0.1465;-0.1581;
-45.3000;0.1457;-0.1557;
-45.0000;0.1514;-0.1462;
-44.7000;0.1530;-0.1438;
-44.4000;0.1481;-0.1557;
-44.1000;0.1514;-0.1462;
-43.8000;0.1522;-0.1486;
-43.5000;0.1530;-0.1486;
-43.2000;0.1522;-0.1557;
-42.9000;0.1547;-0.1581;
-42.6000;0.1514;-0.1557;
-42.3000;0.1530;-0.1486;
-42.0000;0.1547;-0.1414;
-41.7000;0.1506;-0.1533;
-41.4000;0.1514;-0.1486;
-41.1000;0.1514;-0.1438;
-40.8000;0.1522;-0.1462;
-40.5000;0.1498;-0.1557;
-40.2000;0.1563;-0.1438;
-39.9000;0.1514;-0.1533;
-39.6000;0.1473;-0.1509;
-39.3000;0.1538;-0.1366;
-39.0000;0.1538;-0.1342;
-38.7000;0.1457;-0.1486;
-38.4000;0.1506;-0.1342;
-38.1000;0.1498;-0.1366;
-37.8000;0.1530;-0.1246;
-37.5000;0.1563;-0.1222;
-37.2000;0.1547;-0.1246;
-36.9000;0.1473;-0.1533;
-36.6000;0.1538;-0.1318;
-36.3000;0.1547;-0.1270;
-36.0000;0.1514;-0.1318;
-35.7000;0.1498;-0.1390;
-35.4000;0.1514;-0.1366;
-35.1000;0.1522;-0.1342;
-34.8000;0.1555;-0.1342;
-34.5000;0.1555;-0.1414;
-34.2000;0.1514;-0.1557;
-33.9000;0.1538;-0.1557;
-33.6000;0.1530;-0.1533;
-33.3000;0.1547;-0.1533;
-33.0000;0.1547;-0.1486;
-32.7000;0.1555;-0.1509;
-32.4000;0.1547;-0.1557;
-32.1000;0.1530;-0.1677;
-31.8000;0.1538;-0.1605;
-31.5000;0.1522;-0.1701;
-31.2000;0.1522;-0.1725;
-30.9000;0.1522;-0.1629;
-30.6000;0.1538;-0.1557;
-30.3000;0.1522;-0.1605;
-30.0000;0.1514;-0.1605;
-29.7000;0.1538;-0.1462;
-29.4000;0.1522;-0.1557;
-29.1000;0.1538;-0.1486;
-28.8000;0.1555;-0.1318;
-28.5000;0.1514;-0.1462;
-28.2000;0.1522;-0.1438;
-27.9000;0.1514;-0.1533;
-27.6000;0.1555;-0.1414;
-27.3000;0.1538;-0.1414;
-27.0000;0.1538;-0.1486;
-26.7000;0.1514;-0.1486;
-26.4000;0.1538;-0.1390;
-26.1000;0.1514;-0.1557;
-25.8000;0.1514;-0.1533;
-25.5000;0.1530;-0.1629;
-25.2000;0.1547;-0.1533;
-24.9000;0.1506;-0.1629;
-24.6000;0.1530;-0.1605;
-24.3000;0.1530;-0.1605;
-24.0000;0.1538;-0.1581;
-23.7000;0.1530;-0.1581;
-23.4000;0.1522;-0.1581;
-23.1000;0.1506;-0.1509;
-22.8000;0.1473;-0.1581;
-22.5000;0.1538;-0.1533;
-22.2000;0.1514;-0.1557;
-21.9000;0.1538;-0.1438;
-21.6000;0.1522;-0.1509;
-21.3000;0.1506;-0.1462;
-21.0000;0.1514;-0.1414;
-20.7000;0.1514;-0.1366;
-20.4000;0.1498;-0.1414;
-20.1000;0.1538;-0.1318;
-19.8000;0.1522;-0.1342;
-19.5000;0.1506;-0.1390;
-19.2000;0.1514;-0.1366;
-18.9000;0.1506;-0.1294;
-18.6000;0.1530;-0.1270;
-18.3000;0.1522;-0.1342;
-18.0000;0.1547;-0.1342;
-17.7000;0.1538;-0.1414;
-17.4000;0.1530;-0.1414;
-17.1000;0.1555;-0.1270;
-16.8000;0.1538;-0.1318;
-16.5000;0.1547;-0.1294;
-16.2000;0.1530;-0.1318;
-15.9000;0.1490;-0.1414;
-15.6000;0.1563;-0.1102;
-15.3000;0.1522;-0.1174;
-15.0000;0.1538;-0.1102;
-14.7000;0.1538;-0.1174;
-14.4000;0.1555;-0.1198;
-14.1000;0.1522;-0.1294;
-13.8000;0.1514;-0.1318;
-13.5000;0.1530;-0.1270;
-13.2000;0.1522;-0.1318;
-12.9000;0.1530;-0.1222;
-12.6000;0.1538;-0.1150;
-12.3000;0.1555;-0.1078;
-12.0000;0.1514;-0.1198;
-11.7000;0.1538;-0.1102;
-11.4000;0.1530;-0.1078;
-11.1000;0.1538;-0.1126;
-10.8000;0.1538;-0.1198;
-10.5000;0.1522;-0.1294;
-10.2000;0.1530;-0.1270;
-9.9000;0.1522;-0.1270;
-9.6000;0.1547;-0.1270;
-9.3000;0.1514;-0.1390;
-9.0000;0.1522;-0.1318;
-8.7000;0.1547;-0.1174;
-8.4000;0.1538;-0.1198;
-8.1000;0.1530;-0.1246;
-7.8000;0.1514;-0.1318;
-7.5000;0.1449;-0.1390;
-7.2000;0.1538;-0.1246;
-6.9000;0.1555;-0.1198;
-6.6000;0.1400;-0.1629;
-6.3000;0.1538;-0.1270;
-6.0000;0.1547;-0.1270;
-5.7000;0.1538;-0.1246;
-5.4000;0.1506;-0.1342;
-5.1000;0.1538;-0.1222;
-4.8000;0.1547;-0.1126;
-4.5000;0.1473;-0.1318;
-4.2000;0.1530;-0.1102;
-3.9000;0.1530;-0.1150;
-3.6000;0.1522;-0.1198;
-3.3000;0.1538;-0.1150;
-3.0000;0.1530;-0.1198;
-2.7000;0.1587;-0.1126;
-2.4000;0.1547;-0.1198;
-2.1000;0.1547;-0.1174;
-1.8000;0.1522;-0.1174;
-1.5000;0.1498;-0.1270;
-1.2000;0.1449;-0.1438;
-0.9000;0.1530;-0.1198;
-0.6000;0.1514;-0.1222;
-0.3000;0.1490;-0.1294;
0.0000;0.1490;-0.1294;
0.3000;0.1555;-0.1366;
0.6000;0.1547;-0.1246;
0.9000;0.1571;-0.1150;
1.2000;0.1620;-0.0910;
1.5000;0.1490;-0.1126;
1.8000;0.1555;-0.0815;
2.1000;0.1571;-0.0599;
2.4000;0.1555;-0.0575;
2.7000;0.1538;-0.0575;
3.0000;0.1555;-0.0359;
3.3000;0.1579;-0.0264;
3.6000;0.1587;-0.0216;
3.9000;0.1579;-0.0120;
4.2000;0.1563;-0.0192;
4.5000;0.1604;-0.0048;
4.8000;0.1563;-0.0024;
5.1000;0.1563;-0.0048;
5.4000;0.1579;0.0000;
5.7000;0.1571;-0.0096;
6.0000;0.1579;-0.0072;
6.3000;0.1563;-0.0144;
6.6000;0.1579;0.0000;
6.9000;0.1579;0.0000;
7.2000;0.1579;0.0048;
7.5000;0.1571;-0.0024;
7.8000;0.1563;0.0000;
8.1000;0.1571;0.0024;
8.4000;0.1506;-0.0048;
8.7000;0.1555;0.0000;
9.0000;0.1555;-0.0024;
9.3000;0.1547;-0.0024;
9.6000;0.1579;0.0120;
9.9000;0.1571;0.0096;
10.2000;0.1465;-0.0144;
10.5000;0.1563;0.0120;
10.8000;0.1571;0.0096;
11.1000;0.1498;-0.0048;
11.4000;0.1571;0.0096;
11.7000;0.1555;0.0072;
12.0000;0.1701;0.0527;
12.3000;0.1661;0.0407;
12.6000;0.1563;0.0144;
12.9000;0.1538;0.0024;
13.2000;0.1563;0.0000;
13.5000;0.1522;-0.0072;
13.8000;0.1563;0.0072;
14.1000;0.1563;0.0024;
14.4000;0.1571;-0.0072;
14.7000;0.1563;-0.0120;
15.0000;0.1498;-0.0288;
15.3000;0.1563;-0.0072;
15.6000;0.1555;-0.0048;
15.9000;0.1563;0.0000;
16.2000;0.1514;-0.0096;
16.5000;0.1571;0.0024;
16.8000;0.1628;0.0216;
17.1000;0.1555;-0.0024;
17.4000;0.1563;0.0024;
17.7000;0.1555;0.0024;
18.0000;0.1563;0.0024;
18.3000;0.1563;0.0024;
18.6000;0.1579;0.0000;
18.9000;0.1571;0.0096;
19.2000;0.1555;0.0096;
19.5000;0.1538;0.0120;
19.8000;0.1538;0.0024;
20.1000;0.1571;0.0120;
20.4000;0.1563;0.0096;
20.7000;0.1563;0.0048;
21.0000;0.1571;0.0168;
21.3000;0.1571;0.0192;
21.6000;0.1587;0.0192;
21.9000;0.1571;0.0048;
22.2000;0.1595;0.0144;
22.5000;0.1547;0.0048;
22.8000;0.1571;0.0072;
23.1000;0.1571;0.0120;
23.4000;0.1563;0.0024;
23.7000;0.1571;-0.0072;
24.0000;0.1563;-0.0072;
24.3000;0.1555;-0.0024;
24.6000;0.1522;-0.0168;
24.9000;0.1571;-0.0192;
25.2000;0.1644;0.0072;
25.5000;0.1449;-0.0335;
25.8000;0.1571;0.0048;
26.1000;0.1587;0.0072;
26.4000;0.1571;0.0096;
26.7000;0.1563;0.0096;
27.0000;0.1563;0.0048;
27.3000;0.1555;0.0048;
27.6000;0.1555;-0.0048;
27.9000;0.1563;0.0000;
28.2000;0.1571;-0.0024;
28.5000;0.1579;0.0000;
28.8000;0.1587;-0.0024;
29.1000;0.1604;0.0048;
29.4000;0.1571;-0.0096;
29.7000;0.1555;-0.0096;
30.0000;0.1595;0.0024;
30.3000;0.1563;-0.0120;
30.6000;0.1555;-0.0120;
30.9000;0.1563;-0.0024;
31.2000;0.1522;-0.0144;
31.5000;0.1547;-0.0120;
31.8000;0.1563;-0.0120;
32.1000;0.1579;-0.0072;
32.4000;0.1595;0.0024;
32.7000;0.1587;-0.0072;
33.0000;0.1563;-0.0120;
33.3000;0.1701;0.0192;
33.6000;0.1555;-0.0144;
33.9000;0.1563;-0.0120;
34.2000;0.1498;-0.0264;
34.5000;0.1555;-0.0048;
34.8000;0.1563;-0.0096;
35.1000;0.1555;-0.0168;
35.4000;0.1571;-0.0192;
35.7000;0.1571;-0.0168;
36.0000;0.1571;-0.0096;
36.3000;0.1547;-0.0216;
36.6000;0.1571;-0.0168;
36.9000;0.1579;-0.0048;
37.2000;0.1595;-0.0024;
37.5000;0.1579;-0.0120;
37.8000;0.1563;-0.0144;
38.1000;0.1522;-0.0240;
38.4000;0.1563;-0.0216;
38.7000;0.1563;-0.0120;
39.0000;0.1563;-0.0144;
39.3000;0.1571;-0.0144;
39.6000;0.1530;-0.0264;
39.9000;0.1579;-0.0144;
40.2000;0.1587;-0.0072;
40.5000;0.1571;-0.0096;
40.8000;0.1555;-0.0072;
41.1000;0.1636;0.0072;
41.4000;0.1579;-0.0024;
41.7000;0.1571;-0.0024;
42.0000;0.1571;0.0024;
42.3000;0.1555;-0.0072;
42.6000;0.1571;0.0024;
42.9000;0.1563;-0.0096;
43.2000;0.1587;0.0048;
43.5000;0.1595;0.0072;
43.8000;0.1506;-0.0192;
44.1000;0.1538;-0.0096;
44.4000;0.1571;-0.0024;
44.7000;0.1506;-0.0168;
45.0000;0.1555;-0.0048;
45.3000;0.1538;-0.0072;
45.6000;0.1595;0.0096;
45.9000;0.1555;0.0072;
46.2000;0.1555;0.0048;
46.5000;0.1457;-0.0264;
46.8000;0.1571;0.0168;
47.1000;0.1563;-0.0048;
47.4000;0.1473;-0.0335;
47.7000;0.1538;-0.0096;
48.0000;0.1563;-0.0048;
48.3000;0.1595;0.0120;
48.6000;0.1563;0.0072;
48.9000;0.1555;0.0120;
49.2000;0.1530;0.0024;
49.5000;0.1530;0.0048;
49.8000;0.1555;0.0144;
50.1000;0.1579;0.0120;
50.4000;0.1571;0.0048;
50.7000;0.1587;0.0072;
51.0000;0.1522;-0.0072;
51.3000;0.1538;-0.0024;
51.6000;0.1587;0.0072;
51.9000;0.1571;0.0000;
52.2000;0.1555;-0.0048;
52.5000;0.1547;-0.0072;
52.8000;0.1563;-0.0024;
53.1000;0.1595;0.0048;
53.4000;0.1571;-0.0072;
53.7000;0.1571;-0.0120;
54.0000;0.1571;-0.0072;
54.3000;0.1563;-0.0048;
54.6000;0.1563;0.0048;
54.9000;0.1579;0.0024;
55.2000;0.1563;0.0024;
55.5000;0.1538;0.0072;
55.8000;0.1547;0.0048;
56.1000;0.1571;0.0168;
56.4000;0.1563;0.0096;
56.7000;0.1571;0.0072;
57.0000;0.1547;-0.0120;
57.3000;0.1579;-0.0024;
57.6000;0.1547;-0.0120;
57.9000;0.1571;-0.0168;
58.2000;0.1555;-0.0264;
58.5000;0.1563;-0.0240;
58.8000;0.1538;-0.0288;
59.1000;0.1555;-0.0216;
59.4000;0.1579;-0.0096;
59.7000;0.1563;-0.0096;
60.0000;0.1563;-0.0168;
60.3000;0.1538;-0.0240;
60.6000;0.1579;-0.0168;
60.9000;0.1563;-0.0096;
61.2000;0.1563;-0.0072;
61.5000;0.1579;-0.0168;
61.8000;0.1530;-0.0216;
62.1000;0.1555;-0.0192;
62.4000;0.1555;-0.0120;
62.7000;0.1579;-0.0048;
63.0000;0.1709;0.0288;
63.3000;0.1563;-0.0048;
63.6000;0.1636;0.0144;
63.9000;0.1555;-0.0048;
64.2000;0.1563;-0.0024;
64.5000;0.1514;-0.0096;
64.8000;0.1563;0.0096;
65.1000;0.1547;-0.0024;
65.4000;0.1547;-0.0024;
65.7000;0.1563;0.0048;
66.0000;0.1547;-0.0024;
66.3000;0.1579;-0.0024;
66.6000;0.1563;0.0024;
66.9000;0.1530;-0.0048;
67.2000;0.1587;0.0048;
67.5000;0.1547;-0.0072;
67.8000;0.1555;0.0000;
68.1000;0.1465;-0.0240;
68.4000;0.1547;-0.0096;
68.7000;0.1547;-0.0120;
69.0000;0.1677;0.0311;
69.3000;0.1538;0.0024;
69.6000;0.1530;-0.0168;
69.9000;0.1563;-0.0048;
70.2000;0.1579;0.0000;
70.5000;0.1555;-0.0096;
70.8000;0.1579;-0.0120;
71.1000;0.1416;-0.0383;
71.4000;0.1555;0.0000;
71.7000;0.1563;0.0048;
72.0000;0.1547;-0.0096;
72.3000;0.1547;-0.0120;
72.6000;0.1579;0.0024;
72.9000;0.1587;0.0000;
73.2000;0.1522;-0.0144;
73.5000;0.1555;-0.0024;
73.8000;0.1571;0.0024;
74.1000;0.1514;-0.0072;
74.4000;0.1563;0.0072;
74.7000;0.1538;0.0096;
75.0000;0.1555;0.0192;
75.3000;0.1571;0.0192;
75.6000;0.1595;0.0335;
75.9000;0.1579;0.0359;
76.2000;0.1555;0.0192;
76.5000;0.1587;0.0288;
76.8000;0.1579;0.0264;
77.1000;0.1547;0.0264;
77.4000;0.1555;0.0240;
77.7000;0.1563;0.0216;
78.0000;0.1538;0.0144;
78.3000;0.1563;0.0120;
78.6000;0.1538;0.0048;
78.9000;0.1579;0.0192;
79.2000;0.1579;0.0264;
79.5000;0.1571;0.0216;
79.8000;0.1547;0.0216;
80.1000;0.1538;0.0168;
80.4000;0.1571;0.0240;
80.7000;0.1571;0.0144;
81.0000;0.1522;0.0048;
81.3000;0.1530;0.0072;
81.6000;0.1547;0.0024;
81.9000;0.1579;0.0144;
82.2000;0.1563;0.0072;
82.5000;0.1563;0.0072;
82.8000;0.1547;0.0000;
83.1000;0.1547;0.0048;
83.4000;0.1571;0.0048;
83.7000;0.1579;0.0024;
84.0000;0.1555;0.0048;
84.3000;0.1579;0.0072;
84.6000;0.1579;0.0120;
84.9000;0.1563;0.0072;
85.2000;0.1555;0.0096;
85.5000;0.1579;0.0192;
85.8000;0.1563;0.0120;
86.1000;0.1571;0.0168;
86.4000;0.1547;0.0096;
86.7000;0.1555;0.0120;
87.0000;0.1563;0.0072;
87.3000;0.1547;0.0000;
87.6000;0.1563;0.0024;
87.9000;0.1555;-0.0024;
88.2000;0.1571;-0.0024;
88.5000;0.1547;-0.0144;
88.8000;0.1579;-0.0048;
89.1000;0.1587;-0.0024;
89.4000;0.1538;-0.0144;
89.7000;0.1571;-0.0024;
90.0000;0.1522;-0.0048;
90.3000;0.1563;0.0048;
90.6000;0.1579;0.0000;
90.9000;0.1579;0.0048;
91.2000;0.1530;-0.0144;
91.5000;0.1547;-0.0120;
91.8000;0.1563;0.0000;
92.1000;0.1563;0.0024;
92.4000;0.1522;-0.0096;
92.7000;0.1506;-0.0072;
93.0000;0.1604;0.0192;
93.3000;0.1628;0.0168;
93.6000;0.1547;-0.0048;
93.9000;0.1563;0.0024;
94.2000;0.1555;-0.0024;
94.5000;0.1563;0.0048;
94.8000;0.1538;0.0024;
95.1000;0.1669;0.0311;
95.4000;0.1538;-0.0096;
95.7000;0.1555;0.0000;
96.0000;0.1595;0.0096;
96.3000;0.1587;0.0024;
96.6000;0.1547;-0.0024;
96.9000;0.1547;-0.0072;
97.2000;0.1571;0.0000;
97.5000;0.1571;0.0024;
97.8000;0.1547;-0.0048;
98.1000;0.1604;0.0120;
98.4000;0.1571;0.0144;
98.7000;0.1587;0.0144;
99.0000;0.1563;0.0048;
99.3000;0.1547;-0.0024;
99.6000;0.1571;0.0024;
99.9000;0.1547;-0.0048;
100.2000;0.1571;-0.0072;
100.5000;0.1547;-0.0240;
100.8000;0.1555;-0.0264;
101.1000;0.1579;-0.0216;
101.4000;0.1555;-0.0264;
101.7000;0.1555;-0.0264;
102.0000;0.1555;-0.0311;
102.3000;0.1547;-0.0359;
102.6000;0.1563;-0.0311;
102.9000;0.1563;-0.0359;
103.2000;0.1547;-0.0288;
103.5000;0.1547;-0.0168;
103.8000;0.1563;-0.0192;
104.1000;0.1547;-0.0216;
104.4000;0.1547;-0.0216;
104.7000;0.1547;-0.0240;
105.0000;0.1555;-0.0216;
105.3000;0.1563;-0.0216;
105.6000;0.1555;-0.0192;
105.9000;0.1563;-0.0240;
106.2000;0.1563;-0.0240;
106.5000;0.1587;-0.0168;
106.8000;0.1571;-0.0192;
107.1000;0.1571;-0.0144;
107.4000;0.1530;-0.0288;
107.7000;0.1571;-0.0216;
108.0000;0.1661;0.0048;
108.3000;0.1555;-0.0168;
108.6000;0.1563;-0.0072;
108.9000;0.1563;-0.0168;
109.2000;0.1538;-0.0216;
109.5000;0.1612;-0.0048;
109.8000;0.1563;-0.0192;
110.1000;0.1555;-0.0168;
110.4000;0.1595;-0.0048;
110.7000;0.1563;-0.0168;
111.0000;0.1555;-0.0192;
111.3000;0.1563;-0.0168;
111.6000;0.1563;-0.0144;
111.9000;0.1555;-0.0216;
112.2000;0.1555;-0.0168;
112.5000;0.1579;-0.0144;
112.8000;0.1571;-0.0192;
113.1000;0.1555;-0.0192;
113.4000;0.1555;-0.0216;
113.7000;0.1555;-0.0240;
114.0000;0.1538;-0.0359;
114.3000;0.1571;-0.0192;
114.6000;0.1563;-0.0216;
114.9000;0.1547;-0.0216;
115.2000;0.1571;-0.0120;
115.5000;0.1530;-0.0192;
115.8000;0.1555;-0.0240;
116.1000;0.1522;-0.0311;
116.4000;0.1563;-0.0240;
116.7000;0.1498;-0.0383;
117.0000;0.1579;-0.0072;
117.3000;0.1571;-0.0120;
117.6000;0.1571;-0.0120;
117.9000;0.1571;-0.0096;
118.2000;0.1563;-0.0144;
118.5000;0.1547;-0.0192;
118.8000;0.1571;-0.0072;
119.1000;0.1555;-0.0144;
119.4000;0.1563;-0.0096;
119.7000;0.1547;-0.0024;
120.0000;0.1563;-0.0024;
120.3000;0.1563;-0.0144;
120.6000;0.1555;-0.0192;
120.9000;0.1547;-0.0120;
121.2000;0.1522;-0.0168;
121.5000;0.1563;-0.0072;
121.8000;0.1563;-0.0096;
122.1000;0.1538;-0.0120;
122.4000;0.1555;-0.0144;
122.7000;0.1563;-0.0168;
123.0000;0.1563;-0.0096;
123.3000;0.1555;-0.0072;
123.6000;0.1563;-0.0072;
123.9000;0.1555;-0.0072;
124.2000;0.1563;-0.0024;
124.5000;0.1571;0.0048;
124.8000;0.1547;0.0000;
125.1000;0.1547;-0.0144;
125.4000;0.1555;-0.0144;
125.7000;0.1555;-0.0072;
126.0000;0.1547;-0.0144;
126.3000;0.1465;-0.0264;
126.6000;0.1547;-0.0168;
126.9000;0.1555;-0.0120;
127.2000;0.1595;-0.0072;
127.5000;0.1555;-0.0120;
127.8000;0.1547;-0.0192;
128.1000;0.1571;-0.0120;
128.4000;0.1563;-0.0168;
128.7000;0.1538;-0.0288;
129.0000;0.1538;-0.0311;
129.3000;0.1555;-0.0216;
129.6000;0.1547;-0.0264;
129.9000;0.1571;-0.0216;
130.2000;0.1571;-0.0144;
130.5000;0.1563;-0.0216;
130.8000;0.1563;-0.0216;
131.1000;0.1547;-0.0264;
131.4000;0.1498;-0.0407;
131.7000;0.1514;-0.0407;
132.0000;0.1530;-0.0335;
132.3000;0.1425;-0.0623;
132.6000;0.1490;-0.0503;
132.9000;0.1547;-0.0383;
133.2000;0.1563;-0.0288;
133.5000;0.1563;-0.0192;
133.8000;0.1547;-0.0168;
134.1000;0.1547;-0.0096;
134.4000;0.1538;-0.0096;
134.7000;0.1571;0.0024;
135.0000;0.1555;-0.0024;
135.3000;0.1555;0.0000;
135.6000;0.1538;-0.0024;
135.9000;0.1579;0.0048;
136.2000;0.1563;0.0000;
136.5000;0.1563;-0.0024;
136.8000;0.1555;-0.0144;
137.1000;0.1563;-0.0096;
137.4000;0.1555;-0.0120;
137.7000;0.1555;-0.0216;
138.0000;0.1547;-0.0072;
138.3000;0.1547;-0.0072;
138.6000;0.1571;0.0072;
138.9000;0.1547;0.0048;
139.2000;0.1473;-0.0144;
139.5000;0.1563;-0.0048;
139.8000;0.1563;0.0024;
140.1000;0.1563;0.0024;
140.4000;0.1547;0.0000;
140.7000;0.1604;0.0096;
141.0000;0.1555;-0.0144;
141.3000;0.1555;-0.0192;
141.6000;0.1571;-0.0192;
141.9000;0.1555;-0.0144;
142.2000;0.1677;0.0240;
142.5000;0.1563;-0.0192;
142.8000;0.1563;-0.0192;
143.1000;0.1555;-0.0216;
143.4000;0.1563;-0.0264;
143.7000;0.1571;-0.0216;
144.0000;0.1612;-0.0120;
144.3000;0.1514;-0.0311;
144.6000;0.1555;-0.0240;
144.9000;0.1677;0.0144;
145.2000;0.1538;-0.0048;
145.5000;0.1571;0.0048;
145.8000;0.1555;0.0048;
146.1000;0.1571;0.0144;
146.4000;0.1555;0.0168;
146.7000;0.1555;0.0192;
147.0000;0.1555;0.0168;
147.3000;0.1547;0.0120;
147.6000;0.1555;0.0120;
147.9000;0.1547;0.0144;
148.2000;0.1538;0.0192;
148.5000;0.1547;0.0216;
148.8000;0.1555;0.0120;
149.1000;0.1555;0.0048;
149.4000;0.1571;0.0048;
149.7000;0.1555;-0.0072;
150.0000;0.1563;-0.0096;
150.3000;0.1555;-0.0072;
150.6000;0.1579;-0.0144;
150.9000;0.1441;-0.0503;
151.2000;0.1579;-0.0072;
151.5000;0.1571;-0.0144;
151.8000;0.1571;-0.0144;
152.1000;0.1555;-0.0168;
152.4000;0.1612;0.0048;
152.7000;0.1563;-0.0048;
153.0000;0.1538;-0.0144;
153.3000;0.1547;-0.0216;
153.6000;0.1555;-0.0216;
153.9000;0.1555;-0.0168;
154.2000;0.1563;-0.0120;
154.5000;0.1530;-0.0216;
154.8000;0.1547;-0.0120;
155.1000;0.1612;0.0120;
155.4000;0.1563;0.0000;
155.7000;0.1677;0.0288;
156.0000;0.1628;0.0120;
156.3000;0.1579;0.0096;
156.6000;0.1652;0.0335;
156.9000;0.1449;-0.0192;
157.2000;0.1571;0.0072;
157.5000;0.1579;0.0000;
157.8000;0.1652;0.0144;
158.1000;0.1587;0.0048;
158.4000;0.1473;-0.0335;
158.7000;0.1563;-0.0072;
159.0000;0.1563;-0.0144;
159.3000;0.1571;-0.0240;
159.6000;0.1595;-0.0240;
159.9000;0.1571;-0.0264;
160.2000;0.1571;-0.0216;
160.5000;0.1579;-0.0096;
160.8000;0.1587;-0.0048;
161.1000;0.1563;-0.0048;
161.4000;0.1555;-0.0216;
161.7000;0.1555;-0.0168;
162.0000;0.1571;-0.0144;
162.3000;0.1555;-0.0144;
162.6000;0.1522;-0.0192;
162.9000;0.1595;-0.0048;
163.2000;0.1677;0.0240;
163.5000;0.1563;-0.0096;
163.8000;0.1547;-0.0120;
164.1000;0.1563;-0.0048;
164.4000;0.1579;-0.0024;
164.7000;0.1652;0.0192;
165.0000;0.1563;0.0024;
165.3000;0.1538;0.0000;
165.6000;0.1644;0.0359;
165.9000;0.1652;0.0383;
166.2000;0.1490;0.0048;
166.5000;0.1563;0.0144;
166.8000;0.1547;0.0024;
167.1000;0.1538;-0.0048;
167.4000;0.1604;0.0120;
167.7000;0.1547;-0.0024;
168.0000;0.1571;0.0048;
168.3000;0.1563;-0.0048;
168.6000;0.1555;-0.0168;
168.9000;0.1555;-0.0168;
169.2000;0.1587;-0.0072;
169.5000;0.1563;-0.0072;
169.8000;0.1571;-0.0072;
170.1000;0.1555;-0.0096;
170.4000;0.1612;0.0000;
170.7000;0.1563;-0.0048;
171.0000;0.1522;-0.0240;
171.3000;0.1555;-0.0216;
171.6000;0.1555;-0.0288;
171.9000;0.1563;-0.0288;
172.2000;0.1547;-0.0264;
172.5000;0.1538;-0.0240;
172.8000;0.1547;-0.0264;
173.1000;0.1571;-0.0144;
173.4000;0.1595;-0.0120;
173.7000;0.1571;-0.0144;
174.0000;0.1587;-0.0144;
174.3000;0.1612;-0.0072;
174.6000;0.1555;-0.0216;
174.9000;0.1547;-0.0144;
175.2000;0.1547;-0.0120;
175.5000;0.1571;-0.0072;
175.8000;0.1571;0.0024;
176.1000;0.1522;-0.0096;
176.4000;0.1563;0.0000;
176.7000;0.1555;-0.0096;
177.0000;0.1571;-0.0096;
177.3000;0.1571;-0.0096;
177.6000;0.1555;-0.0168;
177.9000;0.1555;-0.0216;
178.2000;0.1538;-0.0264;
178.5000;0.1563;-0.0240;
178.8000;0.1506;-0.0407;
179.1000;0.1547;-0.0288;
179.4000;0.1547;-0.0288;
179.7000;0.1555;-0.0240;
180.0000;0.1498;-0.0479;
180.3000;0.1522;-0.0335;
180.6000;0.1555;-0.0288;
180.9000;0.1571;-0.0144;
181.2000;0.1555;-0.0192;
181.5000;0.1571;-0.0192;
181.8000;0.1522;-0.0288;
182.1000;0.1571;-0.0168;
182.4000;0.1620;-0.0072;
182.7000;0.1555;-0.0240;
183.0000;0.1547;-0.0168;
183.3000;0.1538;-0.0192;
183.6000;0.1595;-0.0120;
183.9000;0.1563;-0.0240;
184.2000;0.1547;-0.0359;
184.5000;0.1579;-0.0288;
184.8000;0.1490;-0.0551;
185.1000;0.1571;-0.0455;
185.4000;0.1538;-0.0599;
185.7000;0.1555;-0.0599;
186.0000;0.1595;-0.0503;
186.3000;0.1530;-0.0599;
186.6000;0.1547;-0.0503;
186.9000;0.1555;-0.0503;
187.2000;0.1661;-0.0144;
187.5000;0.1604;-0.0288;
187.8000;0.1563;-0.0359;
188.1000;0.1579;-0.0288;
188.4000;0.1547;-0.0311;
188.7000;0.1587;-0.0216;
189.0000;0.1571;-0.0264;
189.3000;0.1555;-0.0264;
189.6000;0.1538;-0.0288;
189.9000;0.1530;-0.0311;
190.2000;0.1669;0.0072;
190.5000;0.1579;-0.0168;
190.8000;0.1571;-0.0264;
191.1000;0.1555;-0.0288;
191.4000;0.1547;-0.0431;
191.7000;0.1555;-0.0407;
192.0000;0.1538;-0.0431;
192.3000;0.1538;-0.0431;
192.6000;0.1587;-0.0288;
192.9000;0.1563;-0.0383;
193.2000;0.1571;-0.0311;
193.5000;0.1563;-0.0311;
193.8000;0.1563;-0.0240;
194.1000;0.1547;-0.0240;
194.4000;0.1563;-0.0240;
194.7000;0.1555;-0.0264;
195.0000;0.1579;-0.0311;
195.3000;0.1555;-0.0216;
195.6000;0.1555;-0.0216;
195.9000;0.1579;-0.0144;
196.2000;0.1555;-0.0192;
196.5000;0.1538;-0.0240;
196.8000;0.1555;-0.0144;
197.1000;0.1555;-0.0144;
197.4000;0.1555;-0.0168;
197.7000;0.1547;-0.0264;
198.0000;0.1579;-0.0240;
198.3000;0.1555;-0.0240;
198.6000;0.1547;-0.0240;
198.9000;0.1563;-0.0168;
199.2000;0.1547;-0.0216;
199.5000;0.1538;-0.0264;
199.8000;0.1547;-0.0288;
200.1000;0.1555;-0.0311;
200.4000;0.1636;-0.0240;
200.7000;0.1555;-0.0431;
201.0000;0.1530;-0.0407;
201.3000;0.1457;-0.0599;
201.6000;0.1636;-0.0144;
201.9000;0.1538;-0.0431;
202.2000;0.1538;-0.0479;
202.5000;0.1555;-0.0431;
202.8000;0.1563;-0.0383;
203.1000;0.1530;-0.0407;
203.4000;0.1555;-0.0359;
203.7000;0.1555;-0.0407;
204.0000;0.1555;-0.0431;
204.3000;0.1579;-0.0311;
204.6000;0.1400;-0.0791;
204.9000;0.1563;-0.0359;
205.2000;0.1612;-0.0192;
205.5000;0.1555;-0.0479;
205.8000;0.1563;-0.0455;
206.1000;0.1571;-0.0383;
206.4000;0.1555;-0.0335;
206.7000;0.1555;-0.0216;
207.0000;0.1538;-0.0264;
207.3000;0.1604;-0.0120;
207.6000;0.1563;-0.0264;
207.9000;0.1538;-0.0240;
208.2000;0.1547;-0.0288;
208.5000;0.1538;-0.0335;
208.8000;0.1555;-0.0311;
209.1000;0.1547;-0.0335;
209.4000;0.1587;-0.0288;
209.7000;0.1538;-0.0383;
210.0000;0.1547;-0.0431;
210.3000;0.1571;-0.0288;
210.6000;0.1620;-0.0216;
210.9000;0.1563;-0.0383;
211.2000;0.1530;-0.0383;
211.5000;0.1595;-0.0264;
211.8000;0.1522;-0.0407;
212.1000;0.1563;-0.0335;
212.4000;0.1530;-0.0479;
212.7000;0.1612;-0.0240;
213.0000;0.1555;-0.0359;
213.3000;0.1547;-0.0359;
213.6000;0.1555;-0.0311;
213.9000;0.1555;-0.0216;
214.2000;0.1555;-0.0311;
214.5000;0.1547;-0.0264;
214.8000;0.1547;-0.0264;
215.1000;0.1579;-0.0168;
215.4000;0.1563;-0.0288;
215.7000;0.1579;-0.0168;
216.0000;0.1555;-0.0192;
216.3000;0.1547;-0.0216;
216.6000;0.1579;-0.0072;
216.9000;0.1547;-0.0216;
217.2000;0.1579;-0.0120;
217.5000;0.1628;0.0120;
217.8000;0.1563;-0.0192;
218.1000;0.1555;-0.0311;
218.4000;0.1563;-0.0264;
218.7000;0.1604;-0.0120;
219.0000;0.1538;-0.0335;
219.3000;0.1547;-0.0383;
219.6000;0.1579;-0.0335;
219.9000;0.1547;-0.0383;
220.2000;0.1555;-0.0335;
220.5000;0.1563;-0.0288;
220.8000;0.1563;-0.0311;
221.1000;0.1563;-0.0240;
221.4000;0.1555;-0.0264;
221.7000;0.1547;-0.0240;
222.0000;0.1547;-0.0335;
222.3000;0.1563;-0.0264;
222.6000;0.1579;-0.0288;
222.9000;0.1522;-0.0383;
223.2000;0.1530;-0.0431;
223.5000;0.1571;-0.0335;
223.8000;0.1530;-0.0479;
224.1000;0.1457;-0.0623;
224.4000;0.1604;-0.0216;
224.7000;0.1612;-0.0096;
225.0000;0.1547;-0.0192;
225.3000;0.1506;-0.0264;
225.6000;0.1530;-0.0335;
225.9000;0.1563;-0.0168;
226.2000;0.1555;-0.0096;
226.5000;0.1563;-0.0120;
226.8000;0.1563;-0.0072;
227.1000;0.1563;-0.0216;
227.4000;0.1506;-0.0407;
227.7000;0.1563;-0.0240;
228.0000;0.1538;-0.0359;
228.3000;0.1522;-0.0479;
228.6000;0.1579;-0.0288;
228.9000;0.1563;-0.0407;
229.2000;0.1547;-0.0431;
229.5000;0.1522;-0.0503;
229.8000;0.1547;-0.0527;
230.1000;0.1563;-0.0575;
230.4000;0.1587;-0.0431;
230.7000;0.1555;-0.0503;
231.0000;0.1563;-0.0479;
231.3000;0.1571;-0.0407;
231.6000;0.1571;-0.0431;
231.9000;0.1547;-0.0431;
232.2000;0.1538;-0.0383;
232.5000;0.1547;-0.0479;
232.8000;0.1555;-0.0407;
233.1000;0.1547;-0.0503;
233.4000;0.1661;-0.0192;
233.7000;0.1555;-0.0503;
234.0000;0.1547;-0.0407;
234.3000;0.1563;-0.0431;
234.6000;0.1555;-0.0431;
234.9000;0.1473;-0.0623;
235.2000;0.1538;-0.0407;
235.5000;0.1563;-0.0407;
235.8000;0.1555;-0.0407;
236.1000;0.1571;-0.0264;
236.4000;0.1547;-0.0335;
236.7000;0.1547;-0.0359;
237.0000;0.1563;-0.0288;
237.3000;0.1547;-0.0383;
237.6000;0.1555;-0.0359;
237.9000;0.1538;-0.0407;
238.2000;0.1547;-0.0431;
238.5000;0.1530;-0.0455;
238.8000;0.1547;-0.0479;
239.1000;0.1555;-0.0623;
239.4000;0.1530;-0.0815;
239.7000;0.1538;-0.0767;
240.0000;0.1555;-0.0695;
240.3000;0.1620;-0.0455;
240.6000;0.1563;-0.0623;
240.9000;0.1563;-0.0599;
241.2000;0.1555;-0.0599;
241.5000;0.1595;-0.0479;
241.8000;0.1555;-0.0575;
242.1000;0.1538;-0.0527;
242.4000;0.1538;-0.0503;
242.7000;0.1579;-0.0503;
243.0000;0.1555;-0.0503;
243.3000;0.1506;-0.0599;
243.6000;0.1530;-0.0551;
243.9000;0.1555;-0.0431;
244.2000;0.1587;-0.0359;
244.5000;0.1571;-0.0431;
244.8000;0.1547;-0.0503;
245.1000;0.1563;-0.0431;
245.4000;0.1579;-0.0479;
245.7000;0.1538;-0.0623;
246.0000;0.1563;-0.0503;
246.3000;0.1473;-0.0695;
246.6000;0.1555;-0.0503;
246.9000;0.1547;-0.0455;
247.2000;0.1538;-0.0527;
247.5000;0.1595;-0.0335;
247.8000;0.1555;-0.0479;
248.1000;0.1555;-0.0575;
248.4000;0.1506;-0.0695;
248.7000;0.1530;-0.0695;
249.0000;0.1547;-0.0695;
249.3000;0.1579;-0.0623;
249.6000;0.1555;-0.0599;
249.9000;0.1555;-0.0527;
250.2000;0.1547;-0.0551;
250.5000;0.1604;-0.0479;
250.8000;0.1506;-0.0839;
251.1000;0.1563;-0.0743;
251.4000;0.1530;-0.0910;
251.7000;0.1563;-0.0863;
252.0000;0.1571;-0.0863;
252.3000;0.1563;-0.0887;
252.6000;0.1555;-0.0934;
252.9000;0.1563;-0.0887;
253.2000;0.1563;-0.0887;
253.5000;0.1547;-0.0791;
253.8000;0.1538;-0.0599;
254.1000;0.1555;-0.0551;
254.4000;0.1579;-0.0431;
254.7000;0.1579;-0.0359;
255.0000;0.1547;-0.0479;
255.3000;0.1547;-0.0551;
255.6000;0.1620;-0.0407;
255.9000;0.1563;-0.0551;
256.2000;0.1652;-0.0311;
256.5000;0.1579;-0.0527;
256.8000;0.1498;-0.0791;
257.1000;0.1644;-0.0479;
257.4000;0.1547;-0.0719;
257.7000;0.1538;-0.0599;
258.0000;0.1555;-0.0407;
258.3000;0.1563;-0.0359;
258.6000;0.1628;-0.0120;
258.9000;0.1555;-0.0240;
259.2000;0.1571;-0.0216;
259.5000;0.1498;-0.0407;
259.8000;0.1555;-0.0240;
260.1000;0.1669;0.0072;
260.4000;0.1522;-0.0311;
260.7000;0.1538;-0.0264;
261.0000;0.1571;-0.0240;
261.3000;0.1547;-0.0359;
261.6000;0.1595;-0.0168;
261.9000;0.1555;-0.0216;
262.2000;0.1652;0.0048;
262.5000;0.1555;-0.0264;
262.8000;0.1547;-0.0240;
263.1000;0.1571;-0.0120;
263.4000;0.1530;-0.0311;
263.7000;0.1563;-0.0216;
264.0000;0.1538;-0.0240;
264.3000;0.1538;-0.0144;
264.6000;0.1538;-0.0120;
264.9000;0.1547;-0.0144;
265.2000;0.1563;-0.0120;
265.5000;0.1538;-0.0264;
265.8000;0.1547;-0.0311;
266.1000;0.1579;-0.0120;
266.4000;0.1563;-0.0144;
266.7000;0.1555;-0.0048;
267.0000;0.1571;0.0000;
267.3000;0.1490;-0.0144;
267.6000;0.1538;0.0048;
267.9000;0.1530;0.0000;
268.2000;0.1538;0.0000;
268.5000;0.1555;-0.0048;
268.8000;0.1563;0.0000;
269.1000;0.1579;-0.0024;
269.4000;0.1538;-0.0192;
269.7000;0.1563;-0.0144;
270.0000;0.1563;-0.0120;
270.3000;0.1595;-0.0072;
270.6000;0.1547;-0.0216;
270.9000;0.1547;-0.0192;
271.2000;0.1555;-0.0192;
271.5000;0.1547;-0.0216;
271.8000;0.1547;-0.0240;
272.1000;0.1547;-0.0335;
272.4000;0.1604;-0.0168;
272.7000;0.1530;-0.0407;
273.0000;0.1514;-0.0431;
273.3000;0.1547;-0.0311;
273.6000;0.1563;-0.0192;
273.9000;0.1530;-0.0168;
274.2000;0.1547;-0.0168;
274.5000;0.1547;-0.0072;
274.8000;0.1530;-0.0096;
275.1000;0.1693;0.0240;
275.4000;0.1530;-0.0240;
275.7000;0.1538;-0.0192;
276.0000;0.1522;-0.0240;
276.3000;0.1563;-0.0096;
276.6000;0.1538;-0.0072;
276.9000;0.1473;-0.0192;
277.2000;0.1538;-0.0048;
277.5000;0.1547;-0.0120;
277.8000;0.1563;-0.0072;
278.1000;0.1652;0.0264;
278.4000;0.1555;-0.0024;
278.7000;0.1563;-0.0072;
279.0000;0.1547;-0.0192;
279.3000;0.1555;-0.0288;
279.6000;0.1571;-0.0288;
279.9000;0.1669;0.0072;
280.2000;0.1457;-0.0503;
280.5000;0.1587;-0.0192;
280.8000;0.1555;-0.0288;
281.1000;0.1595;-0.0048;
281.4000;0.1587;0.0024;
281.7000;0.1547;-0.0192;
282.0000;0.1547;-0.0240;
282.3000;0.1555;-0.0264;
282.6000;0.1514;-0.0264;
282.9000;0.1571;-0.0120;
283.2000;0.1555;-0.0192;
283.5000;0.1547;-0.0216;
283.8000;0.1481;-0.0359;
284.1000;0.1571;-0.0120;
284.4000;0.1538;-0.0168;
284.7000;0.1571;-0.0096;
285.0000;0.1498;-0.0359;
285.3000;0.1571;-0.0120;
285.6000;0.1555;-0.0216;
285.9000;0.1555;-0.0264;
286.2000;0.1522;-0.0264;
286.5000;0.1571;-0.0144;
286.8000;0.1563;-0.0072;
287.1000;0.1563;-0.0096;
287.4000;0.1522;-0.0168;
287.7000;0.1547;-0.0072;
288.0000;0.1538;-0.0072;
288.3000;0.1490;-0.0192;
288.6000;0.1514;-0.0120;
288.9000;0.1530;-0.0096;
289.2000;0.1563;0.0048;
289.5000;0.1563;0.0000;
289.8000;0.1563;0.0024;
290.1000;0.1555;-0.0048;
290.4000;0.1555;-0.0144;
290.7000;0.1563;-0.0096;
291.0000;0.1563;-0.0216;
291.3000;0.1563;-0.0144;
291.6000;0.1530;-0.0216;
291.9000;0.1571;0.0024;
292.2000;0.1563;0.0048;
292.5000;0.1547;0.0000;
292.8000;0.1530;0.0000;
293.1000;0.1571;0.0120;
293.4000;0.1555;0.0024;
293.7000;0.1555;-0.0072;
294.0000;0.1685;0.0216;
294.3000;0.1563;-0.0144;
294.6000;0.1571;-0.0096;
294.9000;0.1563;-0.0168;
295.2000;0.1563;-0.0168;
295.5000;0.1473;-0.0407;
295.8000;0.1563;-0.0192;
296.1000;0.1498;-0.0383;
296.4000;0.1457;-0.0431;
296.7000;0.1555;-0.0144;
297.0000;0.1547;-0.0120;
297.3000;0.1481;-0.0264;
297.6000;0.1514;-0.0168;
297.9000;0.1571;-0.0144;
298.2000;0.1530;-0.0240;
298.5000;0.1547;-0.0192;
298.8000;0.1530;-0.0240;
299.1000;0.1538;-0.0311;
299.4000;0.1547;-0.0311;
299.7000;0.1563;-0.0264;
300.0000;0.1563;-0.0311;
300.3000;0.1555;-0.0311;
300.6000;0.1563;-0.0240;
300.9000;0.1579;-0.0144;
301.2000;0.1579;-0.0120;
301.5000;0.1563;-0.0216;
301.8000;0.1563;-0.0120;
302.1000;0.1620;0.0096;
302.4000;0.1538;-0.0120;
302.7000;0.1555;-0.0096;
303.0000;0.1506;-0.0216;
303.3000;0.1555;-0.0120;
303.6000;0.1547;-0.0096;
303.9000;0.1571;-0.0024;
304.2000;0.1538;-0.0120;
304.5000;0.1547;-0.0144;
304.8000;0.1571;-0.0096;
305.1000;0.1587;-0.0072;
305.4000;0.1555;-0.0168;
305.7000;0.1571;-0.0168;
306.0000;0.1555;-0.0120;
306.3000;0.1563;-0.0144;
306.6000;0.1530;-0.0120;
306.9000;0.1530;-0.0096;
307.2000;0.1498;-0.0120;
307.5000;0.1555;0.0024;
307.8000;0.1547;-0.0072;
308.1000;0.1555;-0.0096;
308.4000;0.1547;-0.0120;
308.7000;0.1547;-0.0048;
309.0000;0.1530;-0.0240;
309.3000;0.1571;-0.0096;
309.6000;0.1547;-0.0048;
309.9000;0.1563;0.0024;
310.2000;0.1555;0.0048;
310.5000;0.1547;0.0072;
310.8000;0.1555;0.0024;
311.1000;0.1571;0.0072;
311.4000;0.1563;0.0144;
311.7000;0.1547;0.0096;
312.0000;0.1530;0.0096;
312.3000;0.1555;0.0120;
312.6000;0.1547;0.0072;
312.9000;0.1530;0.0048;
313.2000;0.1538;-0.0024;
313.5000;0.1579;0.0048;
313.8000;0.1563;-0.0048;
314.1000;0.1547;-0.0144;
314.4000;0.1571;-0.0144;
314.7000;0.1563;-0.0192;
315.0000;0.1563;-0.0048;
315.3000;0.1571;0.0000;
315.6000;0.1547;-0.0048;
315.9000;0.1579;0.0072;
316.2000;0.1579;0.0024;
316.5000;0.1563;0.0000;
316.8000;0.1555;-0.0096;
317.1000;0.1522;-0.0168;
317.4000;0.1547;-0.0072;
317.7000;0.1547;-0.0072;
318.0000;0.1538;-0.0096;
318.3000;0.1563;-0.0048;
318.6000;0.1563;0.0048;
318.9000;0.1571;0.0048;
319.2000;0.1530;-0.0072;
319.5000;0.1571;0.0000;
319.8000;0.1555;0.0048;
320.1000;0.1595;0.0216;
320.4000;0.1571;0.0072;
320.7000;0.1563;0.0000;
321.0000;0.1563;0.0048;
321.3000;0.1563;0.0072;
321.6000;0.1555;0.0000;
321.9000;0.1555;-0.0048;
322.2000;0.1620;0.0096;
322.5000;0.1555;-0.0072;
322.8000;0.1587;-0.0048;
323.1000;0.1587;0.0072;
323.4000;0.1571;-0.0048;
323.7000;0.1555;-0.0024;
324.0000;0.1522;-0.0144;
324.3000;0.1522;-0.0144;
324.6000;0.1595;0.0072;
324.9000;0.1547;-0.0048;
325.2000;0.1538;-0.0120;
325.5000;0.1555;-0.0072;
325.8000;0.1571;-0.0048;
326.1000;0.1547;-0.0120;
326.4000;0.1498;-0.0288;
326.7000;0.1571;-0.0120;
327.0000;0.1587;-0.0024;
327.3000;0.1555;-0.0072;
327.6000;0.1547;-0.0048;
327.9000;0.1579;0.0000;
328.2000;0.1563;-0.0072;
328.5000;0.1563;-0.0096;
328.8000;0.1555;-0.0048;
329.1000;0.1530;-0.0120;
329.4000;0.1563;0.0000;
329.7000;0.1547;-0.0072;
330.0000;0.1563;-0.0072;
330.3000;0.1514;-0.0264;
330.6000;0.1555;-0.0072;
330.9000;0.1530;-0.0144;
331.2000;0.1547;-0.0120;
331.5000;0.1538;-0.0072;
331.8000;0.1563;-0.0024;
332.1000;0.1563;-0.0096;
332.4000;0.1547;-0.0144;
332.7000;0.1571;-0.0144;
333.0000;0.1547;-0.0240;
333.3000;0.1571;-0.0192;
333.6000;0.1530;-0.0240;
333.9000;0.1563;-0.0168;
334.2000;0.1555;-0.0144;
334.5000;0.1571;-0.0048;
334.8000;0.1522;-0.0120;
335.1000;0.1514;-0.0240;
335.4000;0.1530;-0.0144;
335.7000;0.1563;-0.0096;
336.0000;0.1547;-0.0072;
336.3000;0.1473;-0.0311;
336.6000;0.1538;-0.0096;
336.9000;0.1555;-0.0024;
337.2000;0.1571;0.0000;
337.5000;0.1530;-0.0120;
337.8000;0.1547;-0.0072;
338.1000;0.1547;-0.0144;
338.4000;0.1530;-0.0240;
338.7000;0.1547;-0.0240;
339.0000;0.1555;-0.0192;
339.3000;0.1538;-0.0216;
339.6000;0.1555;-0.0240;
339.9000;0.1547;-0.0264;
340.2000;0.1563;-0.0168;
340.5000;0.1555;-0.0192;
340.8000;0.1571;-0.0168;
341.1000;0.1563;-0.0096;
341.4000;0.1547;-0.0144;
341.7000;0.1555;-0.0216;
342.0000;0.1522;-0.0240;
342.3000;0.1555;-0.0192;
342.6000;0.1563;-0.0240;
342.9000;0.1563;-0.0311;
343.2000;0.1547;-0.0264;
343.5000;0.1555;-0.0240;
343.8000;0.1563;-0.0216;
344.1000;0.1555;-0.0240;
344.4000;0.1563;-0.0168;
344.7000;0.1563;-0.0192;
345.0000;0.1555;-0.0168;
345.3000;0.1530;-0.0192;
345.6000;0.1498;-0.0311;
345.9000;0.1530;-0.0120;
346.2000;0.1547;-0.0168;
346.5000;0.1555;-0.0192;
346.8000;0.1506;-0.0288;
347.1000;0.1555;-0.0144;
347.4000;0.1555;-0.0216;
347.7000;0.1547;-0.0144;
348.0000;0.1555;-0.0168;
348.3000;0.1538;-0.0096;
348.6000;0.1555;-0.0096;
348.9000;0.1555;-0.0120;
349.2000;0.1555;-0.0192;
349.5000;0.1571;-0.0240;
349.8000;0.1555;-0.0288;
350.1000;0.1538;-0.0311;
350.4000;0.1555;-0.0168;
350.7000;0.1473;-0.0383;
351.0000;0.1555;-0.0096;
351.3000;0.1555;-0.0024;
351.6000;0.1563;-0.0024;
351.9000;0.1612;0.0120;
352.2000;0.1547;-0.0024;
352.5000;0.1563;-0.0048;
352.8000;0.1555;-0.0120;
353.1000;0.1522;-0.0264;
353.4000;0.1571;-0.0144;
353.7000;0.1571;-0.0120;
354.0000;0.1661;0.0024;
354.3000;0.1563;-0.0264;
354.6000;0.1563;-0.0216;
354.9000;0.1555;-0.0144;
355.2000;0.1555;-0.0072;
355.5000;0.1571;-0.0096;
355.8000;0.1571;-0.0048;
356.1000;0.1547;-0.0048;
356.4000;0.1555;-0.0144;
356.7000;0.1530;-0.0264;
357.0000;0.1506;-0.0359;
357.3000;0.1538;-0.0359;
357.6000;0.1555;-0.0431;
357.9000;0.1563;-0.0479;
358.2000;0.1563;-0.0503;
358.5000;0.1522;-0.0551;
358.8000;0.1636;-0.0216;
359.1000;0.1563;-0.0359;
359.4000;0.1441;-0.0575;
359.7000;0.1579;-0.0216;
360.0000;0.1555;-0.0216;
360.3000;0.1579;-0.0120;
360.6000;0.1555;-0.0240;
360.9000;0.1547;-0.0288;
361.2000;0.1530;-0.0359;
361.5000;0.1547;-0.0335;
361.8000;0.1538;-0.0288;
362.1000;0.1555;-0.0216;
362.4000;0.1547;-0.0288;
362.7000;0.1555;-0.0240;
363.0000;0.1563;-0.0192;
363.3000;0.1579;-0.0144;
363.6000;0.1547;-0.0264;
363.9000;0.1555;-0.0240;
364.2000;0.1555;-0.0216;
364.5000;0.1563;-0.0144;
364.8000;0.1547;-0.0168;
365.1000;0.1530;-0.0192;
365.4000;0.1571;-0.0096;
365.7000;0.1538;-0.0168;
366.0000;0.1547;-0.0240;
366.3000;0.1563;-0.0192;
366.6000;0.1587;-0.0048;
366.9000;0.1481;-0.0264;
367.2000;0.1522;-0.0072;
367.5000;0.1555;0.0000;
367.8000;0.1547;-0.0096;
368.1000;0.1555;-0.0144;
368.4000;0.1457;-0.0431;
368.7000;0.1563;-0.0144;
369.0000;0.1555;-0.0216;
369.3000;0.1563;-0.0264;
369.6000;0.1571;-0.0216;
369.9000;0.1579;-0.0120;
370.2000;0.1547;-0.0192;
370.5000;0.1555;-0.0192;
370.8000;0.1555;-0.0216;
371.1000;0.1441;-0.0551;
371.4000;0.1579;-0.0168;
371.7000;0.1563;-0.0168;
372.0000;0.1563;-0.0359;
372.3000;0.1465;-0.0527;
372.6000;0.1579;-0.0240;
372.9000;0.1514;-0.0264;
373.2000;0.1636;0.0120;
373.5000;0.1628;0.0072;
373.8000;0.1547;-0.0096;
374.1000;0.1530;-0.0168;
374.4000;0.1563;-0.0168;
374.7000;0.1530;-0.0288;
375.0000;0.1538;-0.0168;
375.3000;0.1547;-0.0216;
375.6000;0.1433;-0.0551;
375.9000;0.1579;-0.0120;
376.2000;0.1408;-0.0599;
376.5000;0.1465;-0.0383;
376.8000;0.1563;-0.0144;
377.1000;0.1579;-0.0096;
377.4000;0.1555;-0.0120;
377.7000;0.1563;-0.0072;
378.0000;0.1465;-0.0240;
378.3000;0.1563;0.0000;
378.6000;0.1522;-0.0096;
378.9000;0.1547;-0.0096;
379.2000;0.1547;-0.0048;
379.5000;0.1579;-0.0048;
379.8000;0.1563;-0.0048;
380.1000;0.1571;-0.0048;
380.4000;0.1547;-0.0192;
380.7000;0.1538;-0.0264;
381.0000;0.1563;-0.0120;
381.3000;0.1514;-0.0192;
381.6000;0.1579;-0.0024;
381.9000;0.1547;-0.0096;
382.2000;0.1547;-0.0096;
382.5000;0.1579;-0.0120;
382.8000;0.1555;-0.0216;
383.1000;0.1538;-0.0288;
383.4000;0.1604;-0.0072;
383.7000;0.1547;-0.0240;
384.0000;0.1530;-0.0264;
384.3000;0.1571;-0.0168;
384.6000;0.1571;-0.0216;
384.9000;0.1547;-0.0216;
385.2000;0.1538;-0.0120;
385.5000;0.1530;-0.0096;
385.8000;0.1563;-0.0048;
386.1000;0.1555;-0.0072;
386.4000;0.1563;-0.0120;
386.7000;0.1522;-0.0168;
387.0000;0.1547;-0.0096;
387.3000;0.1571;-0.0072;
387.6000;0.1547;-0.0120;
387.9000;0.1538;-0.0120;
388.2000;0.1555;-0.0048;
388.5000;0.1555;0.0024;
388.8000;0.1538;-0.0024;
389.1000;0.1571;-0.0120;
389.4000;0.1563;-0.0096;
389.7000;0.1555;-0.0096;
390.0000;0.1579;-0.0096;
390.3000;0.1538;-0.0144;
390.6000;0.1555;-0.0168;
390.9000;0.1547;-0.0168;
391.2000;0.1563;-0.0096;
391.5000;0.1547;-0.0120;
391.8000;0.1555;-0.0096;
392.1000;0.1555;-0.0120;
392.4000;0.1563;-0.0144;
392.7000;0.1555;-0.0192;
393.0000;0.1620;0.0000;
393.3000;0.1555;-0.0144;
393.6000;0.1579;-0.0072;
393.9000;0.1612;-0.0048;
394.2000;0.1538;-0.0359;
394.5000;0.1555;-0.0264;
394.8000;0.1571;-0.0168;
395.1000;0.1620;0.0024;
395.4000;0.1538;-0.0096;
395.7000;0.1538;-0.0048;
396.0000;0.1555;-0.0072;
396.3000;0.1587;0.0048;
396.6000;0.1530;-0.0096;
396.9000;0.1571;0.0000;
397.2000;0.1563;-0.0024;
397.5000;0.1506;-0.0192;
397.8000;0.1547;-0.0096;
398.1000;0.1555;-0.0120;
398.4000;0.1506;-0.0192;
398.7000;0.1563;-0.0024;
399.0000;0.1587;0.0144;
399.3000;0.1441;-0.0288;
399.6000;0.1514;-0.0144;
399.9000;0.1547;-0.0120;
400.2000;0.1620;0.0096;
400.5000;0.1514;-0.0144;
400.8000;0.1547;-0.0072;
401.1000;0.1547;0.0072;
401.4000;0.1595;0.0048;
401.7000;0.1563;0.0024;
402.0000;0.1547;0.0048;
402.3000;0.1514;-0.0120;
402.6000;0.1522;-0.0144;
402.9000;0.1571;-0.0024;
403.2000;0.1571;0.0000;
403.5000;0.1563;0.0024;
403.8000;0.1547;0.0024;
404.1000;0.1563;0.0000;
404.4000;0.1547;-0.0048;
404.7000;0.1538;-0.0168;
405.0000;0.1579;-0.0072;
405.3000;0.1563;-0.0120;
405.6000;0.1530;-0.0216;
405.9000;0.1579;-0.0048;
406.2000;0.1571;-0.0072;
406.5000;0.1563;-0.0048;
406.8000;0.1563;0.0024;
407.1000;0.1563;0.0072;
407.4000;0.1555;0.0072;
407.7000;0.1571;0.0120;
408.0000;0.1579;0.0120;
408.3000;0.1547;0.0024;
408.6000;0.1587;-0.0024;
408.9000;0.1555;-0.0096;
409.2000;0.1530;-0.0144;
409.5000;0.1563;-0.0072;
409.8000;0.1538;-0.0120;
410.1000;0.1579;-0.0048;
410.4000;0.1555;0.0000;
410.7000;0.1547;0.0048;
411.0000;0.1547;0.0000;
411.3000;0.1547;-0.0024;
411.6000;0.1620;0.0144;
411.9000;0.1547;-0.0072;
412.2000;0.1563;0.0000;
412.5000;0.1547;-0.0072;
412.8000;0.1571;0.0024;
413.1000;0.1563;0.0000;
413.4000;0.1514;-0.0048;
413.7000;0.1547;0.0000;
414.0000;0.1522;-0.0096;
414.3000;0.1538;0.0024;
414.6000;0.1563;0.0072;
414.9000;0.1555;0.0048;
415.2000;0.1555;0.0000;
415.5000;0.1506;-0.0120;
415.8000;0.1547;0.0048;
416.1000;0.1563;0.0000;
416.4000;0.1595;0.0120;
416.7000;0.1563;0.0000;
417.0000;0.1571;0.0024;
417.3000;0.1563;-0.0024;
417.6000;0.1506;-0.0168;
417.9000;0.1547;-0.0096;
418.2000;0.1538;-0.0096;
418.5000;0.1563;-0.0096;
418.8000;0.1563;-0.0072;
419.1000;0.1563;-0.0096;
419.4000;0.1555;-0.0240;
419.7000;0.1571;-0.0216;
420.0000;0.1563;-0.0168;
420.3000;0.1579;-0.0120;
420.6000;0.1563;-0.0120;
420.9000;0.1538;-0.0120;
421.2000;0.1555;-0.0192;
421.5000;0.1555;-0.0120;
421.8000;0.1555;-0.0048;
422.1000;0.1563;0.0048;
422.4000;0.1555;0.0096;
422.7000;0.1538;0.0072;
423.0000;0.1555;0.0096;
423.3000;0.1555;0.0120;
423.6000;0.1530;0.0048;
423.9000;0.1579;0.0096;
424.2000;0.1587;0.0048;
424.5000;0.1538;-0.0048;
424.8000;0.1563;0.0072;
425.1000;0.1571;0.0024;
425.4000;0.1555;-0.0120;
425.7000;0.1547;-0.0288;
426.0000;0.1547;-0.0168;
426.3000;0.1555;-0.0096;
426.6000;0.1555;-0.0120;
426.9000;0.1547;-0.0144;
427.2000;0.1547;-0.0192;
427.5000;0.1506;-0.0072;
427.8000;0.1555;0.0024;
428.1000;0.1571;0.0096;
428.4000;0.1620;0.0240;
428.7000;0.1563;0.0120;
429.0000;0.1538;0.0048;
429.3000;0.1595;0.0168;
429.6000;0.1530;-0.0096;
429.9000;0.1563;0.0000;
430.2000;0.1563;0.0048;
430.5000;0.1538;-0.0096;
430.8000;0.1555;0.0000;
431.1000;0.1579;0.0048;
431.4000;0.1555;-0.0024;
431.7000;0.1571;-0.0048;
432.0000;0.1579;-0.0072;
432.3000;0.1530;-0.0168;
432.6000;0.1579;-0.0072;
432.9000;0.1547;-0.0192;
433.2000;0.1538;-0.0240;
433.5000;0.1522;-0.0192;
433.8000;0.1555;-0.0168;
434.1000;0.1555;-0.0192;
434.4000;0.1652;0.0096;
434.7000;0.1555;-0.0120;
435.0000;0.1555;-0.0144;
435.3000;0.1555;-0.0048;
435.6000;0.1661;0.0240;
435.9000;0.1579;0.0072;
436.2000;0.1481;-0.0144;
436.5000;0.1481;-0.0216;
436.8000;0.1522;-0.0144;
437.1000;0.1563;0.0024;
437.4000;0.1571;0.0048;
437.7000;0.1538;-0.0072;
438.0000;0.1538;-0.0096;
438.3000;0.1538;-0.0192;
438.6000;0.1571;0.0000;
438.9000;0.1530;-0.0072;
439.2000;0.1555;-0.0048;
439.5000;0.1652;0.0216;
439.8000;0.1571;-0.0096;
440.1000;0.1563;-0.0096;
440.4000;0.1555;-0.0072;
440.7000;0.1555;-0.0048;
441.0000;0.1555;-0.0048;
441.3000;0.1579;0.0024;
441.6000;0.1571;-0.0048;
441.9000;0.1555;-0.0192;
442.2000;0.1555;-0.0144;
442.5000;0.1571;0.0024;
442.8000;0.1555;0.0000;
443.1000;0.1498;-0.0168;
443.4000;0.1555;0.0024;
443.7000;0.1555;-0.0024;
444.0000;0.1547;-0.0024;
444.3000;0.1571;0.0024;
444.6000;0.1547;0.0024;
444.9000;0.1538;-0.0096;
445.2000;0.1563;0.0000;
445.5000;0.1547;0.0000;
445.8000;0.1547;-0.0024;
446.1000;0.1555;0.0072;
446.4000;0.1547;0.0024;
446.7000;0.1563;0.0120;
447.0000;0.1538;0.0024;
447.3000;0.1522;-0.0048;
447.6000;0.1571;0.0072;
447.9000;0.1555;0.0048;
448.2000;0.1547;-0.0024;
448.5000;0.1530;-0.0048;
448.8000;0.1547;0.0048;
449.1000;0.1571;0.0168;
449.4000;0.1530;0.0024;
449.7000;0.1547;0.0096;
450.0000;0.1563;0.0168;
450.3000;0.1555;0.0264;
450.6000;0.1563;0.0288;
450.9000;0.1547;0.0168;
451.2000;0.1530;0.0144;
451.5000;0.1669;0.0551;
451.8000;0.1555;0.0144;
452.1000;0.1579;0.0120;
452.4000;0.1538;-0.0072;
452.7000;0.1563;-0.0048;
453.0000;0.1563;-0.0096;
453.3000;0.1644;0.0168;
453.6000;0.1538;-0.0144;
453.9000;0.1571;-0.0168;
454.2000;0.1563;-0.0216;
454.5000;0.1563;-0.0264;
454.8000;0.1538;-0.0240;
455.1000;0.1555;-0.0168;
455.4000;0.1587;-0.0048;
455.7000;0.1612;0.0024;
456.0000;0.1547;-0.0072;
456.3000;0.1555;-0.0072;
456.6000;0.1538;-0.0144;
456.9000;0.1563;-0.0216;
457.2000;0.1563;-0.0240;
457.5000;0.1538;-0.0288;
457.8000;0.1547;-0.0096;
458.1000;0.1563;-0.0024;
458.4000;0.1563;-0.0072;
458.7000;0.1547;-0.0144;
459.0000;0.1547;-0.0192;
459.3000;0.1555;-0.0072;
459.6000;0.1563;-0.0096;
459.9000;0.1547;-0.0120;
460.2000;0.1547;-0.0096;
460.5000;0.1555;-0.0120;
460.8000;0.1579;0.0000;
461.1000;0.1498;-0.0359;
461.4000;0.1547;-0.0288;
461.7000;0.1563;-0.0216;
462.0000;0.1555;-0.0120;
462.3000;0.1490;-0.0359;
462.6000;0.1604;-0.0144;
462.9000;0.1514;-0.0311;
463.2000;0.1571;-0.0144;
463.5000;0.1538;-0.0240;
463.8000;0.1538;-0.0192;
464.1000;0.1522;-0.0120;
464.4000;0.1555;-0.0048;
464.7000;0.1547;-0.0048;
465.0000;0.1538;-0.0096;
465.3000;0.1555;-0.0096;
465.6000;0.1547;-0.0072;
465.9000;0.1555;0.0048;
466.2000;0.1538;0.0000;
466.5000;0.1530;-0.0096;
466.8000;0.1563;0.0120;
467.1000;0.1547;0.0120;
467.4000;0.1644;0.0288;
467.7000;0.1547;0.0000;
468.0000;0.1555;0.0024;
468.3000;0.1555;0.0000;
468.6000;0.1555;0.0024;
468.9000;0.1547;0.0072;
469.2000;0.1571;0.0120;
469.5000;0.1571;0.0168;
469.8000;0.1522;0.0024;
470.1000;0.1547;0.0000;
470.4000;0.1612;0.0096;
470.7000;0.1555;-0.0096;
471.0000;0.1563;-0.0072;
471.3000;0.1555;0.0000;
471.6000;0.1498;-0.0120;
471.9000;0.1555;0.0000;
472.2000;0.1563;0.0000;
472.5000;0.1571;-0.0024;
472.8000;0.1555;-0.0120;
473.1000;0.1563;-0.0072;
473.4000;0.1563;-0.0072;
473.7000;0.1514;-0.0192;
474.0000;0.1547;-0.0048;
474.3000;0.1579;0.0072;
474.6000;0.1538;-0.0048;
474.9000;0.1555;0.0024;
475.2000;0.1538;-0.0024;
475.5000;0.1595;0.0192;
475.8000;0.1555;0.0024;
476.1000;0.1563;0.0048;
476.4000;0.1620;0.0240;
476.7000;0.1555;-0.0048;
477.0000;0.1563;0.0048;
477.3000;0.1669;0.0264;
477.6000;0.1563;-0.0096;
477.9000;0.1571;-0.0024;
478.2000;0.1547;0.0000;
478.5000;0.1498;-0.0096;
478.8000;0.1563;0.0096;
479.1000;0.1571;0.0120;
479.4000;0.1538;0.0000;
479.7000;0.1555;-0.0024;
480.0000;0.1490;-0.0240;
480.3000;0.1530;-0.0192;
480.6000;0.1490;-0.0240;
480.9000;0.1555;0.0096;
481.2000;0.1587;0.0144;
481.5000;0.1587;0.0096;
481.8000;0.1498;-0.0096;
482.1000;0.1555;0.0096;
482.4000;0.1522;-0.0024;
482.7000;0.1555;0.0096;
483.0000;0.1547;0.0096;
483.3000;0.1547;0.0024;
483.6000;0.1522;-0.0072;
483.9000;0.1547;0.0024;
484.2000;0.1547;0.0072;
484.5000;0.1563;0.0048;
484.8000;0.1555;0.0024;
485.1000;0.1555;0.0096;
485.4000;0.1555;0.0096;
485.7000;0.1538;0.0048;
486.0000;0.1644;0.0335;
486.3000;0.1538;0.0144;
486.6000;0.1465;-0.0096;
486.9000;0.1563;0.0072;
487.2000;0.1563;0.0024;
487.5000;0.1555;-0.0048;
487.8000;0.1547;-0.0048;
488.1000;0.1595;0.0000;
488.4000;0.1571;-0.0024;
488.7000;0.1538;-0.0048;
489.0000;0.1571;0.0048;
489.3000;0.1473;-0.0144;
489.6000;0.1547;0.0096;
489.9000;0.1538;0.0072;
490.2000;0.1530;0.0144;
490.5000;0.1538;0.0192;
490.8000;0.1538;0.0216;
491.1000;0.1555;0.0311;
491.4000;0.1530;0.0144;
491.7000;0.1547;0.0216;
492.0000;0.1547;0.0264;
492.3000;0.1522;0.0168;
492.6000;0.1555;0.0192;
492.9000;0.1555;0.0120;
493.2000;0.1530;0.0024;
493.5000;0.1579;0.0144;
493.8000;0.1571;0.0096;
494.1000;0.1563;0.0024;
494.4000;0.1538;0.0000;
494.7000;0.1506;0.0024;
495.0000;0.1563;0.0144;
495.3000;0.1555;0.0120;
495.6000;0.1547;0.0192;
495.9000;0.1530;0.0096;
496.2000;0.1514;0.0000;
496.5000;0.1522;0.0072;
496.8000;0.1579;0.0192;
497.1000;0.1547;0.0120;
497.4000;0.1522;0.0096;
497.7000;0.1514;0.0048;
498.0000;0.1530;0.0096;
498.3000;0.1563;0.0216;
498.6000;0.1612;0.0359;
498.9000;0.1506;0.0048;
499.2000;0.1547;0.0168;
499.5000;0.1514;0.0072;
499.8000;0.1522;0.0168;
500.1000;0.1498;0.0168;
500.4000;0.1547;0.0264;
500.7000;0.1441;-0.0072;
501.0000;0.1547;0.0144;
501.3000;0.1522;0.0000;
501.6000;0.1538;-0.0072;
501.9000;0.1530;-0.0144;
502.2000;0.1506;-0.0192;
502.5000;0.1441;-0.0240;
502.8000;0.1538;-0.0072;
503.1000;0.1530;-0.0144;
503.4000;0.1563;-0.0096;
503.7000;0.1547;-0.0120;
504.0000;0.1433;-0.0407;
504.3000;0.1538;-0.0048;
504.6000;0.1628;0.0216;
504.9000;0.1538;0.0048;
505.2000;0.1538;-0.0024;
505.5000;0.1604;0.0120;
505.8000;0.1571;0.0024;
506.1000;0.1571;0.0024;
506.4000;0.1587;0.0072;
506.7000;0.1563;0.0000;
507.0000;0.1490;-0.0192;
507.3000;0.1506;-0.0168;
507.6000;0.1563;0.0024;
507.9000;0.1473;-0.0216;
508.2000;0.1441;-0.0311;
508.5000;0.1530;-0.0072;
508.8000;0.1555;0.0072;
509.1000;0.1555;0.0000;
509.4000;0.1612;0.0024;
509.7000;0.1563;0.0000;
510.0000;0.1555;0.0048;
510.3000;0.1522;-0.0096;
510.6000;0.1563;0.0096;
510.9000;0.1481;-0.0168;
511.2000;0.1579;0.0120;
511.5000;0.1563;0.0000;
511.8000;0.1547;-0.0048;
512.1000;0.1547;-0.0168;
512.4000;0.1563;-0.0120;
512.7000;0.1555;-0.0072;
513.0000;0.1652;0.0264;
513.3000;0.1538;-0.0048;
513.6000;0.1555;-0.0024;
513.9000;0.1538;-0.0096;
514.2000;0.1530;-0.0144;
514.5000;0.1538;-0.0168;
514.8000;0.1555;-0.0120;
515.1000;0.1547;-0.0144;
515.4000;0.1555;-0.0192;
515.7000;0.1555;-0.0168;
516.0000;0.1587;0.0048;
516.3000;0.1547;-0.0048;
516.6000;0.1530;-0.0096;
516.9000;0.1473;-0.0311;
517.2000;0.1538;-0.0144;
517.5000;0.1547;-0.0168;
517.8000;0.1563;-0.0192;
518.1000;0.1522;-0.0240;
518.4000;0.1612;-0.0024;
518.7000;0.1555;-0.0192;
519.0000;0.1538;-0.0192;
519.3000;0.1538;-0.0144;
519.6000;0.1563;-0.0072;
519.9000;0.1547;-0.0048;
520.2000;0.1538;-0.0024;
520.5000;0.1563;0.0000;
520.8000;0.1571;-0.0072;
521.1000;0.1579;-0.0024;
521.4000;0.1555;-0.0072;
521.7000;0.1604;0.0096;
522.0000;0.1571;0.0024;
522.3000;0.1563;-0.0072;
522.6000;0.1538;-0.0096;
522.9000;0.1547;0.0000;
523.2000;0.1547;0.0096;
523.5000;0.1490;-0.0072;
523.8000;0.1571;0.0168;
524.1000;0.1563;0.0168;
524.4000;0.1571;0.0216;
524.7000;0.1563;0.0264;
525.0000;0.1563;0.0240;
525.3000;0.1538;0.0192;
525.6000;0.1563;0.0216;
525.9000;0.1579;0.0288;
526.2000;0.1612;0.0359;
526.5000;0.1547;0.0240;
526.8000;0.1571;0.0240;
527.1000;0.1538;0.0096;
527.4000;0.1563;0.0144;
527.7000;0.1538;0.0000;
528.0000;0.1547;0.0000;
528.3000;0.1514;-0.0072;
528.6000;0.1563;0.0024;
528.9000;0.1555;-0.0096;
529.2000;0.1604;0.0120;
529.5000;0.1547;-0.0048;
529.8000;0.1538;-0.0072;
530.1000;0.1563;-0.0024;
530.4000;0.1563;0.0024;
530.7000;0.1522;-0.0024;
531.0000;0.1547;-0.0072;
531.3000;0.1449;-0.0288;
531.6000;0.1571;-0.0144;
531.9000;0.1555;-0.0264;
532.2000;0.1571;-0.0240;
532.5000;0.1579;-0.0288;
532.8000;0.1563;-0.0359;
533.1000;0.1547;-0.0431;
533.4000;0.1579;-0.0288;
533.7000;0.1555;-0.0335;
534.0000;0.1547;-0.0383;
534.3000;0.1571;-0.0192;
534.6000;0.1538;-0.0216;
534.9000;0.1538;-0.0168;
535.2000;0.1547;-0.0048;
535.5000;0.1538;-0.0048;
535.8000;0.1538;-0.0048;
536.1000;0.1563;-0.0024;
536.4000;0.1555;-0.0024;
536.7000;0.1547;-0.0144;
537.0000;0.1538;-0.0216;
537.3000;0.1547;-0.0240;
537.6000;0.1555;-0.0192;
537.9000;0.1571;-0.0168;
538.2000;0.1571;-0.0144;
538.5000;0.1587;-0.0168;
538.8000;0.1563;-0.0144;
539.1000;0.1563;-0.0120;
539.4000;0.1563;-0.0096;
539.7000;0.1547;-0.0120;
540.0000;0.1555;-0.0096;
540.3000;0.1555;-0.0120;
540.6000;0.1571;-0.0072;
540.9000;0.1555;-0.0120;
541.2000;0.1547;-0.0072;
541.5000;0.1563;-0.0120;
541.8000;0.1538;-0.0144;
542.1000;0.1538;-0.0096;
542.4000;0.1547;-0.0120;
542.7000;0.1579;-0.0096;
543.0000;0.1530;-0.0096;
543.3000;0.1563;0.0048;
543.6000;0.1571;0.0096;
543.9000;0.1514;0.0000;
544.2000;0.1555;0.0096;
544.5000;0.1538;0.0072;
544.8000;0.1547;0.0048;
545.1000;0.1538;-0.0072;
545.4000;0.1530;-0.0120;
545.7000;0.1620;0.0144;
546.0000;0.1563;0.0048;
546.3000;0.1547;0.0048;
546.6000;0.1547;-0.0096;
546.9000;0.1555;-0.0144;
547.2000;0.1555;-0.0168;
547.5000;0.1481;-0.0335;
547.8000;0.1547;-0.0072;
548.1000;0.1563;0.0072;
548.4000;0.1563;-0.0024;
548.7000;0.1563;0.0000;
549.0000;0.1498;-0.0192;
549.3000;0.1555;-0.0024;
549.6000;0.1555;-0.0048;
549.9000;0.1547;0.0000;
550.2000;0.1604;0.0024;
550.5000;0.1693;0.0407;
550.8000;0.1538;0.0024;
551.1000;0.1604;0.0120;
551.4000;0.1522;-0.0120;
551.7000;0.1563;-0.0072;
552.0000;0.1644;0.0168;
552.3000;0.1538;-0.0072;
552.6000;0.1547;-0.0096;
552.9000;0.1563;-0.0048;
553.2000;0.1522;-0.0192;
553.5000;0.1571;-0.0120;
553.8000;0.1571;-0.0072;
554.1000;0.1547;-0.0072;
554.4000;0.1547;-0.0072;
554.7000;0.1555;0.0048;
555.0000;0.1555;0.0000;
555.3000;0.1555;-0.0024;
555.6000;0.1555;-0.0072;
555.9000;0.1547;-0.0096;
556.2000;0.1571;-0.0096;
556.5000;0.1579;-0.0048;
556.8000;0.1547;-0.0072;
557.1000;0.1555;0.0000;
557.4000;0.1563;0.0072;
557.7000;0.1555;0.0072;
558.0000;0.1481;-0.0144;
558.3000;0.1490;-0.0072;
558.6000;0.1555;0.0144;
558.9000;0.1555;0.0120;
559.2000;0.1547;0.0000;
559.5000;0.1547;-0.0096;
559.8000;0.1555;-0.0048;
560.1000;0.1579;-0.0024;
560.4000;0.1538;-0.0072;
560.7000;0.1538;-0.0048;
561.0000;0.1563;0.0048;
561.3000;0.1571;0.0000;
561.6000;0.1538;-0.0024;
561.9000;0.1522;-0.0120;
562.2000;0.1595;0.0000;
562.5000;0.1547;-0.0216;
562.8000;0.1555;-0.0216;
563.1000;0.1538;-0.0216;
563.4000;0.1530;-0.0264;
563.7000;0.1563;-0.0216;
564.0000;0.1571;-0.0168;
564.3000;0.1530;-0.0240;
564.6000;0.1563;-0.0144;
564.9000;0.1563;-0.0216;
565.2000;0.1587;-0.0192;
565.5000;0.1538;-0.0359;
565.8000;0.1555;-0.0359;
566.1000;0.1555;-0.0383;
566.4000;0.1604;-0.0216;
566.7000;0.1579;-0.0192;
567.0000;0.1522;-0.0359;
567.3000;0.1547;-0.0335;
567.6000;0.1555;-0.0264;
567.9000;0.1547;-0.0264;
568.2000;0.1547;-0.0288;
568.5000;0.1473;-0.0503;
568.8000;0.1563;-0.0288;
569.1000;0.1563;-0.0288;
569.4000;0.1612;-0.0144;
569.7000;0.1604;-0.0192;
570.0000;0.1579;-0.0240;
570.3000;0.1514;-0.0383;
570.6000;0.1587;-0.0240;
570.9000;0.1547;-0.0431;
571.2000;0.1547;-0.0335;
571.5000;0.1628;-0.0072;
571.8000;0.1547;-0.0383;
572.1000;0.1555;-0.0359;
572.4000;0.1547;-0.0407;
572.7000;0.1555;-0.0431;
573.0000;0.1555;-0.0431;
573.3000;0.1538;-0.0359;
573.6000;0.1555;-0.0359;
573.9000;0.1547;-0.0359;
574.2000;0.1416;-0.0599;
574.5000;0.1547;-0.0192;
574.8000;0.1555;-0.0168;
575.1000;0.1506;-0.0311;
575.4000;0.1522;-0.0311;
575.7000;0.1563;-0.0168;
576.0000;0.1587;-0.0192;
576.3000;0.1563;-0.0168;
576.6000;0.1563;-0.0144;
576.9000;0.1555;-0.0192;
577.2000;0.1530;-0.0192;
577.5000;0.1571;-0.0120;
577.8000;0.1555;-0.0192;
578.1000;0.1579;0.0000;
578.4000;0.1547;-0.0168;
578.7000;0.1514;-0.0216;
579.0000;0.1563;-0.0072;
579.3000;0.1579;-0.0144;
579.6000;0.1547;-0.0264;
579.9000;0.1555;-0.0311;
580.2000;0.1547;-0.0311;
580.5000;0.1530;-0.0311;
580.8000;0.1555;-0.0288;
581.1000;0.1538;-0.0240;
581.4000;0.1563;-0.0120;
581.7000;0.1563;-0.0144;
582.0000;0.1498;-0.0407;
582.3000;0.1587;-0.0072;
582.6000;0.1522;-0.0192;
582.9000;0.1563;-0.0096;
583.2000;0.1555;-0.0120;
583.5000;0.1563;-0.0120;
583.8000;0.1547;-0.0168;
584.1000;0.1571;-0.0096;
584.4000;0.1604;0.0000;
584.7000;0.1547;-0.0144;
585.0000;0.1538;-0.0192;
585.3000;0.1538;-0.0192;
585.6000;0.1563;-0.0072;
585.9000;0.1547;-0.0144;
586.2000;0.1547;-0.0168;
586.5000;0.1555;-0.0072;
586.8000;0.1563;-0.0024;
587.1000;0.1522;-0.0120;
587.4000;0.1481;-0.0168;
587.7000;0.1538;-0.0072;
588.0000;0.1571;-0.0096;
588.3000;0.1579;-0.0096;
588.6000;0.1547;-0.0096;
588.9000;0.1547;-0.0024;
589.2000;0.1530;-0.0048;
589.5000;0.1522;-0.0048;
589.8000;0.1555;0.0072;
590.1000;0.1587;0.0168;
590.4000;0.1571;0.0048;
590.7000;0.1579;0.0048;
591.0000;0.1555;0.0048;
591.3000;0.1538;-0.0048;
591.6000;0.1441;-0.0359;
591.9000;0.1555;-0.0120;
592.2000;0.1547;-0.0216;
592.5000;0.1530;-0.0192;
592.8000;0.1522;-0.0144;
593.1000;0.1530;-0.0144;
593.4000;0.1538;-0.0144;
593.7000;0.1530;-0.0096;
594.0000;0.1547;-0.0024;
594.3000;0.1547;-0.0048;
594.6000;0.1416;-0.0383;
594.9000;0.1555;0.0048;
595.2000;0.1555;0.0000;
595.5000;0.1530;-0.0192;
595.8000;0.1555;-0.0168;
596.1000;0.1481;-0.0455;
596.4000;0.1530;-0.0288;
596.7000;0.1538;-0.0192;
597.0000;0.1555;-0.0144;
597.3000;0.1563;-0.0144;
597.6000;0.1579;-0.0168;
597.9000;0.1530;-0.0288;
598.2000;0.1506;-0.0455;
598.5000;0.1547;-0.0311;
598.8000;0.1563;-0.0168;
599.1000;0.1530;-0.0120;
599.4000;0.1465;-0.0288;
599.7000;0.1547;-0.0048;
600.0000;0.1563;-0.0048;
600.3000;0.1620;-0.0048;
600.6000;0.1498;-0.0455;
600.9000;0.1547;-0.0455;
601.2000;0.1506;-0.0671;
601.5000;0.1449;-0.0887;
601.8000;0.1644;-0.0455;
602.1000;0.1530;-0.0863;
602.4000;0.1538;-0.0958;
602.7000;0.1490;-0.1174;
603.0000;0.1506;-0.1174;
603.3000;0.1522;-0.1222;
603.6000;0.1498;-0.1366;
603.9000;0.1506;-0.1390;
604.2000;0.1473;-0.1557;
604.5000;0.1457;-0.1653;
604.8000;0.1481;-0.1677;
605.1000;0.1465;-0.1797;
605.4000;0.1457;-0.1917;
605.7000;0.1465;-0.1821;
606.0000;0.1465;-0.1797;
606.3000;0.1506;-0.1773;
606.6000;0.1473;-0.1893;
606.9000;0.1327;-0.2348;
607.2000;0.1498;-0.1965;
607.5000;0.1465;-0.2037;
607.8000;0.1465;-0.2061;
608.1000;0.1522;-0.2013;
608.4000;0.1473;-0.2132;
608.7000;0.1473;-0.2061;
609.0000;0.1473;-0.2037;
609.3000;0.1441;-0.2108;
609.6000;0.1441;-0.2085;
609.9000;0.1473;-0.2085;
610.2000;0.1465;-0.2180;
610.5000;0.1473;-0.2204;
610.8000;0.1457;-0.2252;
611.1000;0.1449;-0.2300;
611.4000;0.1449;-0.2324;
611.7000;0.1465;-0.2228;
612.0000;0.1441;-0.2300;
612.3000;0.1473;-0.2252;
612.6000;0.1473;-0.2276;
612.9000;0.1465;-0.2300;
613.2000;0.1433;-0.2276;
613.5000;0.1465;-0.2132;
613.8000;0.1457;-0.2252;
614.1000;0.1433;-0.2276;
614.4000;0.1490;-0.2085;
614.7000;0.1441;-0.2180;
615.0000;0.1449;-0.2180;
615.3000;0.1465;-0.2204;
615.6000;0.1416;-0.2348;
615.9000;0.1473;-0.2204;
616.2000;0.1465;-0.2228;
616.5000;0.1457;-0.2228;
616.8000;0.1400;-0.2372;
617.1000;0.1425;-0.2348;
617.4000;0.1441;-0.2252;
617.7000;0.1335;-0.2516;
618.0000;0.1465;-0.2228;
618.3000;0.1555;-0.2061;
618.6000;0.1433;-0.2396;
618.9000;0.1449;-0.2324;
619.2000;0.1368;-0.2564;
619.5000;0.1433;-0.2444;
619.8000;0.1449;-0.2348;
620.1000;0.1408;-0.2492;
620.4000;0.1457;-0.2348;
620.7000;0.1441;-0.2492;
621.0000;0.1506;-0.2300;
621.3000;0.1465;-0.2396;
621.6000;0.1449;-0.2396;
621.9000;0.1449;-0.2468;
622.2000;0.1441;-0.2540;
622.5000;0.1530;-0.2348;
622.8000;0.1433;-0.2588;
623.1000;0.1384;-0.2660;
623.4000;0.1457;-0.2516;
623.7000;0.1441;-0.2492;
624.0000;0.1449;-0.2492;
624.3000;0.1457;-0.2420;
624.6000;0.1465;-0.2420;
624.9000;0.1449;-0.2444;
625.2000;0.1506;-0.2252;
625.5000;0.1465;-0.2396;
625.8000;0.1465;-0.2420;
626.1000;0.1376;-0.2731;
626.4000;0.1433;-0.2684;
626.7000;0.1441;-0.2636;
627.0000;0.1457;-0.2684;
627.3000;0.1408;-0.2803;
627.6000;0.1433;-0.2779;
627.9000;0.1416;-0.2851;
628.2000;0.1441;-0.2731;
628.5000;0.1425;-0.2755;
628.8000;0.1416;-0.2707;
629.1000;0.1481;-0.2468;
629.4000;0.1441;-0.2564;
629.7000;0.1449;-0.2492;
630.0000;0.1425;-0.2492;
630.3000;0.1441;-0.2420;
630.6000;0.1449;-0.2420;
630.9000;0.1368;-0.2564;
631.2000;0.1433;-0.2276;
631.5000;0.1457;-0.2204;
631.8000;0.1449;-0.2228;
632.1000;0.1416;-0.2252;
632.4000;0.1425;-0.2228;
632.7000;0.1441;-0.2252;
633.0000;0.1433;-0.2348;
633.3000;0.1433;-0.2372;
633.6000;0.1441;-0.2396;
633.9000;0.1425;-0.2396;
634.2000;0.1449;-0.2300;
634.5000;0.1416;-0.2372;
634.8000;0.1457;-0.2252;
635.1000;0.1433;-0.2324;
635.4000;0.1441;-0.2372;
635.7000;0.1441;-0.2348;
636.0000;0.1441;-0.2324;
636.3000;0.1425;-0.2396;
636.6000;0.1449;-0.2300;
636.9000;0.1441;-0.2348;
637.2000;0.1441;-0.2420;
637.5000;0.1441;-0.2372;
637.8000;0.1441;-0.2468;
638.1000;0.1449;-0.2516;
638.4000;0.1441;-0.2468;
638.7000;0.1441;-0.2348;
639.0000;0.1449;-0.2252;
639.3000;0.1441;-0.2324;
639.6000;0.1473;-0.2132;
639.9000;0.1408;-0.2300;
640.2000;0.1457;-0.2204;
640.5000;0.1522;-0.1989;
640.8000;0.1457;-0.2204;
641.1000;0.1522;-0.1989;
641.4000;0.1457;-0.2132;
641.7000;0.1530;-0.1821;
642.0000;0.1490;-0.1941;
642.3000;0.1449;-0.2108;
642.6000;0.1433;-0.2156;
642.9000;0.1473;-0.2013;
643.2000;0.1441;-0.2061;
643.5000;0.1441;-0.2013;
643.8000;0.1465;-0.2013;
644.1000;0.1514;-0.1869;
644.4000;0.1465;-0.2013;
644.7000;0.1473;-0.1989;
645.0000;0.1449;-0.2013;
645.3000;0.1441;-0.2061;
645.6000;0.1449;-0.2037;
645.9000;0.1441;-0.2085;
646.2000;0.1425;-0.2204;
646.5000;0.1449;-0.2276;
646.8000;0.1433;-0.2372;
647.1000;0.1530;-0.2180;
647.4000;0.1425;-0.2444;
647.7000;0.1433;-0.2444;
648.0000;0.1433;-0.2492;
648.3000;0.1392;-0.2636;
648.6000;0.1457;-0.2492;
648.9000;0.1449;-0.2492;
649.2000;0.1425;-0.2540;
649.5000;0.1457;-0.2420;
649.8000;0.1408;-0.2468;
650.1000;0.1416;-0.2492;
650.4000;0.1457;-0.2348;
650.7000;0.1433;-0.2420;
651.0000;0.1425;-0.2372;
651.3000;0.1416;-0.2324;
651.6000;0.1351;-0.2516;
651.9000;0.1433;-0.2300;
652.2000;0.1433;-0.2252;
652.5000;0.1449;-0.2324;
652.8000;0.1441;-0.2396;
653.1000;0.1433;-0.2372;
653.4000;0.1449;-0.2372;
653.7000;0.1441;-0.2516;
654.0000;0.1457;-0.2492;
654.3000;0.1449;-0.2372;
654.6000;0.1408;-0.2444;
654.9000;0.1457;-0.2444;
655.2000;0.1457;-0.2420;
655.5000;0.1441;-0.2588;
655.8000;0.1441;-0.2588;
656.1000;0.1441;-0.2564;
656.4000;0.1425;-0.2612;
656.7000;0.1441;-0.2612;
657.0000;0.1441;-0.2564;
657.3000;0.1425;-0.2588;
657.6000;0.1416;-0.2636;
657.9000;0.1441;-0.2516;
658.2000;0.1449;-0.2540;
658.5000;0.1327;-0.2851;
658.8000;0.1441;-0.2588;
659.1000;0.1433;-0.2516;
659.4000;0.1441;-0.2444;
659.7000;0.1433;-0.2468;
660.0000;0.1457;-0.2300;
660.3000;0.1433;-0.2252;
660.6000;0.1441;-0.2132;
660.9000;0.1449;-0.2204;
661.2000;0.1449;-0.2252;
661.5000;0.1449;-0.2276;
661.8000;0.1449;-0.2324;
662.1000;0.1392;-0.2348;
662.4000;0.1408;-0.2252;
662.7000;0.1416;-0.2276;
663.0000;0.1433;-0.2180;
663.3000;0.1441;-0.2204;
663.6000;0.1449;-0.2204;
663.9000;0.1441;-0.2252;
664.2000;0.1449;-0.2204;
664.5000;0.1416;-0.2252;
664.8000;0.1433;-0.2228;
665.1000;0.1433;-0.2204;
665.4000;0.1514;-0.1965;
665.7000;0.1457;-0.2180;
666.0000;0.1449;-0.2228;
666.3000;0.1506;-0.2037;
666.6000;0.1441;-0.2252;
666.9000;0.1416;-0.2300;
667.2000;0.1400;-0.2276;
667.5000;0.1416;-0.2300;
667.8000;0.1441;-0.2252;
668.1000;0.1425;-0.2300;
668.4000;0.1441;-0.2204;
668.7000;0.1433;-0.2324;
669.0000;0.1433;-0.2228;
669.3000;0.1425;-0.2348;
669.6000;0.1425;-0.2372;
669.9000;0.1425;-0.2492;
670.2000;0.1425;-0.2540;
670.5000;0.1384;-0.2588;
670.8000;0.1441;-0.2444;
671.1000;0.1392;-0.2540;
671.4000;0.1441;-0.2420;
671.7000;0.1449;-0.2372;
672.0000;0.1449;-0.2324;
672.3000;0.1359;-0.2516;
672.6000;0.1433;-0.2372;
672.9000;0.1441;-0.2468;
673.2000;0.1441;-0.2492;
673.5000;0.1465;-0.2468;
673.8000;0.1441;-0.2468;
674.1000;0.1457;-0.2324;
674.4000;0.1449;-0.2372;
674.7000;0.1514;-0.2204;
675.0000;0.1433;-0.2324;
675.3000;0.1457;-0.2276;
675.6000;0.1449;-0.2348;
675.9000;0.1441;-0.2444;
676.2000;0.1433;-0.2492;
676.5000;0.1457;-0.2444;
676.8000;0.1457;-0.2420;
677.1000;0.1433;-0.2396;
677.4000;0.1384;-0.2588;
677.7000;0.1433;-0.2420;
678.0000;0.1441;-0.2444;
678.3000;0.1441;-0.2420;
678.6000;0.1441;-0.2396;
678.9000;0.1433;-0.2348;
679.2000;0.1441;-0.2396;
679.5000;0.1457;-0.2372;
679.8000;0.1425;-0.2420;
680.1000;0.1392;-0.2492;
680.4000;0.1457;-0.2420;
680.7000;0.1457;-0.2372;
681.0000;0.1433;-0.2492;
681.3000;0.1441;-0.2612;
681.6000;0.1465;-0.2660;
681.9000;0.1555;-0.2324;
682.2000;0.1473;-0.2444;
682.5000;0.1433;-0.2468;
682.8000;0.1441;-0.2468;
683.1000;0.1425;-0.2516;
683.4000;0.1481;-0.2372;
683.7000;0.1522;-0.2276;
684.0000;0.1441;-0.2492;
684.3000;0.1425;-0.2444;
684.6000;0.1425;-0.2516;
684.9000;0.1441;-0.2396;
685.2000;0.1433;-0.2396;
685.5000;0.1392;-0.2540;
685.8000;0.1425;-0.2276;
686.1000;0.1441;-0.2180;
686.4000;0.1433;-0.2276;
686.7000;0.1433;-0.2276;
687.0000;0.1465;-0.2324;
687.3000;0.1465;-0.2348;
687.6000;0.1538;-0.2156;
687.9000;0.1449;-0.2420;
688.2000;0.1441;-0.2396;
688.5000;0.1425;-0.2372;
688.8000;0.1425;-0.2468;
689.1000;0.1392;-0.2492;
689.4000;0.1441;-0.2420;
689.7000;0.1449;-0.2420;
690.0000;0.1441;-0.2420;
690.3000;0.1425;-0.2492;
690.6000;0.1425;-0.2468;
690.9000;0.1425;-0.2396;
691.2000;0.1441;-0.2444;
691.5000;0.1449;-0.2396;
691.8000;0.1433;-0.2468;
692.1000;0.1416;-0.2492;
692.4000;0.1465;-0.2468;
692.7000;0.1400;-0.2516;
693.0000;0.1449;-0.2276;
693.3000;0.1425;-0.2372;
693.6000;0.1449;-0.2348;
693.9000;0.1433;-0.2396;
694.2000;0.1433;-0.2396;
694.5000;0.1433;-0.2348;
694.8000;0.1441;-0.2300;
695.1000;0.1449;-0.2252;
695.4000;0.1408;-0.2348;
695.7000;0.1416;-0.2468;
696.0000;0.1441;-0.2420;
696.3000;0.1465;-0.2444;
696.6000;0.1449;-0.2564;
696.9000;0.1425;-0.2564;
697.2000;0.1425;-0.2564;
697.5000;0.1425;-0.2540;
697.8000;0.1449;-0.2516;
698.1000;0.1368;-0.2755;
698.4000;0.1384;-0.2636;
698.7000;0.1425;-0.2516;
699.0000;0.1351;-0.2779;
699.3000;0.1457;-0.2564;
699.6000;0.1416;-0.2684;
699.9000;0.1522;-0.2420;
700.2000;0.1449;-0.2540;
700.5000;0.1449;-0.2516;
700.8000;0.1425;-0.2588;
701.1000;0.1311;-0.2875;
701.4000;0.1376;-0.2612;
701.7000;0.1522;-0.2132;
702.0000;0.1449;-0.2396;
702.3000;0.1433;-0.2516;
702.6000;0.1465;-0.2444;
702.9000;0.1416;-0.2612;
703.2000;0.1425;-0.2660;
703.5000;0.1441;-0.2636;
703.8000;0.1425;-0.2612;
704.1000;0.1457;-0.2564;
704.4000;0.1433;-0.2707;
704.7000;0.1441;-0.2636;
705.0000;0.1408;-0.2636;
705.3000;0.1457;-0.2516;
705.6000;0.1457;-0.2492;
705.9000;0.1433;-0.2540;
706.2000;0.1441;-0.2420;
706.5000;0.1425;-0.2444;
706.8000;0.1441;-0.2348;
707.1000;0.1425;-0.2372;
707.4000;0.1441;-0.2324;
707.7000;0.1425;-0.2372;
708.0000;0.1425;-0.2444;
708.3000;0.1490;-0.2180;
708.6000;0.1433;-0.2396;
708.9000;0.1457;-0.2252;
709.2000;0.1449;-0.2252;
709.5000;0.1425;-0.2252;
709.8000;0.1473;-0.2061;
710.1000;0.1449;-0.2228;
710.4000;0.1416;-0.2276;
710.7000;0.1425;-0.2348;
711.0000;0.1449;-0.2300;
711.3000;0.1400;-0.2540;
711.6000;0.1441;-0.2468;
711.9000;0.1449;-0.2540;
712.2000;0.1425;-0.2636;
712.5000;0.1433;-0.2540;
712.8000;0.1465;-0.2396;
713.1000;0.1457;-0.2420;
713.4000;0.1457;-0.2396;
713.7000;0.1441;-0.2420;
714.0000;0.1416;-0.2444;
714.3000;0.1441;-0.2372;
714.6000;0.1441;-0.2300;
714.9000;0.1441;-0.2324;
715.2000;0.1481;-0.2348;
715.5000;0.1449;-0.2468;
715.8000;0.1433;-0.2468;
716.1000;0.1465;-0.2444;
716.4000;0.1408;-0.2588;
716.7000;0.1425;-0.2516;
717.0000;0.1449;-0.2468;
717.3000;0.1449;-0.2492;
717.6000;0.1555;-0.2204;
717.9000;0.1457;-0.2468;
718.2000;0.1400;-0.2540;
718.5000;0.1433;-0.2516;
718.8000;0.1433;-0.2564;
719.1000;0.1416;-0.2636;
719.4000;0.1498;-0.2348;
719.7000;0.1392;-0.2612;
720.0000;0.1449;-0.2444;
720.3000;0.1368;-0.2660;
720.6000;0.1514;-0.2276;
720.9000;0.1457;-0.2492;
721.2000;0.1457;-0.2492;
721.5000;0.1425;-0.2564;
721.8000;0.1416;-0.2588;
722.1000;0.1433;-0.2540;
722.4000;0.1514;-0.2348;
722.7000;0.1425;-0.2516;
723.0000;0.1522;-0.2276;
723.3000;0.1400;-0.2588;
723.6000;0.1416;-0.2492;
723.9000;0.1465;-0.2300;
724.2000;0.1449;-0.2420;
724.5000;0.1441;-0.2444;
724.8000;0.1343;-0.2684;
725.1000;0.1376;-0.2636;
725.4000;0.1441;-0.2468;
725.7000;0.1425;-0.2540;
726.0000;0.1457;-0.2468;
726.3000;0.1441;-0.2516;
726.6000;0.1441;-0.2588;
726.9000;0.1433;-0.2564;
727.2000;0.1416;-0.2540;
727.5000;0.1441;-0.2420;
727.8000;0.1392;-0.2612;
728.1000;0.1457;-0.2396;
728.4000;0.1457;-0.2372;
728.7000;0.1441;-0.2444;
729.0000;0.1408;-0.2636;
729.3000;0.1449;-0.2492;
729.6000;0.1425;-0.2516;
729.9000;0.1457;-0.2492;
730.2000;0.1433;-0.2588;
730.5000;0.1433;-0.2684;
730.8000;0.1400;-0.2755;
731.1000;0.1441;-0.2612;
731.4000;0.1441;-0.2612;
731.7000;0.1514;-0.2468;
732.0000;0.1433;-0.2660;
732.3000;0.1433;-0.2612;
732.6000;0.1449;-0.2612;
732.9000;0.1359;-0.2684;
733.2000;0.1441;-0.2468;
733.5000;0.1376;-0.2588;
733.8000;0.1449;-0.2348;
734.1000;0.1416;-0.2444;
734.4000;0.1457;-0.2444;
734.7000;0.1441;-0.2540;
735.0000;0.1465;-0.2468;
735.3000;0.1302;-0.2875;
735.6000;0.1425;-0.2564;
735.9000;0.1457;-0.2516;
736.2000;0.1465;-0.2444;
736.5000;0.1457;-0.2492;
736.8000;0.1457;-0.2612;
737.1000;0.1392;-0.2731;
737.4000;0.1457;-0.2516;
737.7000;0.1425;-0.2516;
738.0000;0.1384;-0.2660;
738.3000;0.1327;-0.2875;
738.6000;0.1481;-0.2396;
738.9000;0.1441;-0.2444;
739.2000;0.1343;-0.2660;
739.5000;0.1392;-0.2468;
739.8000;0.1457;-0.2348;
740.1000;0.1368;-0.2564;
740.4000;0.1368;-0.2636;
740.7000;0.1514;-0.2324;
741.0000;0.1473;-0.2564;
741.3000;0.1441;-0.2588;
741.6000;0.1490;-0.2396;
741.9000;0.1441;-0.2588;
742.2000;0.1449;-0.2516;
742.5000;0.1547;-0.2180;
742.8000;0.1449;-0.2420;
743.1000;0.1457;-0.2324;
743.4000;0.1376;-0.2492;
743.7000;0.1449;-0.2372;
744.0000;0.1416;-0.2444;
744.3000;0.1441;-0.2468;
744.6000;0.1384;-0.2564;
744.9000;0.1416;-0.2492;
745.2000;0.1449;-0.2444;
745.5000;0.1433;-0.2444;
745.8000;0.1433;-0.2348;
746.1000;0.1441;-0.2372;
746.4000;0.1465;-0.2372;
746.7000;0.1441;-0.2444;
747.0000;0.1514;-0.2228;
747.3000;0.1416;-0.2492;
747.6000;0.1425;-0.2468;
747.9000;0.1441;-0.2396;
748.2000;0.1449;-0.2444;
748.5000;0.1441;-0.2564;
748.8000;0.1433;-0.2612;
749.1000;0.1441;-0.2540;
749.4000;0.1441;-0.2588;
749.7000;0.1433;-0.2492;
750.0000;0.1425;-0.2468;
750.3000;0.1408;-0.2636;
750.6000;0.1425;-0.2612;
750.9000;0.1416;-0.2660;
751.2000;0.1563;-0.2156;
751.5000;0.1473;-0.2420;
751.8000;0.1465;-0.2420;
752.1000;0.1449;-0.2396;
752.4000;0.1425;-0.2492;
752.7000;0.1449;-0.2348;
753.0000;0.1441;-0.2396;
753.3000;0.1433;-0.2516;
753.6000;0.1457;-0.2540;
753.9000;0.1433;-0.2588;
754.2000;0.1441;-0.2588;
754.5000;0.1441;-0.2468;
754.8000;0.1425;-0.2492;
755.1000;0.1449;-0.2372;
755.4000;0.1457;-0.2420;
755.7000;0.1408;-0.2540;
756.0000;0.1441;-0.2516;
756.3000;0.1563;-0.2085;
756.6000;0.1457;-0.2492;
756.9000;0.1384;-0.2707;
757.2000;0.1473;-0.2468;
757.5000;0.1400;-0.2612;
757.8000;0.1416;-0.2636;
758.1000;0.1449;-0.2588;
758.4000;0.1425;-0.2707;
758.7000;0.1425;-0.2707;
759.0000;0.1408;-0.2731;
759.3000;0.1433;-0.2660;
759.6000;0.1416;-0.2660;
759.9000;0.1457;-0.2492;
760.2000;0.1416;-0.2540;
760.5000;0.1449;-0.2492;
760.8000;0.1465;-0.2516;
761.1000;0.1408;-0.2755;
761.4000;0.1433;-0.2707;
761.7000;0.1465;-0.2492;
762.0000;0.1441;-0.2468;
762.3000;0.1457;-0.2420;
762.6000;0.1433;-0.2444;
762.9000;0.1449;-0.2420;
763.2000;0.1522;-0.2180;
763.5000;0.1449;-0.2444;
763.8000;0.1441;-0.2420;
764.1000;0.1449;-0.2420;
764.4000;0.1449;-0.2420;
764.7000;0.1425;-0.2492;
765.0000;0.1441;-0.2468;
765.3000;0.1376;-0.2612;
765.6000;0.1449;-0.2396;
765.9000;0.1457;-0.2372;
766.2000;0.1457;-0.2396;
766.5000;0.1433;-0.2372;
766.8000;0.1465;-0.2204;
767.1000;0.1416;-0.2300;
767.4000;0.1425;-0.2132;
767.7000;0.1449;-0.2085;
768.0000;0.1441;-0.2180;
768.3000;0.1457;-0.2204;
768.6000;0.1449;-0.2204;
768.9000;0.1441;-0.2276;
769.2000;0.1441;-0.2348;
769.5000;0.1425;-0.2324;
769.8000;0.1433;-0.2204;
770.1000;0.1433;-0.2180;
770.4000;0.1416;-0.2252;
770.7000;0.1400;-0.2276;
771.0000;0.1441;-0.2204;
771.3000;0.1359;-0.2492;
771.6000;0.1416;-0.2372;
771.9000;0.1449;-0.2372;
772.2000;0.1416;-0.2444;
772.5000;0.1449;-0.2372;
772.8000;0.1408;-0.2468;
773.1000;0.1457;-0.2324;
773.4000;0.1408;-0.2516;
773.7000;0.1449;-0.2516;
774.0000;0.1433;-0.2540;
774.3000;0.1433;-0.2468;
774.6000;0.1384;-0.2660;
774.9000;0.1416;-0.2516;
775.2000;0.1441;-0.2444;
775.5000;0.1408;-0.2468;
775.8000;0.1433;-0.2468;
776.1000;0.1425;-0.2492;
776.4000;0.1425;-0.2492;
776.7000;0.1416;-0.2492;
777.0000;0.1441;-0.2396;
777.3000;0.1449;-0.2444;
777.6000;0.1400;-0.2540;
777.9000;0.1392;-0.2588;
778.2000;0.1441;-0.2540;
778.5000;0.1449;-0.2588;
778.8000;0.1433;-0.2540;
779.1000;0.1449;-0.2372;
779.4000;0.1473;-0.2252;
779.7000;0.1441;-0.2276;
780.0000;0.1433;-0.2252;
780.3000;0.1433;-0.2300;
780.6000;0.1441;-0.2276;
780.9000;0.1425;-0.2180;
781.2000;0.1441;-0.2180;
781.5000;0.1416;-0.2276;
781.8000;0.1441;-0.2108;
782.1000;0.1441;-0.2204;
782.4000;0.1441;-0.2156;
782.7000;0.1335;-0.2468;
783.0000;0.1449;-0.2228;
783.3000;0.1449;-0.2252;
783.6000;0.1425;-0.2204;
783.9000;0.1473;-0.2061;
784.2000;0.1465;-0.2085;
784.5000;0.1433;-0.2180;
784.8000;0.1579;-0.1677;
785.1000;0.1425;-0.2037;
785.4000;0.1441;-0.2013;
785.7000;0.1319;-0.2396;
786.0000;0.1311;-0.2396;
786.3000;0.1465;-0.2132;
786.6000;0.1449;-0.2300;
786.9000;0.1425;-0.2348;
787.2000;0.1433;-0.2372;
787.5000;0.1425;-0.2372;
787.8000;0.1416;-0.2396;
788.1000;0.1473;-0.2204;
788.4000;0.1416;-0.2372;
788.7000;0.1425;-0.2324;
789.0000;0.1441;-0.2300;
789.3000;0.1449;-0.2228;
789.6000;0.1441;-0.2300;
789.9000;0.1441;-0.2300;
790.2000;0.1425;-0.2372;
790.5000;0.1465;-0.2300;
790.8000;0.1433;-0.2396;
791.1000;0.1433;-0.2348;
791.4000;0.1408;-0.2372;
791.7000;0.1441;-0.2276;
792.0000;0.1416;-0.2276;
792.3000;0.1449;-0.2204;
792.6000;0.1441;-0.2180;
792.9000;0.1449;-0.2037;
793.2000;0.1416;-0.2108;
793.5000;0.1425;-0.2037;
793.8000;0.1416;-0.1989;
794.1000;0.1449;-0.1941;
794.4000;0.1425;-0.2085;
794.7000;0.1408;-0.2252;
795.0000;0.1441;-0.2204;
795.3000;0.1384;-0.2324;
795.6000;0.1449;-0.2156;
795.9000;0.1433;-0.2108;
796.2000;0.1425;-0.2204;
796.5000;0.1441;-0.2252;
796.8000;0.1441;-0.2252;
797.1000;0.1441;-0.2276;
797.4000;0.1457;-0.2300;
797.7000;0.1441;-0.2324;
798.0000;0.1408;-0.2444;
798.3000;0.1514;-0.2204;
798.6000;0.1433;-0.2564;
798.9000;0.1449;-0.2540;
799.2000;0.1433;-0.2564;
799.5000;0.1441;-0.2492;
799.8000;0.1433;-0.2540;
800.1000;0.1425;-0.2540;
800.4000;0.1457;-0.2492;
800.7000;0.1433;-0.2516;
801.0000;0.1425;-0.2468;
801.3000;0.1433;-0.2396;
801.6000;0.1441;-0.2372;
801.9000;0.1441;-0.2348;
802.2000;0.1465;-0.2348;
802.5000;0.1433;-0.2396;
802.8000;0.1433;-0.2396;
803.1000;0.1425;-0.2396;
803.4000;0.1465;-0.2300;
803.7000;0.1408;-0.2300;
804.0000;0.1433;-0.2156;
804.3000;0.1473;-0.2013;
804.6000;0.1571;-0.1725;
804.9000;0.1433;-0.2180;
805.2000;0.1425;-0.2204;
805.5000;0.1433;-0.2252;
805.8000;0.1490;-0.2013;
806.1000;0.1433;-0.2204;
806.4000;0.1441;-0.2180;
806.7000;0.1433;-0.2108;
807.0000;0.1408;-0.2085;
807.3000;0.1433;-0.2061;
807.6000;0.1408;-0.2132;
807.9000;0.1416;-0.2108;
808.2000;0.1425;-0.2108;
808.5000;0.1425;-0.2228;
808.8000;0.1416;-0.2276;
809.1000;0.1376;-0.2348;
809.4000;0.1441;-0.2228;
809.7000;0.1408;-0.2252;
810.0000;0.1449;-0.2156;
810.3000;0.1416;-0.2228;
810.6000;0.1433;-0.2204;
810.9000;0.1433;-0.2180;
811.2000;0.1449;-0.2204;
811.5000;0.1441;-0.2276;
811.8000;0.1425;-0.2300;
812.1000;0.1425;-0.2276;
812.4000;0.1416;-0.2228;
812.7000;0.1408;-0.2252;
813.0000;0.1441;-0.2204;
813.3000;0.1449;-0.2204;
813.6000;0.1441;-0.2228;
813.9000;0.1433;-0.2276;
814.2000;0.1490;-0.2108;
814.5000;0.1449;-0.2228;
814.8000;0.1433;-0.2252;
815.1000;0.1433;-0.2276;
815.4000;0.1400;-0.2420;
815.7000;0.1408;-0.2468;
816.0000;0.1441;-0.2300;
816.3000;0.1473;-0.2252;
816.6000;0.1433;-0.2348;
816.9000;0.1449;-0.2348;
817.2000;0.1441;-0.2348;
817.5000;0.1425;-0.2492;
817.8000;0.1441;-0.2540;
818.1000;0.1425;-0.2468;
818.4000;0.1457;-0.2420;
818.7000;0.1481;-0.2276;
819.0000;0.1343;-0.2588;
819.3000;0.1473;-0.2252;
819.6000;0.1441;-0.2300;
819.9000;0.1416;-0.2300;
820.2000;0.1449;-0.2348;
820.5000;0.1433;-0.2396;
820.8000;0.1449;-0.2396;
821.1000;0.1441;-0.2324;
821.4000;0.1473;-0.2300;
821.7000;0.1457;-0.2372;
822.0000;0.1433;-0.2396;
822.3000;0.1465;-0.2300;
822.6000;0.1433;-0.2444;
822.9000;0.1425;-0.2444;
823.2000;0.1441;-0.2396;
823.5000;0.1392;-0.2540;
823.8000;0.1425;-0.2444;
824.1000;0.1441;-0.2396;
824.4000;0.1449;-0.2420;
824.7000;0.1368;-0.2636;
825.0000;0.1457;-0.2444;
825.3000;0.1449;-0.2372;
825.6000;0.1425;-0.2348;
825.9000;0.1433;-0.2324;
826.2000;0.1449;-0.2300;
826.5000;0.1441;-0.2228;
826.8000;0.1416;-0.2300;
827.1000;0.1441;-0.2228;
827.4000;0.1449;-0.2180;
827.7000;0.1457;-0.2276;
828.0000;0.1457;-0.2276;
828.3000;0.1449;-0.2180;
828.6000;0.1392;-0.2348;
828.9000;0.1433;-0.2228;
829.2000;0.1441;-0.2156;
829.5000;0.1433;-0.2132;
829.8000;0.1441;-0.2156;
830.1000;0.1425;-0.2228;
830.4000;0.1433;-0.2132;
830.7000;0.1433;-0.2276;
831.0000;0.1441;-0.2228;
831.3000;0.1441;-0.2204;
831.6000;0.1449;-0.2085;
831.9000;0.1449;-0.2037;
832.2000;0.1433;-0.2037;
832.5000;0.1433;-0.2108;
832.8000;0.1343;-0.2396;
833.1000;0.1481;-0.1989;
833.4000;0.1449;-0.2085;
833.7000;0.1465;-0.1941;
834.0000;0.1457;-0.1965;
834.3000;0.1433;-0.2108;
834.6000;0.1441;-0.2204;
834.9000;0.1425;-0.2372;
835.2000;0.1392;-0.2516;
835.5000;0.1425;-0.2324;
835.8000;0.1441;-0.2300;
836.1000;0.1449;-0.2324;
836.4000;0.1408;-0.2396;
836.7000;0.1449;-0.2300;
837.0000;0.1441;-0.2324;
837.3000;0.1506;-0.2180;
837.6000;0.1408;-0.2420;
837.9000;0.1457;-0.2276;
838.2000;0.1384;-0.2564;
838.5000;0.1433;-0.2420;
838.8000;0.1449;-0.2444;
839.1000;0.1425;-0.2492;
839.4000;0.1457;-0.2372;
839.7000;0.1441;-0.2492;
840.0000;0.1408;-0.2492;
840.3000;0.1433;-0.2468;
840.6000;0.1433;-0.2468;
840.9000;0.1441;-0.2420;
841.2000;0.1433;-0.2444;
841.5000;0.1441;-0.2444;
841.8000;0.1449;-0.2492;
842.1000;0.1441;-0.2492;
842.4000;0.1425;-0.2492;
842.7000;0.1425;-0.2444;
843.0000;0.1473;-0.2348;
843.3000;0.1425;-0.2396;
843.6000;0.1425;-0.2372;
843.9000;0.1400;-0.2492;
844.2000;0.1441;-0.2396;
844.5000;0.1433;-0.2468;
844.8000;0.1433;-0.2444;
845.1000;0.1425;-0.2468;
845.4000;0.1433;-0.2444;
845.7000;0.1425;-0.2468;
846.0000;0.1441;-0.2372;
846.3000;0.1457;-0.2396;
846.6000;0.1449;-0.2372;
846.9000;0.1441;-0.2444;
847.2000;0.1465;-0.2300;
847.5000;0.1433;-0.2348;
847.8000;0.1433;-0.2348;
848.1000;0.1449;-0.2300;
848.4000;0.1425;-0.2468;
848.7000;0.1441;-0.2468;
849.0000;0.1457;-0.2348;
849.3000;0.1449;-0.2372;
849.6000;0.1449;-0.2420;
849.9000;0.1425;-0.2396;
850.2000;0.1400;-0.2444;
850.5000;0.1449;-0.2324;
850.8000;0.1465;-0.2204;
851.1000;0.1408;-0.2324;
851.4000;0.1473;-0.2252;
851.7000;0.1384;-0.2420;
852.0000;0.1311;-0.2516;
852.3000;0.1457;-0.2204;
852.6000;0.1425;-0.2348;
852.9000;0.1457;-0.2252;
853.2000;0.1473;-0.2252;
853.5000;0.1449;-0.2228;
853.8000;0.1441;-0.2276;
854.1000;0.1473;-0.2300;
854.4000;0.1433;-0.2396;
854.7000;0.1425;-0.2420;
855.0000;0.1408;-0.2492;
855.3000;0.1408;-0.2444;
855.6000;0.1433;-0.2372;
855.9000;0.1465;-0.2372;
856.2000;0.1368;-0.2516;
856.5000;0.1441;-0.2348;
856.8000;0.1416;-0.2420;
857.1000;0.1465;-0.2372;
857.4000;0.1425;-0.2420;
857.7000;0.1547;-0.2204;
858.0000;0.1449;-0.2300;
858.3000;0.1481;-0.2132;
858.6000;0.1473;-0.2037;
858.9000;0.1441;-0.2156;
859.2000;0.1433;-0.2228;
859.5000;0.1433;-0.2300;
859.8000;0.1465;-0.2324;
860.1000;0.1425;-0.2420;
860.4000;0.1441;-0.2348;
860.7000;0.1433;-0.2468;
861.0000;0.1433;-0.2468;
861.3000;0.1449;-0.2444;
861.6000;0.1425;-0.2540;
861.9000;0.1425;-0.2612;
862.2000;0.1416;-0.2731;
862.5000;0.1441;-0.2612;
862.8000;0.1433;-0.2636;
863.1000;0.1441;-0.2564;
863.4000;0.1441;-0.2612;
863.7000;0.1449;-0.2564;
864.0000;0.1441;-0.2492;
864.3000;0.1416;-0.2516;
864.6000;0.1441;-0.2492;
864.9000;0.1449;-0.2540;
865.2000;0.1522;-0.2300;
865.5000;0.1490;-0.2420;
865.8000;0.1425;-0.2468;
866.1000;0.1465;-0.2348;
866.4000;0.1416;-0.2444;
866.7000;0.1465;-0.2348;
867.0000;0.1490;-0.2108;
867.3000;0.1465;-0.2204;
867.6000;0.1433;-0.2252;
867.9000;0.1473;-0.2252;
868.2000;0.1457;-0.2276;
868.5000;0.1425;-0.2324;
868.8000;0.1400;-0.2300;
869.1000;0.1563;-0.1869;
869.4000;0.1441;-0.2300;
869.7000;0.1449;-0.2276;
870.0000;0.1449;-0.2276;
870.3000;0.1359;-0.2588;
870.6000;0.1416;-0.2252;
870.9000;0.1408;-0.2180;
871.2000;0.1433;-0.2037;
871.5000;0.1449;-0.1965;
871.8000;0.1433;-0.2061;
872.1000;0.1433;-0.2180;
872.4000;0.1465;-0.2204;
872.7000;0.1416;-0.2300;
873.0000;0.1457;-0.2228;
873.3000;0.1392;-0.2420;
873.6000;0.1416;-0.2420;
873.9000;0.1481;-0.2372;
874.2000;0.1481;-0.2348;
874.5000;0.1465;-0.2396;
874.8000;0.1490;-0.2300;
875.1000;0.1433;-0.2420;
875.4000;0.1327;-0.2636;
875.7000;0.1441;-0.2300;
876.0000;0.1465;-0.2204;
876.3000;0.1433;-0.2252;
876.6000;0.1408;-0.2348;
876.9000;0.1392;-0.2420;
877.2000;0.1416;-0.2252;
877.5000;0.1408;-0.2228;
877.8000;0.1433;-0.2180;
878.1000;0.1449;-0.2204;
878.4000;0.1400;-0.2372;
878.7000;0.1449;-0.2228;
879.0000;0.1506;-0.2013;
879.3000;0.1465;-0.2037;
879.6000;0.1416;-0.2156;
879.9000;0.1481;-0.2037;
880.2000;0.1425;-0.2276;
880.5000;0.1457;-0.2276;
880.8000;0.1449;-0.2276;
881.1000;0.1416;-0.2324;
881.4000;0.1433;-0.2276;
881.7000;0.1441;-0.2300;
882.0000;0.1400;-0.2324;
882.3000;0.1416;-0.2300;
882.6000;0.1433;-0.2252;
882.9000;0.1433;-0.2324;
883.2000;0.1433;-0.2420;
883.5000;0.1408;-0.2492;
883.8000;0.1449;-0.2444;
884.1000;0.1416;-0.2492;
884.4000;0.1433;-0.2468;
884.7000;0.1433;-0.2372;
885.0000;0.1416;-0.2420;
885.3000;0.1457;-0.2324;
885.6000;0.1490;-0.2252;
885.9000;0.1441;-0.2300;
886.2000;0.1433;-0.2444;
886.5000;0.1441;-0.2348;
886.8000;0.1481;-0.2180;
887.1000;0.1441;-0.2300;
887.4000;0.1408;-0.2348;
887.7000;0.1425;-0.2228;
888.0000;0.1441;-0.2180;
888.3000;0.1425;-0.2348;
888.6000;0.1416;-0.2324;
888.9000;0.1449;-0.2252;
889.2000;0.1481;-0.2204;
889.5000;0.1465;-0.2276;
889.8000;0.1522;-0.2037;
890.1000;0.1400;-0.2420;
890.4000;0.1408;-0.2420;
890.7000;0.1441;-0.2420;
891.0000;0.1425;-0.2348;
891.3000;0.1441;-0.2276;
891.6000;0.1449;-0.2252;
891.9000;0.1449;-0.2300;
892.2000;0.1400;-0.2492;
892.5000;0.1433;-0.2396;
892.8000;0.1441;-0.2372;
893.1000;0.1368;-0.2636;
893.4000;0.1449;-0.2396;
893.7000;0.1376;-0.2492;
894.0000;0.1392;-0.2540;
894.3000;0.1425;-0.2348;
894.6000;0.1368;-0.2420;
894.9000;0.1408;-0.2348;
895.2000;0.1441;-0.2300;
895.5000;0.1441;-0.2300;
895.8000;0.1481;-0.2228;
896.1000;0.1433;-0.2252;
896.4000;0.1441;-0.2204;
896.7000;0.1449;-0.2252;
897.0000;0.1441;-0.2324;
897.3000;0.1400;-0.2468;
897.6000;0.1392;-0.2396;
897.9000;0.1433;-0.2348;
898.2000;0.1449;-0.2300;
898.5000;0.1433;-0.2348;
898.8000;0.1425;-0.2276;
899.1000;0.1408;-0.2300;
899.4000;0.1384;-0.2396;
899.7000;0.1425;-0.2300;
900.0000;0.1449;-0.2108;
900.3000;0.1416;-0.2228;
900.6000;0.1441;-0.2156;
900.9000;0.1547;-0.1869;
901.2000;0.1457;-0.2132;
901.5000;0.1473;-0.2085;
901.8000;0.1441;-0.2085;
902.1000;0.1457;-0.2156;
902.4000;0.1465;-0.2180;
902.7000;0.1416;-0.2252;
903.0000;0.1465;-0.2108;
903.3000;0.1433;-0.2108;
903.6000;0.1425;-0.2085;
903.9000;0.1441;-0.2013;
904.2000;0.1327;-0.2300;
904.5000;0.1408;-0.2085;
904.8000;0.1441;-0.2061;
905.1000;0.1441;-0.2108;
905.4000;0.1433;-0.2252;
905.7000;0.1425;-0.2252;
906.0000;0.1433;-0.2204;
906.3000;0.1465;-0.2156;
906.6000;0.1449;-0.2132;
906.9000;0.1449;-0.2156;
907.2000;0.1416;-0.2252;
907.5000;0.1425;-0.2324;
907.8000;0.1441;-0.2228;
908.1000;0.1441;-0.2204;
908.4000;0.1465;-0.2061;
908.7000;0.1449;-0.2061;
909.0000;0.1457;-0.2108;
909.3000;0.1416;-0.2276;
909.6000;0.1433;-0.2204;
909.9000;0.1433;-0.2204;
910.2000;0.1441;-0.2228;
910.5000;0.1441;-0.2396;
910.8000;0.1449;-0.2372;
911.1000;0.1433;-0.2396;
911.4000;0.1425;-0.2372;
911.7000;0.1433;-0.2276;
912.0000;0.1351;-0.2492;
912.3000;0.1400;-0.2468;
912.6000;0.1416;-0.2444;
912.9000;0.1408;-0.2420;
913.2000;0.1368;-0.2612;
913.5000;0.1311;-0.2779;
913.8000;0.1506;-0.2276;
914.1000;0.1400;-0.2492;
914.4000;0.1425;-0.2348;
914.7000;0.1392;-0.2396;
915.0000;0.1481;-0.2180;
915.3000;0.1441;-0.2372;
915.6000;0.1408;-0.2492;
915.9000;0.1449;-0.2420;
916.2000;0.1441;-0.2468;
916.5000;0.1481;-0.2468;
916.8000;0.1441;-0.2540;
917.1000;0.1449;-0.2492;
917.4000;0.1441;-0.2468;
917.7000;0.1498;-0.2204;
918.0000;0.1433;-0.2396;
918.3000;0.1416;-0.2348;
918.6000;0.1408;-0.2396;
918.9000;0.1498;-0.2156;
919.2000;0.1433;-0.2324;
919.5000;0.1441;-0.2396;
919.8000;0.1433;-0.2444;
920.1000;0.1449;-0.2396;
920.4000;0.1449;-0.2396;
920.7000;0.1571;-0.1989;
921.0000;0.1449;-0.2372;
921.3000;0.1408;-0.2444;
921.6000;0.1416;-0.2468;
921.9000;0.1433;-0.2396;
922.2000;0.1400;-0.2540;
922.5000;0.1441;-0.2468;
922.8000;0.1441;-0.2516;
923.1000;0.1457;-0.2564;
923.4000;0.1449;-0.2516;
923.7000;0.1473;-0.2420;
924.0000;0.1441;-0.2492;
924.3000;0.1441;-0.2492;
924.6000;0.1441;-0.2420;
924.9000;0.1441;-0.2492;
925.2000;0.1579;-0.2132;
925.5000;0.1457;-0.2468;
925.8000;0.1457;-0.2420;
926.1000;0.1425;-0.2468;
926.4000;0.1449;-0.2396;
926.7000;0.1433;-0.2444;
927.0000;0.1392;-0.2540;
927.3000;0.1490;-0.2372;
927.6000;0.1457;-0.2444;
927.9000;0.1408;-0.2540;
928.2000;0.1335;-0.2731;
928.5000;0.1392;-0.2636;
928.8000;0.1400;-0.2588;
929.1000;0.1457;-0.2300;
929.4000;0.1416;-0.2540;
929.7000;0.1449;-0.2492;
930.0000;0.1473;-0.2324;
930.3000;0.1449;-0.2444;
930.6000;0.1433;-0.2540;
930.9000;0.1449;-0.2516;
931.2000;0.1457;-0.2516;
931.5000;0.1441;-0.2516;
931.8000;0.1408;-0.2588;
932.1000;0.1433;-0.2564;
932.4000;0.1441;-0.2540;
932.7000;0.1522;-0.2396;
933.0000;0.1465;-0.2516;
933.3000;0.1449;-0.2444;
933.6000;0.1473;-0.2372;
933.9000;0.1457;-0.2396;
934.2000;0.1441;-0.2420;
934.5000;0.1498;-0.2180;
934.8000;0.1425;-0.2300;
935.1000;0.1449;-0.2324;
935.4000;0.1530;-0.2013;
935.7000;0.1481;-0.2156;
936.0000;0.1506;-0.2037;
936.3000;0.1490;-0.2061;
936.6000;0.1359;-0.2516;
936.9000;0.1441;-0.2420;
937.2000;0.1441;-0.2396;
937.5000;0.1425;-0.2420;
937.8000;0.1457;-0.2300;
938.1000;0.1441;-0.2324;
938.4000;0.1449;-0.2276;
938.7000;0.1433;-0.2372;
939.0000;0.1465;-0.2348;
939.3000;0.1425;-0.2492;
939.6000;0.1449;-0.2420;
939.9000;0.1425;-0.2468;
940.2000;0.1449;-0.2348;
940.5000;0.1473;-0.2300;
940.8000;0.1425;-0.2444;
941.1000;0.1433;-0.2492;
941.4000;0.1416;-0.2468;
941.7000;0.1449;-0.2348;
942.0000;0.1441;-0.2420;
942.3000;0.1425;-0.2420;
942.6000;0.1441;-0.2372;
942.9000;0.1425;-0.2420;
943.2000;0.1433;-0.2420;
943.5000;0.1449;-0.2300;
943.8000;0.1449;-0.2348;
944.1000;0.1441;-0.2324;
944.4000;0.1416;-0.2372;
944.7000;0.1449;-0.2372;
945.0000;0.1449;-0.2444;
945.3000;0.1465;-0.2348;
945.6000;0.1449;-0.2372;
945.9000;0.1433;-0.2372;
946.2000;0.1449;-0.2276;
946.5000;0.1425;-0.2348;
946.8000;0.1457;-0.2300;
947.1000;0.1441;-0.2420;
947.4000;0.1449;-0.2420;
947.7000;0.1457;-0.2300;
948.0000;0.1433;-0.2372;
948.3000;0.1441;-0.2324;
948.6000;0.1433;-0.2300;
948.9000;0.1457;-0.2300;
949.2000;0.1449;-0.2324;
949.5000;0.1449;-0.2276;
949.8000;0.1465;-0.2180;
950.1000;0.1425;-0.2228;
950.4000;0.1351;-0.2588;
950.7000;0.1416;-0.2372;
951.0000;0.1416;-0.2372;
951.3000;0.1433;-0.2324;
951.6000;0.1425;-0.2396;
951.9000;0.1441;-0.2444;
952.2000;0.1506;-0.2228;
952.5000;0.1408;-0.2516;
952.8000;0.1441;-0.2420;
953.1000;0.1425;-0.2420;
953.4000;0.1441;-0.2324;
953.7000;0.1473;-0.2228;
954.0000;0.1449;-0.2252;
954.3000;0.1441;-0.2324;
954.6000;0.1416;-0.2468;
954.9000;0.1449;-0.2444;
955.2000;0.1457;-0.2420;
955.5000;0.1433;-0.2564;
955.8000;0.1449;-0.2468;
956.1000;0.1433;-0.2444;
956.4000;0.1449;-0.2444;
956.7000;0.1433;-0.2516;
957.0000;0.1400;-0.2564;
957.3000;0.1449;-0.2420;
957.6000;0.1449;-0.2516;
957.9000;0.1425;-0.2612;
958.2000;0.1433;-0.2612;
958.5000;0.1481;-0.2444;
958.8000;0.1433;-0.2612;
959.1000;0.1441;-0.2564;
959.4000;0.1547;-0.2204;
959.7000;0.1359;-0.2707;
960.0000;0.1457;-0.2468;
960.3000;0.1433;-0.2516;
960.6000;0.1441;-0.2492;
960.9000;0.1392;-0.2660;
961.2000;0.1408;-0.2492;
961.5000;0.1498;-0.2252;
961.8000;0.1449;-0.2396;
962.1000;0.1392;-0.2492;
962.4000;0.1457;-0.2420;
962.7000;0.1433;-0.2516;
963.0000;0.1433;-0.2540;
963.3000;0.1425;-0.2516;
963.6000;0.1400;-0.2707;
963.9000;0.1392;-0.2755;
964.2000;0.1433;-0.2636;
964.5000;0.1425;-0.2612;
964.8000;0.1416;-0.2564;
965.1000;0.1433;-0.2564;
965.4000;0.1400;-0.2564;
965.7000;0.1457;-0.2516;
966.0000;0.1449;-0.2444;
966.3000;0.1433;-0.2540;
966.6000;0.1473;-0.2492;
966.9000;0.1400;-0.2612;
967.2000;0.1449;-0.2420;
967.5000;0.1400;-0.2612;
967.8000;0.1327;-0.2707;
968.1000;0.1449;-0.2300;
968.4000;0.1376;-0.2468;
968.7000;0.1416;-0.2300;
969.0000;0.1473;-0.2228;
969.3000;0.1425;-0.2420;
969.6000;0.1425;-0.2372;
969.9000;0.1425;-0.2348;
970.2000;0.1425;-0.2348;
970.5000;0.1433;-0.2420;
970.8000;0.1465;-0.2420;
971.1000;0.1425;-0.2492;
971.4000;0.1425;-0.2444;
971.7000;0.1449;-0.2420;
972.0000;0.1465;-0.2324;
972.3000;0.1433;-0.2348;
972.6000;0.1449;-0.2324;
972.9000;0.1425;-0.2276;
973.2000;0.1481;-0.2180;
973.5000;0.1425;-0.2372;
973.8000;0.1457;-0.2300;
974.1000;0.1449;-0.2300;
974.4000;0.1425;-0.2420;
974.7000;0.1449;-0.2444;
975.0000;0.1433;-0.2516;
975.3000;0.1449;-0.2420;
975.6000;0.1408;-0.2444;
975.9000;0.1449;-0.2348;
976.2000;0.1433;-0.2396;
976.5000;0.1425;-0.2420;
976.8000;0.1457;-0.2300;
977.1000;0.1449;-0.2348;
977.4000;0.1425;-0.2300;
977.7000;0.1473;-0.2180;
978.0000;0.1433;-0.2252;
978.3000;0.1351;-0.2564;
978.6000;0.1441;-0.2396;
978.9000;0.1425;-0.2492;
979.2000;0.1433;-0.2468;
979.5000;0.1441;-0.2492;
979.8000;0.1449;-0.2444;
980.1000;0.1433;-0.2444;
980.4000;0.1384;-0.2564;
980.7000;0.1457;-0.2396;
981.0000;0.1408;-0.2492;
981.3000;0.1457;-0.2396;
981.6000;0.1392;-0.2444;
981.9000;0.1425;-0.2276;
982.2000;0.1473;-0.2228;
982.5000;0.1425;-0.2300;
982.8000;0.1433;-0.2324;
983.1000;0.1441;-0.2348;
983.4000;0.1457;-0.2348;
983.7000;0.1449;-0.2396;
984.0000;0.1408;-0.2516;
984.3000;0.1490;-0.2252;
984.6000;0.1425;-0.2372;
984.9000;0.1384;-0.2492;
985.2000;0.1441;-0.2372;
985.5000;0.1392;-0.2588;
985.8000;0.1433;-0.2348;
986.1000;0.1376;-0.2516;
986.4000;0.1449;-0.2348;
986.7000;0.1433;-0.2396;
987.0000;0.1441;-0.2372;
987.3000;0.1433;-0.2348;
987.6000;0.1449;-0.2372;
987.9000;0.1457;-0.2348;
988.2000;0.1408;-0.2492;
988.5000;0.1457;-0.2420;
988.8000;0.1490;-0.2276;
989.1000;0.1416;-0.2372;
989.4000;0.1416;-0.2348;
989.7000;0.1449;-0.2228;
990.0000;0.1433;-0.2228;
990.3000;0.1408;-0.2348;
990.6000;0.1433;-0.2252;
990.9000;0.1392;-0.2324;
991.2000;0.1441;-0.2156;
991.5000;0.1433;-0.2228;
991.8000;0.1368;-0.2444;
992.1000;0.1433;-0.2228;
992.4000;0.1481;-0.2180;
992.7000;0.1441;-0.2300;
993.0000;0.1400;-0.2396;
993.3000;0.1514;-0.2037;
993.6000;0.1457;-0.2252;
993.9000;0.1416;-0.2204;
994.2000;0.1457;-0.2156;
994.5000;0.1441;-0.2204;
994.8000;0.1433;-0.2276;
995.1000;0.1522;-0.2013;
995.4000;0.1425;-0.2276;
995.7000;0.1441;-0.2276;
996.0000;0.1449;-0.2276;
996.3000;0.1433;-0.2300;
996.6000;0.1441;-0.2228;
996.9000;0.1441;-0.2372;
997.2000;0.1449;-0.2324;
997.5000;0.1416;-0.2372;
997.8000;0.1449;-0.2372;
998.1000;0.1433;-0.2300;
998.4000;0.1441;-0.2300;
998.7000;0.1384;-0.2540;
999.0000;0.1425;-0.2348;
999.3000;0.1457;-0.2300;
999.6000;0.1441;-0.2372;
999.9000;0.1433;-0.2372;
1000.2000;0.1449;-0.2276;
1000.5000;0.1416;-0.2324;
1000.8000;0.1408;-0.2396;
1001.1000;0.1319;-0.2636;
1001.4000;0.1449;-0.2276;
1001.7000;0.1441;-0.2252;
1002.0000;0.1408;-0.2324;
1002.3000;0.1433;-0.2204;
1002.6000;0.1327;-0.2540;
1002.9000;0.1441;-0.2300;
1003.2000;0.1465;-0.2396;
1003.5000;0.1449;-0.2468;
1003.8000;0.1449;-0.2372;
1004.1000;0.1449;-0.2396;
1004.4000;0.1506;-0.2324;
1004.7000;0.1441;-0.2492;
1005.0000;0.1441;-0.2588;
1005.3000;0.1368;-0.2755;
1005.6000;0.1441;-0.2564;
1005.9000;0.1449;-0.2636;
1006.2000;0.1425;-0.2612;
1006.5000;0.1457;-0.2516;
1006.8000;0.1425;-0.2492;
1007.1000;0.1457;-0.2348;
1007.4000;0.1522;-0.2156;
1007.7000;0.1441;-0.2324;
1008.0000;0.1433;-0.2372;
1008.3000;0.1425;-0.2420;
1008.6000;0.1425;-0.2372;
1008.9000;0.1441;-0.2396;
1009.2000;0.1433;-0.2372;
1009.5000;0.1449;-0.2348;
1009.8000;0.1425;-0.2396;
1010.1000;0.1400;-0.2492;
1010.4000;0.1400;-0.2468;
1010.7000;0.1449;-0.2420;
1011.0000;0.1425;-0.2540;
1011.3000;0.1433;-0.2468;
1011.6000;0.1441;-0.2420;
1011.9000;0.1441;-0.2468;
1012.2000;0.1433;-0.2444;
1012.5000;0.1425;-0.2444;
1012.8000;0.1433;-0.2324;
1013.1000;0.1457;-0.2108;
1013.4000;0.1465;-0.2156;
1013.7000;0.1449;-0.2228;
1014.0000;0.1441;-0.2228;
1014.3000;0.1441;-0.2204;
1014.6000;0.1457;-0.2204;
1014.9000;0.1441;-0.2300;
1015.2000;0.1473;-0.2300;
1015.5000;0.1425;-0.2348;
1015.8000;0.1425;-0.2372;
1016.1000;0.1441;-0.2348;
1016.4000;0.1425;-0.2468;
1016.7000;0.1425;-0.2564;
1017.0000;0.1457;-0.2588;
1017.3000;0.1433;-0.2707;
1017.6000;0.1441;-0.2588;
1017.9000;0.1449;-0.2612;
1018.2000;0.1449;-0.2684;
1018.5000;0.1449;-0.2564;
1018.8000;0.1416;-0.2588;
1019.1000;0.1449;-0.2588;
1019.4000;0.1465;-0.2540;
1019.7000;0.1449;-0.2468;
1020.0000;0.1457;-0.2324;
1020.3000;0.1433;-0.2444;
1020.6000;0.1343;-0.2612;
1020.9000;0.1457;-0.2348;
1021.2000;0.1530;-0.2132;
1021.5000;0.1449;-0.2372;
1021.8000;0.1433;-0.2444;
1022.1000;0.1441;-0.2420;
1022.4000;0.1425;-0.2540;
1022.7000;0.1465;-0.2420;
1023.0000;0.1433;-0.2516;
1023.3000;0.1441;-0.2564;
1023.6000;0.1425;-0.2684;
1023.9000;0.1465;-0.2588;
1024.2000;0.1319;-0.2827;
1024.5000;0.1433;-0.2564;
1024.8000;0.1449;-0.2540;
1025.1000;0.1441;-0.2612;
1025.4000;0.1416;-0.2612;
1025.7000;0.1392;-0.2684;
1026.0000;0.1425;-0.2588;
1026.3000;0.1473;-0.2492;
1026.6000;0.1490;-0.2420;
1026.9000;0.1555;-0.2300;
1027.2000;0.1392;-0.2612;
1027.5000;0.1433;-0.2444;
1027.8000;0.1433;-0.2420;
1028.1000;0.1416;-0.2516;
1028.4000;0.1408;-0.2492;
1028.7000;0.1514;-0.2204;
1029.0000;0.1473;-0.2444;
1029.3000;0.1433;-0.2516;
1029.6000;0.1441;-0.2564;
1029.9000;0.1449;-0.2612;
1030.2000;0.1408;-0.2636;
1030.5000;0.1400;-0.2707;
1030.8000;0.1449;-0.2660;
1031.1000;0.1433;-0.2660;
1031.4000;0.1416;-0.2731;
1031.7000;0.1335;-0.2995;
1032.0000;0.1433;-0.2684;
1032.3000;0.1465;-0.2636;
1032.6000;0.1441;-0.2660;
1032.9000;0.1294;-0.2995;
1033.2000;0.1408;-0.2660;
1033.5000;0.1416;-0.2684;
1033.8000;0.1449;-0.2516;
1034.1000;0.1457;-0.2492;
1034.4000;0.1392;-0.2684;
1034.7000;0.1441;-0.2636;
1035.0000;0.1441;-0.2588;
1035.3000;0.1465;-0.2588;
1035.6000;0.1449;-0.2612;
1035.9000;0.1433;-0.2684;
1036.2000;0.1457;-0.2564;
1036.5000;0.1441;-0.2564;
1036.8000;0.1441;-0.2516;
1037.1000;0.1433;-0.2444;
1037.4000;0.1433;-0.2492;
1037.7000;0.1441;-0.2420;
1038.0000;0.1425;-0.2468;
1038.3000;0.1416;-0.2444;
1038.6000;0.1433;-0.2444;
1038.9000;0.1441;-0.2492;
1039.2000;0.1465;-0.2396;
1039.5000;0.1416;-0.2420;
1039.8000;0.1441;-0.2300;
1040.1000;0.1408;-0.2420;
1040.4000;0.1473;-0.2228;
1040.7000;0.1441;-0.2420;
1041.0000;0.1530;-0.2180;
1041.3000;0.1473;-0.2372;
1041.6000;0.1473;-0.2372;
1041.9000;0.1425;-0.2540;
1042.2000;0.1416;-0.2636;
1042.5000;0.1449;-0.2540;
1042.8000;0.1490;-0.2420;
1043.1000;0.1522;-0.2444;
1043.4000;0.1416;-0.2588;
1043.7000;0.1433;-0.2612;
1044.0000;0.1441;-0.2612;
1044.3000;0.1457;-0.2516;
1044.6000;0.1473;-0.2372;
1044.9000;0.1392;-0.2564;
1045.2000;0.1473;-0.2348;
1045.5000;0.1441;-0.2444;
1045.8000;0.1441;-0.2396;
1046.1000;0.1433;-0.2420;
1046.4000;0.1441;-0.2324;
1046.7000;0.1392;-0.2516;
1047.0000;0.1425;-0.2420;
1047.3000;0.1498;-0.2348;
1047.6000;0.1465;-0.2372;
1047.9000;0.1441;-0.2540;
1048.2000;0.1457;-0.2516;
1048.5000;0.1416;-0.2516;
1048.8000;0.1425;-0.2540;
1049.1000;0.1408;-0.2516;
1049.4000;0.1433;-0.2348;
1049.7000;0.1457;-0.2252;
1050.0000;0.1408;-0.2396;
1050.3000;0.1449;-0.2228;
1050.6000;0.1449;-0.2324;
1050.9000;0.1408;-0.2468;
1051.2000;0.1433;-0.2444;
1051.5000;0.1441;-0.2444;
1051.8000;0.1416;-0.2468;
1052.1000;0.1441;-0.2492;
1052.4000;0.1392;-0.2636;
1052.7000;0.1449;-0.2492;
1053.0000;0.1449;-0.2516;
1053.3000;0.1416;-0.2612;
1053.6000;0.1425;-0.2588;
1053.9000;0.1384;-0.2731;
1054.2000;0.1441;-0.2564;
1054.5000;0.1449;-0.2444;
1054.8000;0.1449;-0.2492;
1055.1000;0.1416;-0.2492;
1055.4000;0.1465;-0.2300;
1055.7000;0.1490;-0.2300;
1056.0000;0.1433;-0.2516;
1056.3000;0.1400;-0.2564;
1056.6000;0.1425;-0.2516;
1056.9000;0.1425;-0.2516;
1057.2000;0.1457;-0.2468;
1057.5000;0.1376;-0.2684;
1057.8000;0.1506;-0.2324;
1058.1000;0.1441;-0.2516;
1058.4000;0.1465;-0.2444;
1058.7000;0.1408;-0.2540;
1059.0000;0.1441;-0.2468;
1059.3000;0.1425;-0.2444;
1059.6000;0.1449;-0.2396;
1059.9000;0.1408;-0.2564;
1060.2000;0.1351;-0.2707;
1060.5000;0.1465;-0.2420;
1060.8000;0.1425;-0.2540;
1061.1000;0.1441;-0.2564;
1061.4000;0.1555;-0.2276;
1061.7000;0.1473;-0.2540;
1062.0000;0.1498;-0.2324;
1062.3000;0.1449;-0.2468;
1062.6000;0.1449;-0.2420;
1062.9000;0.1506;-0.2252;
1063.2000;0.1343;-0.2636;
1063.5000;0.1547;-0.2204;
1063.8000;0.1343;-0.2803;
1064.1000;0.1416;-0.2540;
1064.4000;0.1449;-0.2516;
1064.7000;0.1481;-0.2300;
1065.0000;0.1449;-0.2348;
1065.3000;0.1433;-0.2396;
1065.6000;0.1449;-0.2396;
1065.9000;0.1400;-0.2420;
1066.2000;0.1408;-0.2516;
1066.5000;0.1164;-0.3115;
1066.8000;0.1449;-0.2444;
1067.1000;0.1433;-0.2468;
1067.4000;0.1433;-0.2396;
1067.7000;0.1425;-0.2492;
1068.0000;0.1441;-0.2348;
1068.3000;0.1449;-0.2276;
1068.6000;0.1465;-0.2300;
1068.9000;0.1433;-0.2372;
1069.2000;0.1400;-0.2420;
1069.5000;0.1457;-0.2252;
1069.8000;0.1441;-0.2300;
1070.1000;0.1416;-0.2396;
1070.4000;0.1441;-0.2396;
1070.7000;0.1530;-0.2204;
1071.0000;0.1433;-0.2516;
1071.3000;0.1481;-0.2300;
1071.6000;0.1441;-0.2492;
1071.9000;0.1416;-0.2540;
1072.2000;0.1449;-0.2420;
1072.5000;0.1425;-0.2468;
1072.8000;0.1441;-0.2420;
1073.1000;0.1425;-0.2492;
1073.4000;0.1449;-0.2324;
1073.7000;0.1433;-0.2420;
1074.0000;0.1490;-0.2348;
1074.3000;0.1473;-0.2372;
1074.6000;0.1433;-0.2444;
1074.9000;0.1416;-0.2492;
1075.2000;0.1441;-0.2396;
1075.5000;0.1457;-0.2372;
1075.8000;0.1425;-0.2444;
1076.1000;0.1457;-0.2276;
1076.4000;0.1522;-0.2180;
1076.7000;0.1433;-0.2420;
1077.0000;0.1425;-0.2444;
1077.3000;0.1441;-0.2396;
1077.6000;0.1425;-0.2396;
1077.9000;0.1441;-0.2348;
1078.2000;0.1433;-0.2300;
1078.5000;0.1441;-0.2372;
1078.8000;0.1441;-0.2396;
1079.1000;0.1457;-0.2228;
1079.4000;0.1522;-0.2108;
1079.7000;0.1441;-0.2372;
1080.0000;0.1408;-0.2468;
1080.3000;0.1441;-0.2396;
1080.6000;0.1425;-0.2444;
1080.9000;0.1433;-0.2420;
1081.2000;0.1498;-0.2300;
1081.5000;0.1457;-0.2444;
1081.8000;0.1433;-0.2492;
1082.1000;0.1433;-0.2588;
1082.4000;0.1441;-0.2660;
1082.7000;0.1441;-0.2660;
1083.0000;0.1441;-0.2588;
1083.3000;0.1416;-0.2612;
1083.6000;0.1433;-0.2564;
1083.9000;0.1441;-0.2564;
1084.2000;0.1408;-0.2516;
1084.5000;0.1490;-0.2228;
1084.8000;0.1465;-0.2228;
1085.1000;0.1408;-0.2396;
1085.4000;0.1441;-0.2324;
1085.7000;0.1425;-0.2372;
1086.0000;0.1294;-0.2684;
1086.3000;0.1441;-0.2372;
1086.6000;0.1490;-0.2156;
1086.9000;0.1449;-0.2204;
1087.2000;0.1441;-0.2180;
1087.5000;0.1465;-0.2061;
1087.8000;0.1441;-0.2037;
1088.1000;0.1449;-0.1989;
1088.4000;0.1425;-0.2108;
1088.7000;0.1522;-0.1989;
1089.0000;0.1425;-0.2324;
1089.3000;0.1457;-0.2228;
1089.6000;0.1433;-0.2252;
1089.9000;0.1457;-0.2252;
1090.2000;0.1441;-0.2324;
1090.5000;0.1384;-0.2396;
1090.8000;0.1416;-0.2396;
1091.1000;0.1425;-0.2348;
1091.4000;0.1433;-0.2348;
1091.7000;0.1425;-0.2372;
1092.0000;0.1343;-0.2612;
1092.3000;0.1425;-0.2372;
1092.6000;0.1416;-0.2396;
1092.9000;0.1441;-0.2348;
1093.2000;0.1416;-0.2372;
1093.5000;0.1433;-0.2444;
1093.8000;0.1441;-0.2444;
1094.1000;0.1441;-0.2468;
1094.4000;0.1449;-0.2492;
1094.7000;0.1449;-0.2516;
1095.0000;0.1433;-0.2540;
1095.3000;0.1449;-0.2468;
1095.6000;0.1425;-0.2588;
1095.9000;0.1449;-0.2564;
1096.2000;0.1433;-0.2588;
1096.5000;0.1481;-0.2396;
1096.8000;0.1433;-0.2564;
1097.1000;0.1425;-0.2564;
1097.4000;0.1433;-0.2660;
1097.7000;0.1441;-0.2612;
1098.0000;0.1425;-0.2636;
1098.3000;0.1457;-0.2492;
1098.6000;0.1433;-0.2468;
1098.9000;0.1481;-0.2324;
1099.2000;0.1408;-0.2492;
1099.5000;0.1506;-0.2156;
1099.8000;0.1425;-0.2324;
1100.1000;0.1457;-0.2204;
1100.4000;0.1392;-0.2372;
1100.7000;0.1441;-0.2228;
1101.0000;0.1425;-0.2300;
1101.3000;0.1457;-0.2132;
1101.6000;0.1425;-0.2276;
1101.9000;0.1481;-0.2228;
1102.2000;0.1433;-0.2444;
1102.5000;0.1449;-0.2396;
1102.8000;0.1457;-0.2396;
1103.1000;0.1433;-0.2444;
1103.4000;0.1498;-0.2180;
1103.7000;0.1433;-0.2324;
1104.0000;0.1425;-0.2276;
1104.3000;0.1449;-0.2300;
1104.6000;0.1441;-0.2348;
1104.9000;0.1425;-0.2492;
1105.2000;0.1441;-0.2420;
1105.5000;0.1449;-0.2300;
1105.8000;0.1449;-0.2348;
1106.1000;0.1441;-0.2348;
1106.4000;0.1425;-0.2324;
1106.7000;0.1416;-0.2420;
1107.0000;0.1441;-0.2396;
1107.3000;0.1441;-0.2396;
1107.6000;0.1457;-0.2372;
1107.9000;0.1400;-0.2396;
1108.2000;0.1433;-0.2420;
1108.5000;0.1449;-0.2300;
1108.8000;0.1433;-0.2300;
1109.1000;0.1449;-0.2252;
1109.4000;0.1425;-0.2324;
1109.7000;0.1449;-0.2324;
1110.0000;0.1530;-0.2156;
1110.3000;0.1449;-0.2324;
1110.6000;0.1457;-0.2276;
1110.9000;0.1441;-0.2324;
1111.2000;0.1400;-0.2372;
1111.5000;0.1441;-0.2252;
1111.8000;0.1490;-0.2108;
1112.1000;0.1425;-0.2348;
1112.4000;0.1384;-0.2588;
1112.7000;0.1433;-0.2468;
1113.0000;0.1433;-0.2348;
1113.3000;0.1441;-0.2348;
1113.6000;0.1449;-0.2300;
1113.9000;0.1457;-0.2252;
1114.2000;0.1425;-0.2300;
1114.5000;0.1425;-0.2300;
1114.8000;0.1465;-0.2324;
1115.1000;0.1449;-0.2348;
1115.4000;0.1425;-0.2468;
1115.7000;0.1425;-0.2444;
1116.0000;0.1441;-0.2420;
1116.3000;0.1441;-0.2444;
1116.6000;0.1416;-0.2468;
1116.9000;0.1416;-0.2468;
1117.2000;0.1457;-0.2324;
1117.5000;0.1416;-0.2324;
1117.8000;0.1441;-0.2348;
1118.1000;0.1457;-0.2276;
1118.4000;0.1425;-0.2324;
1118.7000;0.1449;-0.2180;
1119.0000;0.1425;-0.2156;
1119.3000;0.1425;-0.2252;
1119.6000;0.1441;-0.2276;
1119.9000;0.1425;-0.2420;
1120.2000;0.1465;-0.2348;
1120.5000;0.1425;-0.2492;
1120.8000;0.1327;-0.2636;
1121.1000;0.1441;-0.2372;
1121.4000;0.1473;-0.2276;
1121.7000;0.1392;-0.2420;
1122.0000;0.1457;-0.2276;
1122.3000;0.1465;-0.2324;
1122.6000;0.1449;-0.2324;
1122.9000;0.1457;-0.2204;
1123.2000;0.1408;-0.2516;
1123.5000;0.1441;-0.2348;
1123.8000;0.1416;-0.2372;
1124.1000;0.1441;-0.2300;
1124.4000;0.1473;-0.2156;
1124.7000;0.1351;-0.2516;
1125.0000;0.1416;-0.2300;
1125.3000;0.1449;-0.2300;
1125.6000;0.1433;-0.2348;
1125.9000;0.1400;-0.2468;
1126.2000;0.1441;-0.2300;
1126.5000;0.1449;-0.2228;
1126.8000;0.1433;-0.2228;
1127.1000;0.1425;-0.2276;
1127.4000;0.1498;-0.2132;
1127.7000;0.1441;-0.2324;
1128.0000;0.1449;-0.2300;
1128.3000;0.1457;-0.2276;
1128.6000;0.1441;-0.2324;
1128.9000;0.1425;-0.2468;
1129.2000;0.1449;-0.2420;
1129.5000;0.1425;-0.2420;
1129.8000;0.1416;-0.2420;
1130.1000;0.1441;-0.2324;
1130.4000;0.1433;-0.2324;
1130.7000;0.1449;-0.2300;
1131.0000;0.1433;-0.2348;
1131.3000;0.1465;-0.2252;
1131.6000;0.1571;-0.2085;
1131.9000;0.1433;-0.2468;
1132.2000;0.1465;-0.2492;
1132.5000;0.1433;-0.2516;
1132.8000;0.1425;-0.2516;
1133.1000;0.1433;-0.2492;
1133.4000;0.1433;-0.2348;
1133.7000;0.1425;-0.2300;
1134.0000;0.1441;-0.2228;
1134.3000;0.1449;-0.2180;
1134.6000;0.1465;-0.2228;
1134.9000;0.1514;-0.2108;
1135.2000;0.1457;-0.2228;
1135.5000;0.1449;-0.2180;
1135.8000;0.1433;-0.2324;
1136.1000;0.1473;-0.2132;
1136.4000;0.1433;-0.2300;
1136.7000;0.1449;-0.2276;
1137.0000;0.1433;-0.2300;
1137.3000;0.1425;-0.2276;
1137.6000;0.1441;-0.2228;
1137.9000;0.1441;-0.2156;
1138.2000;0.1400;-0.2180;
1138.5000;0.1457;-0.2061;
1138.8000;0.1433;-0.2156;
1139.1000;0.1384;-0.2276;
1139.4000;0.1457;-0.2132;
1139.7000;0.1433;-0.2252;
1140.0000;0.1473;-0.2132;
1140.3000;0.1465;-0.2132;
1140.6000;0.1400;-0.2372;
1140.9000;0.1449;-0.2228;
1141.2000;0.1449;-0.2156;
1141.5000;0.1449;-0.2108;
1141.8000;0.1433;-0.2252;
1142.1000;0.1416;-0.2228;
1142.4000;0.1433;-0.2108;
1142.7000;0.1441;-0.2132;
1143.0000;0.1457;-0.2037;
1143.3000;0.1457;-0.2061;
1143.6000;0.1425;-0.2132;
1143.9000;0.1441;-0.2156;
1144.2000;0.1441;-0.2252;
1144.5000;0.1449;-0.2300;
1144.8000;0.1416;-0.2348;
1145.1000;0.1425;-0.2324;
1145.4000;0.1392;-0.2492;
1145.7000;0.1392;-0.2492;
1146.0000;0.1433;-0.2276;
1146.3000;0.1416;-0.2276;
1146.6000;0.1392;-0.2324;
1146.9000;0.1425;-0.2156;
1147.2000;0.1441;-0.2156;
1147.5000;0.1457;-0.2108;
1147.8000;0.1425;-0.2228;
1148.1000;0.1441;-0.2324;
1148.4000;0.1425;-0.2252;
1148.7000;0.1400;-0.2348;
1149.0000;0.1441;-0.2204;
1149.3000;0.1433;-0.2252;
1149.6000;0.1416;-0.2420;
1149.9000;0.1449;-0.2348;
1150.2000;0.1441;-0.2396;
1150.5000;0.1433;-0.2372;
1150.8000;0.1457;-0.2276;
1151.1000;0.1441;-0.2372;
1151.4000;0.1457;-0.2348;
1151.7000;0.1506;-0.2252;
1152.0000;0.1433;-0.2372;
1152.3000;0.1449;-0.2276;
1152.6000;0.1449;-0.2348;
1152.9000;0.1433;-0.2372;
1153.2000;0.1457;-0.2300;
1153.5000;0.1441;-0.2252;
1153.8000;0.1441;-0.2300;
1154.1000;0.1457;-0.2156;
1154.4000;0.1433;-0.2204;
1154.7000;0.1449;-0.2156;
1155.0000;0.1416;-0.2204;
1155.3000;0.1449;-0.2085;
1155.6000;0.1425;-0.2204;
1155.9000;0.1449;-0.2156;
1156.2000;0.1441;-0.2204;
1156.5000;0.1433;-0.2156;
1156.8000;0.1433;-0.2180;
1157.1000;0.1400;-0.2300;
1157.4000;0.1441;-0.2204;
1157.7000;0.1457;-0.2108;
1158.0000;0.1433;-0.2132;
1158.3000;0.1441;-0.2061;
1158.6000;0.1465;-0.2061;
1158.9000;0.1473;-0.2037;
1159.2000;0.1408;-0.2204;
1159.5000;0.1425;-0.2108;
1159.8000;0.1441;-0.2061;
1160.1000;0.1441;-0.2108;
1160.4000;0.1433;-0.2156;
1160.7000;0.1441;-0.2037;
1161.0000;0.1433;-0.2156;
1161.3000;0.1514;-0.1941;
1161.6000;0.1433;-0.2204;
1161.9000;0.1433;-0.2204;
1162.2000;0.1416;-0.2180;
1162.5000;0.1433;-0.2108;
1162.8000;0.1433;-0.2085;
1163.1000;0.1302;-0.2396;
1163.4000;0.1457;-0.1941;
1163.7000;0.1433;-0.2061;
1164.0000;0.1433;-0.2061;
1164.3000;0.1449;-0.2085;
1164.6000;0.1433;-0.2300;
1164.9000;0.1457;-0.2180;
1165.2000;0.1441;-0.2276;
1165.5000;0.1433;-0.2252;
1165.8000;0.1441;-0.2156;
1166.1000;0.1368;-0.2420;
1166.4000;0.1433;-0.2228;
1166.7000;0.1416;-0.2180;
1167.0000;0.1425;-0.2156;
1167.3000;0.1449;-0.2132;
1167.6000;0.1465;-0.1917;
1167.9000;0.1441;-0.1965;
1168.2000;0.1441;-0.2013;
1168.5000;0.1433;-0.2108;
1168.8000;0.1433;-0.2085;
1169.1000;0.1441;-0.2132;
1169.4000;0.1376;-0.2420;
1169.7000;0.1465;-0.2228;
1170.0000;0.1449;-0.2228;
1170.3000;0.1457;-0.2132;
1170.6000;0.1457;-0.2037;
1170.9000;0.1400;-0.2276;
1171.2000;0.1343;-0.2468;
1171.5000;0.1433;-0.2252;
1171.8000;0.1433;-0.2156;
1172.1000;0.1498;-0.2037;
1172.4000;0.1425;-0.2276;
1172.7000;0.1416;-0.2348;
1173.0000;0.1311;-0.2588;
1173.3000;0.1449;-0.2156;
1173.6000;0.1416;-0.2180;
1173.9000;0.1433;-0.2085;
1174.2000;0.1425;-0.2228;
1174.5000;0.1481;-0.2156;
1174.8000;0.1433;-0.2276;
1175.1000;0.1425;-0.2228;
1175.4000;0.1449;-0.2276;
1175.7000;0.1514;-0.2132;
1176.0000;0.1408;-0.2468;
1176.3000;0.1433;-0.2420;
1176.6000;0.1408;-0.2612;
1176.9000;0.1449;-0.2540;
1177.2000;0.1441;-0.2612;
1177.5000;0.1408;-0.2636;
1177.8000;0.1433;-0.2588;
1178.1000;0.1449;-0.2492;
1178.4000;0.1408;-0.2540;
1178.7000;0.1384;-0.2564;
1179.0000;0.1441;-0.2324;
1179.3000;0.1473;-0.2276;
1179.6000;0.1473;-0.2180;
1179.9000;0.1441;-0.2228;
1180.2000;0.1425;-0.2300;
1180.5000;0.1433;-0.2348;
1180.8000;0.1473;-0.2252;
1181.1000;0.1538;-0.2108;
1181.4000;0.1441;-0.2540;
1181.7000;0.1457;-0.2468;
1182.0000;0.1433;-0.2444;
1182.3000;0.1433;-0.2420;
1182.6000;0.1425;-0.2372;
1182.9000;0.1408;-0.2420;
1183.2000;0.1425;-0.2420;
1183.5000;0.1425;-0.2420;
1183.8000;0.1457;-0.2300;
1184.1000;0.1498;-0.2108;
1184.4000;0.1416;-0.2372;
1184.7000;0.1433;-0.2420;
1185.0000;0.1425;-0.2540;
1185.3000;0.1449;-0.2444;
1185.6000;0.1457;-0.2300;
1185.9000;0.1449;-0.2252;
1186.2000;0.1433;-0.2300;
1186.5000;0.1530;-0.2037;
1186.8000;0.1465;-0.2228;
1187.1000;0.1449;-0.2300;
1187.4000;0.1465;-0.2228;
1187.7000;0.1441;-0.2300;
1188.0000;0.1441;-0.2300;
1188.3000;0.1449;-0.2228;
1188.6000;0.1465;-0.2348;
1188.9000;0.1425;-0.2492;
1189.2000;0.1416;-0.2420;
1189.5000;0.1425;-0.2420;
1189.8000;0.1335;-0.2660;
1190.1000;0.1441;-0.2324;
1190.4000;0.1416;-0.2372;
1190.7000;0.1441;-0.2204;
1191.0000;0.1433;-0.2204;
1191.3000;0.1449;-0.2228;
1191.6000;0.1392;-0.2396;
1191.9000;0.1514;-0.2013;
1192.2000;0.1522;-0.2013;
1192.5000;0.1433;-0.2228;
1192.8000;0.1416;-0.2180;
1193.1000;0.1425;-0.2180;
1193.4000;0.1481;-0.2013;
1193.7000;0.1449;-0.2156;
1194.0000;0.1425;-0.2276;
1194.3000;0.1433;-0.2276;
1194.6000;0.1449;-0.2276;
1194.9000;0.1465;-0.2228;
1195.2000;0.1433;-0.2204;
1195.5000;0.1425;-0.2300;
1195.8000;0.1433;-0.2252;
1196.1000;0.1425;-0.2156;
1196.4000;0.1392;-0.2324;
1196.7000;0.1433;-0.2180;
1197.0000;0.1514;-0.1965;
1197.3000;0.1449;-0.2180;
1197.6000;0.1441;-0.2204;
1197.9000;0.1433;-0.2180;
1198.2000;0.1416;-0.2204;
1198.5000;0.1441;-0.2252;
1198.8000;0.1425;-0.2324;
1199.1000;0.1425;-0.2324;
1199.4000;0.1433;-0.2228;
1199.7000;0.1457;-0.2180;
1200.0000;0.1449;-0.2228;
1200.3000;0.1449;-0.2276;
1200.6000;0.1449;-0.2300;
1200.9000;0.1416;-0.2348;
1201.2000;0.1457;-0.2204;
1201.5000;0.1433;-0.2276;
1201.8000;0.1441;-0.2348;
1202.1000;0.1441;-0.2468;
1202.4000;0.1473;-0.2372;
1202.7000;0.1416;-0.2516;
1203.0000;0.1441;-0.2420;
1203.3000;0.1449;-0.2372;
1203.6000;0.1449;-0.2372;
1203.9000;0.1490;-0.2276;
1204.2000;0.1433;-0.2468;
1204.5000;0.1425;-0.2492;
1204.8000;0.1490;-0.2348;
1205.1000;0.1416;-0.2444;
1205.4000;0.1449;-0.2348;
1205.7000;0.1457;-0.2324;
1206.0000;0.1408;-0.2396;
1206.3000;0.1441;-0.2324;
1206.6000;0.1449;-0.2180;
1206.9000;0.1506;-0.2037;
1207.2000;0.1368;-0.2396;
1207.5000;0.1457;-0.2204;
1207.8000;0.1441;-0.2156;
1208.1000;0.1384;-0.2204;
1208.4000;0.1457;-0.1965;
1208.7000;0.1514;-0.1821;
1209.0000;0.1416;-0.2156;
1209.3000;0.1425;-0.2156;
1209.6000;0.1425;-0.2108;
1209.9000;0.1408;-0.2180;
1210.2000;0.1408;-0.2156;
1210.5000;0.1408;-0.2204;
1210.8000;0.1457;-0.2037;
1211.1000;0.1425;-0.2085;
1211.4000;0.1449;-0.2061;
1211.7000;0.1457;-0.2085;
1212.0000;0.1449;-0.2061;
1212.3000;0.1416;-0.2108;
1212.6000;0.1433;-0.2180;
1212.9000;0.1457;-0.2156;
1213.2000;0.1433;-0.2204;
1213.5000;0.1449;-0.2180;
1213.8000;0.1425;-0.2228;
1214.1000;0.1441;-0.2132;
1214.4000;0.1449;-0.2180;
1214.7000;0.1441;-0.2204;
1215.0000;0.1465;-0.2156;
1215.3000;0.1473;-0.2061;
1215.6000;0.1441;-0.2108;
1215.9000;0.1408;-0.2156;
1216.2000;0.1498;-0.2037;
1216.5000;0.1433;-0.2204;
1216.8000;0.1433;-0.2061;
1217.1000;0.1400;-0.2204;
1217.4000;0.1425;-0.2085;
1217.7000;0.1457;-0.2037;
1218.0000;0.1449;-0.2108;
1218.3000;0.1425;-0.2156;
1218.6000;0.1433;-0.2108;
1218.9000;0.1425;-0.2156;
1219.2000;0.1392;-0.2276;
1219.5000;0.1400;-0.2204;
1219.8000;0.1433;-0.2252;
1220.1000;0.1490;-0.2132;
1220.4000;0.1416;-0.2420;
1220.7000;0.1465;-0.2348;
1221.0000;0.1433;-0.2468;
1221.3000;0.1425;-0.2540;
1221.6000;0.1538;-0.2180;
1221.9000;0.1433;-0.2468;
1222.2000;0.1441;-0.2348;
1222.5000;0.1408;-0.2444;
1222.8000;0.1441;-0.2324;
1223.1000;0.1433;-0.2348;
1223.4000;0.1425;-0.2348;
1223.7000;0.1441;-0.2228;
1224.0000;0.1433;-0.2324;
1224.3000;0.1449;-0.2396;
1224.6000;0.1433;-0.2444;
1224.9000;0.1441;-0.2444;
1225.2000;0.1433;-0.2420;
1225.5000;0.1441;-0.2396;
1225.8000;0.1449;-0.2396;
1226.1000;0.1425;-0.2444;
1226.4000;0.1400;-0.2420;
1226.7000;0.1441;-0.2324;
1227.0000;0.1433;-0.2348;
1227.3000;0.1416;-0.2396;
1227.6000;0.1457;-0.2324;
1227.9000;0.1400;-0.2540;
1228.2000;0.1571;-0.2061;
1228.5000;0.1449;-0.2372;
1228.8000;0.1433;-0.2444;
1229.1000;0.1441;-0.2348;
1229.4000;0.1481;-0.2324;
1229.7000;0.1457;-0.2396;
1230.0000;0.1425;-0.2468;
1230.3000;0.1441;-0.2420;
1230.6000;0.1449;-0.2420;
1230.9000;0.1433;-0.2492;
1231.2000;0.1538;-0.2156;
1231.5000;0.1530;-0.2085;
1231.8000;0.1351;-0.2516;
1232.1000;0.1416;-0.2396;
1232.4000;0.1449;-0.2300;
1232.7000;0.1449;-0.2252;
1233.0000;0.1425;-0.2396;
1233.3000;0.1449;-0.2300;
1233.6000;0.1425;-0.2300;
1233.9000;0.1425;-0.2372;
1234.2000;0.1335;-0.2636;
1234.5000;0.1457;-0.2372;
1234.8000;0.1441;-0.2396;
1235.1000;0.1416;-0.2492;
1235.4000;0.1425;-0.2396;
1235.7000;0.1433;-0.2348;
1236.0000;0.1441;-0.2348;
1236.3000;0.1441;-0.2372;
1236.6000;0.1368;-0.2588;
1236.9000;0.1425;-0.2444;
1237.2000;0.1433;-0.2492;
1237.5000;0.1547;-0.2156;
1237.8000;0.1408;-0.2564;
1238.1000;0.1400;-0.2540;
1238.4000;0.1449;-0.2444;
1238.7000;0.1465;-0.2492;
1239.0000;0.1433;-0.2540;
1239.3000;0.1433;-0.2540;
1239.6000;0.1457;-0.2468;
1239.9000;0.1457;-0.2444;
1240.2000;0.1449;-0.2468;
1240.5000;0.1441;-0.2540;
1240.8000;0.1425;-0.2636;
1241.1000;0.1433;-0.2612;
1241.4000;0.1433;-0.2636;
1241.7000;0.1400;-0.2636;
1242.0000;0.1433;-0.2540;
1242.3000;0.1522;-0.2228;
1242.6000;0.1433;-0.2468;
1242.9000;0.1433;-0.2516;
1243.2000;0.1425;-0.2468;
1243.5000;0.1408;-0.2564;
1243.8000;0.1441;-0.2540;
1244.1000;0.1425;-0.2540;
1244.4000;0.1433;-0.2564;
1244.7000;0.1433;-0.2564;
1245.0000;0.1441;-0.2516;
1245.3000;0.1441;-0.2540;
1245.6000;0.1425;-0.2636;
1245.9000;0.1490;-0.2516;
1246.2000;0.1449;-0.2588;
1246.5000;0.1425;-0.2636;
1246.8000;0.1425;-0.2684;
1247.1000;0.1441;-0.2540;
1247.4000;0.1457;-0.2612;
1247.7000;0.1433;-0.2755;
1248.0000;0.1441;-0.2707;
1248.3000;0.1441;-0.2564;
1248.6000;0.1449;-0.2468;
1248.9000;0.1457;-0.2396;
1249.2000;0.1481;-0.2324;
1249.5000;0.1433;-0.2420;
1249.8000;0.1416;-0.2492;
1250.1000;0.1425;-0.2468;
1250.4000;0.1481;-0.2372;
1250.7000;0.1449;-0.2396;
1251.0000;0.1425;-0.2492;
1251.3000;0.1449;-0.2468;
1251.6000;0.1441;-0.2444;
1251.9000;0.1425;-0.2516;
1252.2000;0.1449;-0.2444;
1252.5000;0.1465;-0.2468;
1252.8000;0.1441;-0.2468;
1253.1000;0.1416;-0.2516;
1253.4000;0.1481;-0.2372;
1253.7000;0.1481;-0.2372;
1254.0000;0.1457;-0.2396;
1254.3000;0.1425;-0.2396;
1254.6000;0.1376;-0.2540;
1254.9000;0.1449;-0.2372;
1255.2000;0.1498;-0.2252;
1255.5000;0.1416;-0.2372;
1255.8000;0.1441;-0.2444;
1256.1000;0.1457;-0.2420;
1256.4000;0.1473;-0.2324;
1256.7000;0.1441;-0.2444;
1257.0000;0.1449;-0.2492;
1257.3000;0.1457;-0.2396;
1257.6000;0.1441;-0.2420;
1257.9000;0.1433;-0.2444;
1258.2000;0.1441;-0.2372;
1258.5000;0.1449;-0.2348;
1258.8000;0.1441;-0.2396;
1259.1000;0.1449;-0.2324;
1259.4000;0.1441;-0.2300;
1259.7000;0.1441;-0.2348;
1260.0000;0.1457;-0.2300;
1260.3000;0.1433;-0.2396;
1260.6000;0.1473;-0.2252;
1260.9000;0.1449;-0.2300;
1261.2000;0.1457;-0.2276;
1261.5000;0.1441;-0.2324;
1261.8000;0.1457;-0.2300;
1262.1000;0.1441;-0.2300;
1262.4000;0.1433;-0.2372;
1262.7000;0.1441;-0.2396;
1263.0000;0.1433;-0.2396;
1263.3000;0.1433;-0.2420;
1263.6000;0.1433;-0.2396;
1263.9000;0.1425;-0.2348;
1264.2000;0.1425;-0.2420;
1264.5000;0.1441;-0.2468;
1264.8000;0.1441;-0.2492;
1265.1000;0.1384;-0.2684;
1265.4000;0.1425;-0.2540;
1265.7000;0.1498;-0.2444;
1266.0000;0.1490;-0.2492;
1266.3000;0.1449;-0.2564;
1266.6000;0.1555;-0.2228;
1266.9000;0.1449;-0.2540;
1267.2000;0.1465;-0.2396;
1267.5000;0.1433;-0.2492;
1267.8000;0.1441;-0.2516;
1268.1000;0.1433;-0.2492;
1268.4000;0.1441;-0.2492;
1268.7000;0.1425;-0.2540;
1269.0000;0.1449;-0.2444;
1269.3000;0.1465;-0.2348;
1269.6000;0.1514;-0.2180;
1269.9000;0.1359;-0.2516;
1270.2000;0.1416;-0.2276;
1270.5000;0.1449;-0.2228;
1270.8000;0.1449;-0.2180;
1271.1000;0.1441;-0.2228;
1271.4000;0.1433;-0.2252;
1271.7000;0.1441;-0.2348;
1272.0000;0.1465;-0.2348;
1272.3000;0.1465;-0.2324;
1272.6000;0.1514;-0.2252;
1272.9000;0.1433;-0.2468;
1273.2000;0.1441;-0.2468;
1273.5000;0.1441;-0.2420;
1273.8000;0.1449;-0.2468;
1274.1000;0.1441;-0.2516;
1274.4000;0.1433;-0.2564;
1274.7000;0.1408;-0.2707;
1275.0000;0.1441;-0.2540;
1275.3000;0.1441;-0.2636;
1275.6000;0.1392;-0.2779;
1275.9000;0.1506;-0.2396;
1276.2000;0.1416;-0.2516;
1276.5000;0.1433;-0.2540;
1276.8000;0.1530;-0.2276;
1277.1000;0.1425;-0.2564;
1277.4000;0.1457;-0.2468;
1277.7000;0.1465;-0.2516;
1278.0000;0.1327;-0.2803;
1278.3000;0.1416;-0.2540;
1278.6000;0.1457;-0.2444;
1278.9000;0.1441;-0.2516;
1279.2000;0.1433;-0.2540;
1279.5000;0.1416;-0.2492;
1279.8000;0.1449;-0.2492;
1280.1000;0.1433;-0.2468;
1280.4000;0.1449;-0.2396;
1280.7000;0.1465;-0.2372;
1281.0000;0.1416;-0.2516;
1281.3000;0.1449;-0.2420;
1281.6000;0.1433;-0.2492;
1281.9000;0.1441;-0.2396;
1282.2000;0.1425;-0.2444;
1282.5000;0.1449;-0.2420;
1282.8000;0.1368;-0.2564;
1283.1000;0.1433;-0.2372;
1283.4000;0.1473;-0.2276;
1283.7000;0.1441;-0.2300;
1284.0000;0.1294;-0.2731;
1284.3000;0.1441;-0.2348;
1284.6000;0.1408;-0.2420;
1284.9000;0.1441;-0.2372;
1285.2000;0.1425;-0.2420;
1285.5000;0.1433;-0.2348;
1285.8000;0.1433;-0.2324;
1286.1000;0.1441;-0.2252;
1286.4000;0.1416;-0.2348;
1286.7000;0.1416;-0.2372;
1287.0000;0.1441;-0.2276;
1287.3000;0.1441;-0.2444;
1287.6000;0.1416;-0.2444;
1287.9000;0.1457;-0.2348;
1288.2000;0.1441;-0.2540;
1288.5000;0.1498;-0.2396;
1288.8000;0.1416;-0.2564;
1289.1000;0.1433;-0.2612;
1289.4000;0.1449;-0.2540;
1289.7000;0.1433;-0.2444;
1290.0000;0.1441;-0.2372;
1290.3000;0.1392;-0.2396;
1290.6000;0.1457;-0.2228;
1290.9000;0.1392;-0.2396;
1291.2000;0.1425;-0.2252;
1291.5000;0.1441;-0.2228;
1291.8000;0.1433;-0.2228;
1292.1000;0.1498;-0.2108;
1292.4000;0.1457;-0.2348;
1292.7000;0.1384;-0.2564;
1293.0000;0.1457;-0.2516;
1293.3000;0.1457;-0.2468;
1293.6000;0.1408;-0.2660;
1293.9000;0.1449;-0.2540;
1294.2000;0.1498;-0.2492;
1294.5000;0.1433;-0.2516;
1294.8000;0.1457;-0.2468;
1295.1000;0.1514;-0.2180;
1295.4000;0.1465;-0.2300;
1295.7000;0.1351;-0.2636;
1296.0000;0.1449;-0.2372;
1296.3000;0.1441;-0.2396;
1296.6000;0.1408;-0.2444;
1296.9000;0.1416;-0.2564;
1297.2000;0.1465;-0.2468;
1297.5000;0.1449;-0.2444;
1297.8000;0.1376;-0.2636;
1298.1000;0.1449;-0.2468;
1298.4000;0.1449;-0.2396;
1298.7000;0.1425;-0.2492;
1299.0000;0.1457;-0.2396;
1299.3000;0.1433;-0.2420;
1299.6000;0.1457;-0.2324;
1299.9000;0.1465;-0.2396;
1300.2000;0.1425;-0.2516;
1300.5000;0.1441;-0.2516;
1300.8000;0.1449;-0.2516;
1301.1000;0.1392;-0.2588;
1301.4000;0.1441;-0.2396;
1301.7000;0.1473;-0.2348;
1302.0000;0.1433;-0.2420;
1302.3000;0.1433;-0.2300;
1302.6000;0.1441;-0.2276;
1302.9000;0.1457;-0.2276;
1303.2000;0.1400;-0.2444;
1303.5000;0.1449;-0.2348;
1303.8000;0.1376;-0.2516;
1304.1000;0.1441;-0.2372;
1304.4000;0.1425;-0.2348;
1304.7000;0.1441;-0.2156;
1305.0000;0.1416;-0.2252;
1305.3000;0.1416;-0.2252;
1305.6000;0.1465;-0.2180;
1305.9000;0.1433;-0.2372;
1306.2000;0.1449;-0.2348;
1306.5000;0.1433;-0.2420;
1306.8000;0.1425;-0.2372;
1307.1000;0.1425;-0.2348;
1307.4000;0.1416;-0.2300;
1307.7000;0.1433;-0.2204;
1308.0000;0.1449;-0.2204;
1308.3000;0.1457;-0.2156;
1308.6000;0.1433;-0.2180;
1308.9000;0.1416;-0.2180;
1309.2000;0.1441;-0.2228;
1309.5000;0.1441;-0.2300;
1309.8000;0.1416;-0.2276;
1310.1000;0.1441;-0.2276;
1310.4000;0.1416;-0.2348;
1310.7000;0.1441;-0.2300;
1311.0000;0.1433;-0.2324;
1311.3000;0.1311;-0.2588;
1311.6000;0.1433;-0.2300;
1311.9000;0.1441;-0.2252;
1312.2000;0.1522;-0.2108;
1312.5000;0.1425;-0.2492;
1312.8000;0.1433;-0.2444;
1313.1000;0.1522;-0.2252;
1313.4000;0.1441;-0.2444;
1313.7000;0.1457;-0.2420;
1314.0000;0.1449;-0.2396;
1314.3000;0.1457;-0.2372;
1314.6000;0.1408;-0.2492;
1314.9000;0.1416;-0.2444;
1315.2000;0.1465;-0.2324;
1315.5000;0.1465;-0.2276;
1315.8000;0.1433;-0.2396;
1316.1000;0.1433;-0.2348;
1316.4000;0.1441;-0.2276;
1316.7000;0.1449;-0.2204;
1317.0000;0.1433;-0.2180;
1317.3000;0.1433;-0.2132;
1317.6000;0.1425;-0.2180;
1317.9000;0.1416;-0.2300;
1318.2000;0.1449;-0.2348;
1318.5000;0.1465;-0.2228;
1318.8000;0.1449;-0.2348;
1319.1000;0.1449;-0.2396;
1319.4000;0.1506;-0.2324;
1319.7000;0.1449;-0.2564;
1320.0000;0.1449;-0.2540;
1320.3000;0.1376;-0.2612;
1320.6000;0.1457;-0.2468;
1320.9000;0.1498;-0.2300;
1321.2000;0.1433;-0.2540;
1321.5000;0.1425;-0.2636;
1321.8000;0.1465;-0.2444;
1322.1000;0.1441;-0.2516;
1322.4000;0.1441;-0.2564;
1322.7000;0.1514;-0.2396;
1323.0000;0.1400;-0.2660;
1323.3000;0.1416;-0.2588;
1323.6000;0.1433;-0.2588;
1323.9000;0.1465;-0.2516;
1324.2000;0.1555;-0.2348;
1324.5000;0.1425;-0.2588;
1324.8000;0.1449;-0.2492;
1325.1000;0.1457;-0.2420;
1325.4000;0.1416;-0.2468;
1325.7000;0.1481;-0.2228;
1326.0000;0.1441;-0.2348;
1326.3000;0.1351;-0.2684;
1326.6000;0.1457;-0.2420;
1326.9000;0.1433;-0.2492;
1327.2000;0.1425;-0.2420;
1327.5000;0.1425;-0.2324;
1327.8000;0.1473;-0.2204;
1328.1000;0.1465;-0.2348;
1328.4000;0.1449;-0.2492;
1328.7000;0.1457;-0.2516;
1329.0000;0.1433;-0.2564;
1329.3000;0.1441;-0.2588;
1329.6000;0.1433;-0.2612;
1329.9000;0.1449;-0.2492;
1330.2000;0.1433;-0.2492;
1330.5000;0.1457;-0.2396;
1330.8000;0.1416;-0.2516;
1331.1000;0.1441;-0.2444;
1331.4000;0.1449;-0.2468;
1331.7000;0.1441;-0.2492;
1332.0000;0.1441;-0.2468;
1332.3000;0.1465;-0.2420;
1332.6000;0.1425;-0.2468;
1332.9000;0.1335;-0.2684;
1333.2000;0.1441;-0.2276;
1333.5000;0.1441;-0.2276;
1333.8000;0.1441;-0.2252;
1334.1000;0.1457;-0.2204;
1334.4000;0.1449;-0.2324;
1334.7000;0.1416;-0.2468;
1335.0000;0.1498;-0.2108;
1335.3000;0.1449;-0.2204;
1335.6000;0.1433;-0.2276;
1335.9000;0.1425;-0.2300;
1336.2000;0.1408;-0.2396;
1336.5000;0.1433;-0.2348;
1336.8000;0.1441;-0.2396;
1337.1000;0.1416;-0.2420;
1337.4000;0.1425;-0.2396;
1337.7000;0.1376;-0.2612;
1338.0000;0.1425;-0.2420;
1338.3000;0.1425;-0.2420;
1338.6000;0.1441;-0.2252;
1338.9000;0.1425;-0.2372;
1339.2000;0.1416;-0.2468;
1339.5000;0.1498;-0.2348;
1339.8000;0.1441;-0.2396;
1340.1000;0.1457;-0.2372;
1340.4000;0.1498;-0.2204;
1340.7000;0.1441;-0.2276;
1341.0000;0.1433;-0.2420;
1341.3000;0.1449;-0.2396;
1341.6000;0.1433;-0.2396;
1341.9000;0.1425;-0.2396;
1342.2000;0.1441;-0.2372;
1342.5000;0.1457;-0.2348;
1342.8000;0.1433;-0.2444;
1343.1000;0.1449;-0.2516;
1343.4000;0.1416;-0.2588;
1343.7000;0.1408;-0.2540;
1344.0000;0.1425;-0.2468;
1344.3000;0.1449;-0.2348;
1344.6000;0.1433;-0.2372;
1344.9000;0.1433;-0.2324;
1345.2000;0.1441;-0.2276;
1345.5000;0.1449;-0.2324;
1345.8000;0.1441;-0.2324;
1346.1000;0.1400;-0.2468;
1346.4000;0.1425;-0.2420;
1346.7000;0.1473;-0.2276;
1347.0000;0.1490;-0.2180;
1347.3000;0.1376;-0.2588;
1347.6000;0.1473;-0.2300;
1347.9000;0.1441;-0.2348;
1348.2000;0.1351;-0.2684;
1348.5000;0.1433;-0.2444;
1348.8000;0.1457;-0.2372;
1349.1000;0.1416;-0.2444;
1349.4000;0.1449;-0.2372;
1349.7000;0.1400;-0.2540;
1350.0000;0.1416;-0.2516;
1350.3000;0.1425;-0.2588;
1350.6000;0.1376;-0.2707;
1350.9000;0.1449;-0.2564;
1351.2000;0.1441;-0.2588;
1351.5000;0.1416;-0.2660;
1351.8000;0.1449;-0.2516;
1352.1000;0.1473;-0.2540;
1352.4000;0.1457;-0.2564;
1352.7000;0.1441;-0.2588;
1353.0000;0.1441;-0.2516;
1353.3000;0.1425;-0.2564;
1353.6000;0.1416;-0.2540;
1353.9000;0.1441;-0.2492;
1354.2000;0.1465;-0.2492;
1354.5000;0.1441;-0.2612;
1354.8000;0.1457;-0.2588;
1355.1000;0.1457;-0.2564;
1355.4000;0.1425;-0.2612;
1355.7000;0.1433;-0.2612;
1356.0000;0.1457;-0.2516;
1356.3000;0.1408;-0.2564;
1356.6000;0.1425;-0.2444;
1356.9000;0.1449;-0.2396;
1357.2000;0.1449;-0.2420;
1357.5000;0.1441;-0.2492;
1357.8000;0.1416;-0.2588;
1358.1000;0.1449;-0.2540;
1358.4000;0.1514;-0.2444;
1358.7000;0.1433;-0.2636;
1359.0000;0.1408;-0.2660;
1359.3000;0.1433;-0.2492;
1359.6000;0.1449;-0.2396;
1359.9000;0.1425;-0.2372;
1360.2000;0.1433;-0.2396;
1360.5000;0.1465;-0.2276;
1360.8000;0.1441;-0.2420;
1361.1000;0.1425;-0.2444;
1361.4000;0.1449;-0.2396;
1361.7000;0.1457;-0.2420;
1362.0000;0.1457;-0.2444;
1362.3000;0.1449;-0.2588;
1362.6000;0.1425;-0.2588;
1362.9000;0.1449;-0.2540;
1363.2000;0.1441;-0.2516;
1363.5000;0.1522;-0.2276;
1363.8000;0.1400;-0.2516;
1364.1000;0.1441;-0.2444;
1364.4000;0.1441;-0.2396;
1364.7000;0.1433;-0.2396;
1365.0000;0.1441;-0.2324;
1365.3000;0.1441;-0.2324;
1365.6000;0.1449;-0.2252;
1365.9000;0.1441;-0.2300;
1366.2000;0.1376;-0.2540;
1366.5000;0.1449;-0.2444;
1366.8000;0.1449;-0.2420;
1367.1000;0.1441;-0.2492;
1367.4000;0.1449;-0.2444;
1367.7000;0.1400;-0.2612;
1368.0000;0.1408;-0.2660;
1368.3000;0.1441;-0.2564;
1368.6000;0.1441;-0.2588;
1368.9000;0.1465;-0.2468;
1369.2000;0.1425;-0.2516;
1369.5000;0.1408;-0.2540;
1369.8000;0.1441;-0.2564;
1370.1000;0.1449;-0.2564;
1370.4000;0.1441;-0.2588;
1370.7000;0.1327;-0.2827;
1371.0000;0.1392;-0.2684;
1371.3000;0.1433;-0.2540;
1371.6000;0.1473;-0.2444;
1371.9000;0.1416;-0.2420;
1372.2000;0.1384;-0.2516;
1372.5000;0.1449;-0.2300;
1372.8000;0.1490;-0.2228;
1373.1000;0.1359;-0.2540;
1373.4000;0.1433;-0.2444;
1373.7000;0.1376;-0.2660;
1374.0000;0.1433;-0.2444;
1374.3000;0.1408;-0.2420;
1374.6000;0.1416;-0.2300;
1374.9000;0.1433;-0.2252;
1375.2000;0.1449;-0.2228;
1375.5000;0.1490;-0.2204;
1375.8000;0.1433;-0.2276;
1376.1000;0.1433;-0.2252;
1376.4000;0.1441;-0.2276;
1376.7000;0.1416;-0.2228;
1377.0000;0.1425;-0.2228;
1377.3000;0.1449;-0.2252;
1377.6000;0.1481;-0.2204;
1377.9000;0.1433;-0.2348;
1378.2000;0.1457;-0.2372;
1378.5000;0.1433;-0.2396;
1378.8000;0.1465;-0.2300;
1379.1000;0.1465;-0.2396;
1379.4000;0.1441;-0.2444;
1379.7000;0.1449;-0.2420;
1380.0000;0.1441;-0.2516;
1380.3000;0.1449;-0.2516;
1380.6000;0.1457;-0.2492;
1380.9000;0.1425;-0.2492;
1381.2000;0.1425;-0.2492;
1381.5000;0.1433;-0.2420;
1381.8000;0.1425;-0.2468;
1382.1000;0.1490;-0.2300;
1382.4000;0.1490;-0.2276;
1382.7000;0.1522;-0.2156;
1383.0000;0.1359;-0.2564;
1383.3000;0.1441;-0.2348;
1383.6000;0.1457;-0.2300;
1383.9000;0.1481;-0.2252;
1384.2000;0.1473;-0.2300;
1384.5000;0.1416;-0.2420;
1384.8000;0.1555;-0.2013;
1385.1000;0.1441;-0.2396;
1385.4000;0.1506;-0.2324;
1385.7000;0.1522;-0.2324;
1386.0000;0.1433;-0.2492;
1386.3000;0.1457;-0.2516;
1386.6000;0.1449;-0.2420;
1386.9000;0.1286;-0.2875;
1387.2000;0.1408;-0.2612;
1387.5000;0.1425;-0.2516;
1387.8000;0.1400;-0.2492;
1388.1000;0.1311;-0.2707;
1388.4000;0.1441;-0.2372;
1388.7000;0.1416;-0.2468;
1389.0000;0.1457;-0.2372;
1389.3000;0.1473;-0.2300;
1389.6000;0.1457;-0.2348;
1389.9000;0.1441;-0.2420;
1390.2000;0.1376;-0.2540;
1390.5000;0.1473;-0.2324;
1390.8000;0.1441;-0.2420;
1391.1000;0.1449;-0.2396;
1391.4000;0.1441;-0.2444;
1391.7000;0.1490;-0.2348;
1392.0000;0.1457;-0.2540;
1392.3000;0.1449;-0.2516;
1392.6000;0.1416;-0.2588;
1392.9000;0.1449;-0.2444;
1393.2000;0.1425;-0.2396;
1393.5000;0.1449;-0.2372;
1393.8000;0.1441;-0.2492;
1394.1000;0.1481;-0.2420;
1394.4000;0.1449;-0.2564;
1394.7000;0.1433;-0.2612;
1395.0000;0.1425;-0.2612;
1395.3000;0.1449;-0.2468;
1395.6000;0.1441;-0.2492;
1395.9000;0.1498;-0.2276;
1396.2000;0.1490;-0.2300;
1396.5000;0.1441;-0.2420;
1396.8000;0.1425;-0.2396;
1397.1000;0.1457;-0.2300;
1397.4000;0.1327;-0.2588;
1397.7000;0.1425;-0.2372;
1398.0000;0.1433;-0.2372;
1398.3000;0.1400;-0.2468;
1398.6000;0.1449;-0.2324;
1398.9000;0.1571;-0.1941;
1399.2000;0.1384;-0.2372;
1399.5000;0.1457;-0.2228;
1399.8000;0.1457;-0.2228;
