time/ms;Fluo/V;P700 deltaI/I x10³;
-199.8000;0.1522;-0.1701;
-199.5000;0.1538;-0.1605;
-199.2000;0.1522;-0.1677;
-198.9000;0.1538;-0.1749;
-198.6000;0.1547;-0.1749;
-198.3000;0.1538;-0.1677;
-198.0000;0.1563;-0.1581;
-197.7000;0.1538;-0.1653;
-197.4000;0.1555;-0.1701;
-197.1000;0.1530;-0.1725;
-196.8000;0.1530;-0.1797;
-196.5000;0.1530;-0.1845;
-196.2000;0.1522;-0.1797;
-195.9000;0.1530;-0.1749;
-195.6000;0.1547;-0.1773;
-195.3000;0.1530;-0.1773;
-195.0000;0.1530;-0.1845;
-194.7000;0.1538;-0.1845;
-194.4000;0.1538;-0.1725;
-194.1000;0.1563;-0.1653;
-193.8000;0.1547;-0.1725;
-193.5000;0.1530;-0.1725;
-193.2000;0.1644;-0.1366;
-192.9000;0.1530;-0.1581;
-192.6000;0.1538;-0.1677;
-192.3000;0.1547;-0.1653;
-192.0000;0.1538;-0.1725;
-191.7000;0.1538;-0.1725;
-191.4000;0.1547;-0.1701;
-191.1000;0.1530;-0.1749;
-190.8000;0.1530;-0.1773;
-190.5000;0.1530;-0.1725;
-190.2000;0.1538;-0.1701;
-189.9000;0.1547;-0.1701;
-189.6000;0.1530;-0.1773;
-189.3000;0.1514;-0.1797;
-189.0000;0.1555;-0.1725;
-188.7000;0.1538;-0.1701;
-188.4000;0.1514;-0.1701;
-188.1000;0.1530;-0.1629;
-187.8000;0.1530;-0.1557;
-187.5000;0.1538;-0.1581;
-187.2000;0.1514;-0.1677;
-186.9000;0.1538;-0.1653;
-186.6000;0.1555;-0.1581;
-186.3000;0.1538;-0.1557;
-186.0000;0.1506;-0.1749;
-185.7000;0.1538;-0.1725;
-185.4000;0.1538;-0.1797;
-185.1000;0.1522;-0.1797;
-184.8000;0.1636;-0.1486;
-184.5000;0.1538;-0.1845;
-184.2000;0.1522;-0.1893;
-183.9000;0.1538;-0.1845;
-183.6000;0.1538;-0.1797;
-183.3000;0.1538;-0.1845;
-183.0000;0.1465;-0.1989;
-182.7000;0.1530;-0.1749;
-182.4000;0.1547;-0.1725;
-182.1000;0.1595;-0.1581;
-181.8000;0.1538;-0.1629;
-181.5000;0.1547;-0.1653;
-181.2000;0.1563;-0.1653;
-180.9000;0.1555;-0.1653;
-180.6000;0.1530;-0.1653;
-180.3000;0.1481;-0.1797;
-180.0000;0.1579;-0.1605;
-179.7000;0.1538;-0.1749;
-179.4000;0.1538;-0.1797;
-179.1000;0.1612;-0.1533;
-178.8000;0.1425;-0.1965;
-178.5000;0.1530;-0.1653;
-178.2000;0.1555;-0.1701;
-177.9000;0.1538;-0.1701;
-177.6000;0.1538;-0.1701;
-177.3000;0.1530;-0.1701;
-177.0000;0.1538;-0.1701;
-176.7000;0.1416;-0.1989;
-176.4000;0.1538;-0.1749;
-176.1000;0.1677;-0.1342;
-175.8000;0.1555;-0.1653;
-175.5000;0.1530;-0.1605;
-175.2000;0.1538;-0.1605;
-174.9000;0.1522;-0.1629;
-174.6000;0.1530;-0.1653;
-174.3000;0.1538;-0.1773;
-174.0000;0.1498;-0.1821;
-173.7000;0.1538;-0.1749;
-173.4000;0.1465;-0.1941;
-173.1000;0.1522;-0.1821;
-172.8000;0.1538;-0.1701;
-172.5000;0.1465;-0.1893;
-172.2000;0.1441;-0.1917;
-171.9000;0.1530;-0.1605;
-171.6000;0.1538;-0.1581;
-171.3000;0.1465;-0.1821;
-171.0000;0.1449;-0.1869;
-170.7000;0.1547;-0.1653;
-170.4000;0.1481;-0.1821;
-170.1000;0.1547;-0.1605;
-169.8000;0.1473;-0.1821;
-169.5000;0.1530;-0.1701;
-169.2000;0.1481;-0.1869;
-168.9000;0.1473;-0.1845;
-168.6000;0.1587;-0.1509;
-168.3000;0.1530;-0.1629;
-168.0000;0.1547;-0.1581;
-167.7000;0.1522;-0.1509;
-167.4000;0.1514;-0.1557;
-167.1000;0.1514;-0.1557;
-166.8000;0.1538;-0.1486;
-166.5000;0.1522;-0.1533;
-166.2000;0.1538;-0.1533;
-165.9000;0.1530;-0.1533;
-165.6000;0.1555;-0.1462;
-165.3000;0.1538;-0.1557;
-165.0000;0.1530;-0.1605;
-164.7000;0.1547;-0.1509;
-164.4000;0.1530;-0.1533;
-164.1000;0.1538;-0.1509;
-163.8000;0.1530;-0.1557;
-163.5000;0.1530;-0.1462;
-163.2000;0.1522;-0.1509;
-162.9000;0.1522;-0.1533;
-162.6000;0.1465;-0.1701;
-162.3000;0.1449;-0.1749;
-162.0000;0.1514;-0.1629;
-161.7000;0.1555;-0.1438;
-161.4000;0.1530;-0.1533;
-161.1000;0.1530;-0.1533;
-160.8000;0.1522;-0.1533;
-160.5000;0.1604;-0.1270;
-160.2000;0.1538;-0.1414;
-159.9000;0.1538;-0.1390;
-159.6000;0.1579;-0.1270;
-159.3000;0.1563;-0.1270;
-159.0000;0.1555;-0.1270;
-158.7000;0.1538;-0.1318;
-158.4000;0.1530;-0.1390;
-158.1000;0.1547;-0.1390;
-157.8000;0.1547;-0.1462;
-157.5000;0.1547;-0.1581;
-157.2000;0.1555;-0.1509;
-156.9000;0.1538;-0.1653;
-156.6000;0.1530;-0.1677;
-156.3000;0.1555;-0.1605;
-156.0000;0.1538;-0.1629;
-155.7000;0.1530;-0.1701;
-155.4000;0.1538;-0.1701;
-155.1000;0.1571;-0.1605;
-154.8000;0.1530;-0.1653;
-154.5000;0.1538;-0.1557;
-154.2000;0.1538;-0.1605;
-153.9000;0.1563;-0.1557;
-153.6000;0.1530;-0.1605;
-153.3000;0.1522;-0.1605;
-153.0000;0.1506;-0.1677;
-152.7000;0.1555;-0.1605;
-152.4000;0.1506;-0.1749;
-152.1000;0.1530;-0.1677;
-151.8000;0.1620;-0.1486;
-151.5000;0.1538;-0.1629;
-151.2000;0.1522;-0.1653;
-150.9000;0.1465;-0.1749;
-150.6000;0.1538;-0.1581;
-150.3000;0.1538;-0.1581;
-150.0000;0.1547;-0.1509;
-149.7000;0.1522;-0.1557;
-149.4000;0.1538;-0.1605;
-149.1000;0.1522;-0.1677;
-148.8000;0.1538;-0.1797;
-148.5000;0.1514;-0.1773;
-148.2000;0.1571;-0.1605;
-147.9000;0.1530;-0.1677;
-147.6000;0.1547;-0.1653;
-147.3000;0.1547;-0.1605;
-147.0000;0.1555;-0.1629;
-146.7000;0.1661;-0.1342;
-146.4000;0.1538;-0.1653;
-146.1000;0.1538;-0.1677;
-145.8000;0.1522;-0.1845;
-145.5000;0.1538;-0.1893;
-145.2000;0.1547;-0.1845;
-144.9000;0.1636;-0.1581;
-144.6000;0.1538;-0.1845;
-144.3000;0.1547;-0.1821;
-144.0000;0.1563;-0.1773;
-143.7000;0.1530;-0.1941;
-143.4000;0.1538;-0.1965;
-143.1000;0.1522;-0.2037;
-142.8000;0.1538;-0.1893;
-142.5000;0.1547;-0.1821;
-142.2000;0.1433;-0.2132;
-141.9000;0.1555;-0.1821;
-141.6000;0.1530;-0.1917;
-141.3000;0.1538;-0.1917;
-141.0000;0.1481;-0.2085;
-140.7000;0.1522;-0.1965;
-140.4000;0.1547;-0.1893;
-140.1000;0.1538;-0.1893;
-139.8000;0.1538;-0.1893;
-139.5000;0.1514;-0.1917;
-139.2000;0.1522;-0.1917;
-138.9000;0.1547;-0.1845;
-138.6000;0.1473;-0.1989;
-138.3000;0.1538;-0.1773;
-138.0000;0.1555;-0.1749;
-137.7000;0.1538;-0.1773;
-137.4000;0.1538;-0.1701;
-137.1000;0.1547;-0.1749;
-136.8000;0.1555;-0.1725;
-136.5000;0.1530;-0.1677;
-136.2000;0.1538;-0.1677;
-135.9000;0.1538;-0.1725;
-135.6000;0.1547;-0.1629;
-135.3000;0.1514;-0.1821;
-135.0000;0.1563;-0.1677;
-134.7000;0.1571;-0.1773;
-134.4000;0.1530;-0.1917;
-134.1000;0.1628;-0.1701;
-133.8000;0.1563;-0.1845;
-133.5000;0.1563;-0.1797;
-133.2000;0.1555;-0.1797;
-132.9000;0.1547;-0.1749;
-132.6000;0.1498;-0.1797;
-132.3000;0.1547;-0.1701;
-132.0000;0.1538;-0.1773;
-131.7000;0.1522;-0.1821;
-131.4000;0.1530;-0.1749;
-131.1000;0.1538;-0.1701;
-130.8000;0.1473;-0.1797;
-130.5000;0.1579;-0.1486;
-130.2000;0.1514;-0.1605;
-129.9000;0.1506;-0.1677;
-129.6000;0.1514;-0.1653;
-129.3000;0.1522;-0.1533;
-129.0000;0.1522;-0.1581;
-128.7000;0.1530;-0.1581;
-128.4000;0.1563;-0.1414;
-128.1000;0.1530;-0.1509;
-127.8000;0.1530;-0.1438;
-127.5000;0.1538;-0.1486;
-127.2000;0.1514;-0.1533;
-126.9000;0.1538;-0.1486;
-126.6000;0.1522;-0.1581;
-126.3000;0.1538;-0.1653;
-126.0000;0.1530;-0.1653;
-125.7000;0.1547;-0.1773;
-125.4000;0.1490;-0.1989;
-125.1000;0.1538;-0.1821;
-124.8000;0.1514;-0.1797;
-124.5000;0.1522;-0.1797;
-124.2000;0.1514;-0.1773;
-123.9000;0.1522;-0.1749;
-123.6000;0.1530;-0.1773;
-123.3000;0.1522;-0.1797;
-123.0000;0.1595;-0.1605;
-122.7000;0.1538;-0.1749;
-122.4000;0.1530;-0.1749;
-122.1000;0.1490;-0.1821;
-121.8000;0.1506;-0.1797;
-121.5000;0.1530;-0.1773;
-121.2000;0.1522;-0.1725;
-120.9000;0.1522;-0.1605;
-120.6000;0.1555;-0.1557;
-120.3000;0.1555;-0.1653;
-120.0000;0.1522;-0.1677;
-119.7000;0.1571;-0.1486;
-119.4000;0.1547;-0.1653;
-119.1000;0.1530;-0.1701;
-118.8000;0.1514;-0.1677;
-118.5000;0.1522;-0.1701;
-118.2000;0.1522;-0.1629;
-117.9000;0.1538;-0.1605;
-117.6000;0.1522;-0.1749;
-117.3000;0.1628;-0.1414;
-117.0000;0.1555;-0.1605;
-116.7000;0.1538;-0.1725;
-116.4000;0.1547;-0.1701;
-116.1000;0.1563;-0.1701;
-115.8000;0.1514;-0.1821;
-115.5000;0.1530;-0.1749;
-115.2000;0.1522;-0.1749;
-114.9000;0.1538;-0.1749;
-114.6000;0.1538;-0.1653;
-114.3000;0.1530;-0.1701;
-114.0000;0.1571;-0.1629;
-113.7000;0.1473;-0.1821;
-113.4000;0.1498;-0.1797;
-113.1000;0.1547;-0.1701;
-112.8000;0.1530;-0.1749;
-112.5000;0.1522;-0.1845;
-112.2000;0.1538;-0.1821;
-111.9000;0.1587;-0.1653;
-111.6000;0.1522;-0.1821;
-111.3000;0.1538;-0.1845;
-111.0000;0.1587;-0.1653;
-110.7000;0.1522;-0.1773;
-110.4000;0.1530;-0.1725;
-110.1000;0.1473;-0.1893;
-109.8000;0.1547;-0.1749;
-109.5000;0.1522;-0.1941;
-109.2000;0.1628;-0.1629;
-108.9000;0.1555;-0.1845;
-108.6000;0.1530;-0.1869;
-108.3000;0.1547;-0.1797;
-108.0000;0.1547;-0.1773;
-107.7000;0.1538;-0.1821;
-107.4000;0.1490;-0.1989;
-107.1000;0.1563;-0.1797;
-106.8000;0.1563;-0.1749;
-106.5000;0.1612;-0.1581;
-106.2000;0.1555;-0.1749;
-105.9000;0.1473;-0.1917;
-105.6000;0.1587;-0.1605;
-105.3000;0.1547;-0.1653;
-105.0000;0.1547;-0.1629;
-104.7000;0.1522;-0.1509;
-104.4000;0.1571;-0.1414;
-104.1000;0.1530;-0.1653;
-103.8000;0.1595;-0.1509;
-103.5000;0.1465;-0.1869;
-103.2000;0.1522;-0.1653;
-102.9000;0.1547;-0.1605;
-102.6000;0.1538;-0.1629;
-102.3000;0.1522;-0.1653;
-102.0000;0.1514;-0.1653;
-101.7000;0.1547;-0.1629;
-101.4000;0.1522;-0.1749;
-101.1000;0.1530;-0.1677;
-100.8000;0.1481;-0.1869;
-100.5000;0.1514;-0.1773;
-100.2000;0.1538;-0.1773;
-99.9000;0.1538;-0.1749;
-99.6000;0.1530;-0.1821;
-99.3000;0.1538;-0.1845;
-99.0000;0.1522;-0.1869;
-98.7000;0.1563;-0.1773;
-98.4000;0.1530;-0.1845;
-98.1000;0.1522;-0.1845;
-97.8000;0.1538;-0.1821;
-97.5000;0.1514;-0.1893;
-97.2000;0.1538;-0.1869;
-96.9000;0.1579;-0.1773;
-96.6000;0.1514;-0.1869;
-96.3000;0.1547;-0.1725;
-96.0000;0.1530;-0.1749;
-95.7000;0.1547;-0.1629;
-95.4000;0.1522;-0.1701;
-95.1000;0.1547;-0.1749;
-94.8000;0.1498;-0.1893;
-94.5000;0.1530;-0.1893;
-94.2000;0.1530;-0.1869;
-93.9000;0.1514;-0.1965;
-93.6000;0.1530;-0.1917;
-93.3000;0.1595;-0.1749;
-93.0000;0.1498;-0.1965;
-92.7000;0.1522;-0.1869;
-92.4000;0.1514;-0.1869;
-92.1000;0.1538;-0.1821;
-91.8000;0.1538;-0.1797;
-91.5000;0.1538;-0.1773;
-91.2000;0.1449;-0.2013;
-90.9000;0.1579;-0.1677;
-90.6000;0.1457;-0.1989;
-90.3000;0.1620;-0.1533;
-90.0000;0.1433;-0.2061;
-89.7000;0.1481;-0.1917;
-89.4000;0.1604;-0.1677;
-89.1000;0.1604;-0.1653;
-88.8000;0.1530;-0.1773;
-88.5000;0.1547;-0.1821;
-88.2000;0.1547;-0.1773;
-87.9000;0.1530;-0.1869;
-87.6000;0.1514;-0.1893;
-87.3000;0.1522;-0.1797;
-87.0000;0.1433;-0.2085;
-86.7000;0.1530;-0.1893;
-86.4000;0.1506;-0.1941;
-86.1000;0.1555;-0.1869;
-85.8000;0.1555;-0.1869;
-85.5000;0.1538;-0.1773;
-85.2000;0.1538;-0.1701;
-84.9000;0.1571;-0.1629;
-84.6000;0.1563;-0.1677;
-84.3000;0.1547;-0.1725;
-84.0000;0.1547;-0.1773;
-83.7000;0.1604;-0.1605;
-83.4000;0.1522;-0.1773;
-83.1000;0.1522;-0.1821;
-82.8000;0.1563;-0.1773;
-82.5000;0.1514;-0.1941;
-82.2000;0.1522;-0.1821;
-81.9000;0.1498;-0.1821;
-81.6000;0.1522;-0.1725;
-81.3000;0.1538;-0.1677;
-81.0000;0.1514;-0.1701;
-80.7000;0.1522;-0.1725;
-80.4000;0.1522;-0.1725;
-80.1000;0.1547;-0.1701;
-79.8000;0.1522;-0.1773;
-79.5000;0.1555;-0.1773;
-79.2000;0.1563;-0.1749;
-78.9000;0.1595;-0.1653;
-78.6000;0.1522;-0.1773;
-78.3000;0.1538;-0.1677;
-78.0000;0.1506;-0.1677;
-77.7000;0.1522;-0.1701;
-77.4000;0.1522;-0.1797;
-77.1000;0.1538;-0.1797;
-76.8000;0.1547;-0.1773;
-76.5000;0.1538;-0.1821;
-76.2000;0.1514;-0.1821;
-75.9000;0.1538;-0.1725;
-75.6000;0.1563;-0.1629;
-75.3000;0.1433;-0.1989;
-75.0000;0.1522;-0.1773;
-74.7000;0.1612;-0.1557;
-74.4000;0.1547;-0.1701;
-74.1000;0.1538;-0.1845;
-73.8000;0.1563;-0.1629;
-73.5000;0.1538;-0.1677;
-73.2000;0.1530;-0.1629;
-72.9000;0.1547;-0.1605;
-72.6000;0.1514;-0.1677;
-72.3000;0.1530;-0.1533;
-72.0000;0.1530;-0.1581;
-71.7000;0.1538;-0.1629;
-71.4000;0.1555;-0.1701;
-71.1000;0.1547;-0.1749;
-70.8000;0.1571;-0.1533;
-70.5000;0.1563;-0.1557;
-70.2000;0.1555;-0.1557;
-69.9000;0.1538;-0.1581;
-69.6000;0.1579;-0.1462;
-69.3000;0.1547;-0.1605;
-69.0000;0.1555;-0.1581;
-68.7000;0.1449;-0.1869;
-68.4000;0.1612;-0.1414;
-68.1000;0.1530;-0.1725;
-67.8000;0.1538;-0.1677;
-67.5000;0.1530;-0.1725;
-67.2000;0.1530;-0.1677;
-66.9000;0.1538;-0.1653;
-66.6000;0.1547;-0.1581;
-66.3000;0.1490;-0.1677;
-66.0000;0.1522;-0.1557;
-65.7000;0.1522;-0.1581;
-65.4000;0.1506;-0.1653;
-65.1000;0.1506;-0.1677;
-64.8000;0.1530;-0.1653;
-64.5000;0.1530;-0.1701;
-64.2000;0.1547;-0.1677;
-63.9000;0.1538;-0.1773;
-63.6000;0.1555;-0.1725;
-63.3000;0.1514;-0.1773;
-63.0000;0.1547;-0.1725;
-62.7000;0.1563;-0.1653;
-62.4000;0.1555;-0.1677;
-62.1000;0.1530;-0.1605;
-61.8000;0.1506;-0.1629;
-61.5000;0.1538;-0.1533;
-61.2000;0.1538;-0.1533;
-60.9000;0.1604;-0.1414;
-60.6000;0.1547;-0.1533;
-60.3000;0.1538;-0.1581;
-60.0000;0.1514;-0.1701;
-59.7000;0.1522;-0.1605;
-59.4000;0.1547;-0.1581;
-59.1000;0.1514;-0.1581;
-58.8000;0.1547;-0.1462;
-58.5000;0.1538;-0.1486;
-58.2000;0.1522;-0.1653;
-57.9000;0.1490;-0.1773;
-57.6000;0.1563;-0.1581;
-57.3000;0.1538;-0.1605;
-57.0000;0.1612;-0.1390;
-56.7000;0.1538;-0.1533;
-56.4000;0.1530;-0.1581;
-56.1000;0.1547;-0.1605;
-55.8000;0.1547;-0.1605;
-55.5000;0.1547;-0.1653;
-55.2000;0.1530;-0.1629;
-54.9000;0.1522;-0.1677;
-54.6000;0.1538;-0.1533;
-54.3000;0.1538;-0.1509;
-54.0000;0.1538;-0.1509;
-53.7000;0.1481;-0.1629;
-53.4000;0.1555;-0.1509;
-53.1000;0.1514;-0.1605;
-52.8000;0.1538;-0.1581;
-52.5000;0.1530;-0.1677;
-52.2000;0.1506;-0.1653;
-51.9000;0.1530;-0.1605;
-51.6000;0.1579;-0.1462;
-51.3000;0.1481;-0.1797;
-51.0000;0.1522;-0.1821;
-50.7000;0.1425;-0.2156;
-50.4000;0.1538;-0.1869;
-50.1000;0.1433;-0.1989;
-49.8000;0.1514;-0.1821;
-49.5000;0.1555;-0.1821;
-49.2000;0.1620;-0.1605;
-48.9000;0.1522;-0.1773;
-48.6000;0.1490;-0.1821;
-48.3000;0.1547;-0.1725;
-48.0000;0.1538;-0.1677;
-47.7000;0.1555;-0.1605;
-47.4000;0.1547;-0.1677;
-47.1000;0.1514;-0.1701;
-46.8000;0.1514;-0.1701;
-46.5000;0.1514;-0.1677;
-46.2000;0.1514;-0.1749;
-45.9000;0.1522;-0.1701;
-45.6000;0.1555;-0.1701;
-45.3000;0.1498;-0.1797;
-45.0000;0.1514;-0.1797;
-44.7000;0.1563;-0.1725;
-44.4000;0.1547;-0.1797;
-44.1000;0.1547;-0.1773;
-43.8000;0.1522;-0.1821;
-43.5000;0.1547;-0.1701;
-43.2000;0.1506;-0.1773;
-42.9000;0.1538;-0.1797;
-42.6000;0.1538;-0.1869;
-42.3000;0.1547;-0.1821;
-42.0000;0.1538;-0.1725;
-41.7000;0.1530;-0.1725;
-41.4000;0.1538;-0.1749;
-41.1000;0.1506;-0.1821;
-40.8000;0.1612;-0.1629;
-40.5000;0.1522;-0.1845;
-40.2000;0.1522;-0.1941;
-39.9000;0.1547;-0.1893;
-39.6000;0.1530;-0.1965;
-39.3000;0.1547;-0.1869;
-39.0000;0.1490;-0.2013;
-38.7000;0.1506;-0.1941;
-38.4000;0.1538;-0.1869;
-38.1000;0.1530;-0.1869;
-37.8000;0.1530;-0.1917;
-37.5000;0.1538;-0.1941;
-37.2000;0.1538;-0.1893;
-36.9000;0.1571;-0.1797;
-36.6000;0.1547;-0.1725;
-36.3000;0.1530;-0.1677;
-36.0000;0.1547;-0.1605;
-35.7000;0.1498;-0.1821;
-35.4000;0.1538;-0.1749;
-35.1000;0.1441;-0.2037;
-34.8000;0.1506;-0.1773;
-34.5000;0.1555;-0.1557;
-34.2000;0.1538;-0.1605;
-33.9000;0.1514;-0.1797;
-33.6000;0.1514;-0.1821;
-33.3000;0.1522;-0.1773;
-33.0000;0.1506;-0.1797;
-32.7000;0.1530;-0.1701;
-32.4000;0.1538;-0.1749;
-32.1000;0.1506;-0.1869;
-31.8000;0.1538;-0.1773;
-31.5000;0.1538;-0.1725;
-31.2000;0.1563;-0.1677;
-30.9000;0.1555;-0.1749;
-30.6000;0.1538;-0.1749;
-30.3000;0.1538;-0.1701;
-30.0000;0.1555;-0.1701;
-29.7000;0.1465;-0.1869;
-29.4000;0.1538;-0.1725;
-29.1000;0.1538;-0.1725;
-28.8000;0.1514;-0.1701;
-28.5000;0.1538;-0.1701;
-28.2000;0.1538;-0.1653;
-27.9000;0.1547;-0.1677;
-27.6000;0.1538;-0.1725;
-27.3000;0.1538;-0.1773;
-27.0000;0.1530;-0.1821;
-26.7000;0.1571;-0.1701;
-26.4000;0.1538;-0.1701;
-26.1000;0.1538;-0.1797;
-25.8000;0.1481;-0.1989;
-25.5000;0.1547;-0.1869;
-25.2000;0.1538;-0.1917;
-24.9000;0.1530;-0.1797;
-24.6000;0.1604;-0.1581;
-24.3000;0.1555;-0.1677;
-24.0000;0.1538;-0.1701;
-23.7000;0.1530;-0.1773;
-23.4000;0.1571;-0.1677;
-23.1000;0.1449;-0.1965;
-22.8000;0.1522;-0.1725;
-22.5000;0.1522;-0.1749;
-22.2000;0.1538;-0.1701;
-21.9000;0.1530;-0.1725;
-21.6000;0.1530;-0.1725;
-21.3000;0.1522;-0.1749;
-21.0000;0.1547;-0.1725;
-20.7000;0.1530;-0.1821;
-20.4000;0.1530;-0.1869;
-20.1000;0.1612;-0.1701;
-19.8000;0.1547;-0.1869;
-19.5000;0.1530;-0.1869;
-19.2000;0.1498;-0.1941;
-18.9000;0.1555;-0.1773;
-18.6000;0.1555;-0.1725;
-18.3000;0.1522;-0.1701;
-18.0000;0.1473;-0.1821;
-17.7000;0.1547;-0.1677;
-17.4000;0.1538;-0.1653;
-17.1000;0.1555;-0.1605;
-16.8000;0.1571;-0.1653;
-16.5000;0.1538;-0.1749;
-16.2000;0.1555;-0.1845;
-15.9000;0.1579;-0.1749;
-15.6000;0.1522;-0.1845;
-15.3000;0.1538;-0.1845;
-15.0000;0.1522;-0.1821;
-14.7000;0.1628;-0.1629;
-14.4000;0.1538;-0.1845;
-14.1000;0.1530;-0.1893;
-13.8000;0.1693;-0.1438;
-13.5000;0.1538;-0.1845;
-13.2000;0.1530;-0.1917;
-12.9000;0.1571;-0.1749;
-12.6000;0.1547;-0.1749;
-12.3000;0.1538;-0.1821;
-12.0000;0.1595;-0.1581;
-11.7000;0.1522;-0.1677;
-11.4000;0.1538;-0.1629;
-11.1000;0.1538;-0.1725;
-10.8000;0.1481;-0.1869;
-10.5000;0.1538;-0.1677;
-10.2000;0.1522;-0.1797;
-9.9000;0.1538;-0.1773;
-9.6000;0.1530;-0.1821;
-9.3000;0.1506;-0.1941;
-9.0000;0.1538;-0.1869;
-8.7000;0.1530;-0.1797;
-8.4000;0.1555;-0.1749;
-8.1000;0.1530;-0.1797;
-7.8000;0.1538;-0.1845;
-7.5000;0.1522;-0.1869;
-7.2000;0.1530;-0.1821;
-6.9000;0.1530;-0.1797;
-6.6000;0.1514;-0.1845;
-6.3000;0.1538;-0.1869;
-6.0000;0.1555;-0.1725;
-5.7000;0.1522;-0.1773;
-5.4000;0.1547;-0.1749;
-5.1000;0.1547;-0.1917;
-4.8000;0.1530;-0.2013;
-4.5000;0.1530;-0.2013;
-4.2000;0.1538;-0.1989;
-3.9000;0.1538;-0.1989;
-3.6000;0.1473;-0.2061;
-3.3000;0.1555;-0.1893;
-3.0000;0.1587;-0.1653;
-2.7000;0.1514;-0.1797;
-2.4000;0.1522;-0.1797;
-2.1000;0.1563;-0.1653;
-1.8000;0.1538;-0.1629;
-1.5000;0.1555;-0.1581;
-1.2000;0.1530;-0.1653;
-0.9000;0.1677;-0.1246;
-0.6000;0.1498;-0.1749;
-0.3000;0.1538;-0.1653;
0.0000;0.1538;-0.1653;
0.3000;0.1571;-0.2180;
0.6000;0.1522;-0.2013;
0.9000;0.1563;-0.1773;
1.2000;0.1538;-0.1605;
1.5000;0.1563;-0.1390;
1.8000;0.1555;-0.1318;
2.1000;0.1563;-0.1150;
2.4000;0.1555;-0.1054;
2.7000;0.1555;-0.0863;
3.0000;0.1620;-0.0623;
3.3000;0.1587;-0.0599;
3.6000;0.1579;-0.0503;
3.9000;0.1555;-0.0551;
4.2000;0.1604;-0.0431;
4.5000;0.1595;-0.0407;
4.8000;0.1579;-0.0455;
5.1000;0.1595;-0.0407;
5.4000;0.1620;-0.0383;
5.7000;0.1547;-0.0647;
6.0000;0.1636;-0.0383;
6.3000;0.1571;-0.0479;
6.6000;0.1571;-0.0431;
6.9000;0.1628;-0.0288;
7.2000;0.1604;-0.0288;
7.5000;0.1571;-0.0359;
7.8000;0.1587;-0.0311;
8.1000;0.1620;-0.0264;
8.4000;0.1571;-0.0407;
8.7000;0.1587;-0.0383;
9.0000;0.1644;-0.0264;
9.3000;0.1587;-0.0311;
9.6000;0.1587;-0.0240;
9.9000;0.1563;-0.0192;
10.2000;0.1563;-0.0311;
10.5000;0.1579;-0.0311;
10.8000;0.1587;-0.0335;
11.1000;0.1612;-0.0240;
11.4000;0.1595;-0.0264;
11.7000;0.1595;-0.0240;
12.0000;0.1571;-0.0311;
12.3000;0.1571;-0.0288;
12.6000;0.1579;-0.0335;
12.9000;0.1587;-0.0335;
13.2000;0.1661;-0.0120;
13.5000;0.1579;-0.0311;
13.8000;0.1579;-0.0311;
14.1000;0.1669;-0.0048;
14.4000;0.1587;-0.0216;
14.7000;0.1595;-0.0168;
15.0000;0.1563;-0.0264;
15.3000;0.1538;-0.0311;
15.6000;0.1571;-0.0311;
15.9000;0.1604;-0.0264;
16.2000;0.1595;-0.0311;
16.5000;0.1538;-0.0335;
16.8000;0.1555;-0.0240;
17.1000;0.1595;-0.0168;
17.4000;0.1644;-0.0144;
17.7000;0.1547;-0.0407;
18.0000;0.1669;-0.0144;
18.3000;0.1587;-0.0288;
18.6000;0.1522;-0.0311;
18.9000;0.1522;-0.0311;
19.2000;0.1465;-0.0503;
19.5000;0.1571;-0.0335;
19.8000;0.1579;-0.0240;
20.1000;0.1604;-0.0144;
20.4000;0.1481;-0.0455;
20.7000;0.1579;-0.0264;
21.0000;0.1579;-0.0311;
21.3000;0.1579;-0.0240;
21.6000;0.1587;-0.0240;
21.9000;0.1587;-0.0240;
22.2000;0.1579;-0.0288;
22.5000;0.1571;-0.0288;
22.8000;0.1571;-0.0383;
23.1000;0.1644;-0.0240;
23.4000;0.1587;-0.0311;
23.7000;0.1595;-0.0335;
24.0000;0.1612;-0.0264;
24.3000;0.1563;-0.0407;
24.6000;0.1595;-0.0335;
24.9000;0.1547;-0.0383;
25.2000;0.1595;-0.0240;
25.5000;0.1555;-0.0359;
25.8000;0.1595;-0.0288;
26.1000;0.1571;-0.0311;
26.4000;0.1595;-0.0264;
26.7000;0.1506;-0.0479;
27.0000;0.1514;-0.0431;
27.3000;0.1555;-0.0288;
27.6000;0.1571;-0.0288;
27.9000;0.1652;-0.0048;
28.2000;0.1579;-0.0359;
28.5000;0.1595;-0.0264;
28.8000;0.1563;-0.0288;
29.1000;0.1587;-0.0216;
29.4000;0.1563;-0.0216;
29.7000;0.1555;-0.0264;
30.0000;0.1612;-0.0168;
30.3000;0.1571;-0.0335;
30.6000;0.1571;-0.0311;
30.9000;0.1644;-0.0072;
31.2000;0.1555;-0.0192;
31.5000;0.1563;-0.0264;
31.8000;0.1587;-0.0288;
32.1000;0.1555;-0.0335;
32.4000;0.1563;-0.0359;
32.7000;0.1571;-0.0311;
33.0000;0.1595;-0.0216;
33.3000;0.1604;-0.0096;
33.6000;0.1563;-0.0240;
33.9000;0.1579;-0.0168;
34.2000;0.1571;-0.0144;
34.5000;0.1571;-0.0168;
34.8000;0.1563;-0.0216;
35.1000;0.1612;-0.0096;
35.4000;0.1555;-0.0264;
35.7000;0.1563;-0.0264;
36.0000;0.1604;-0.0192;
36.3000;0.1587;-0.0311;
36.6000;0.1579;-0.0311;
36.9000;0.1563;-0.0335;
37.2000;0.1571;-0.0335;
37.5000;0.1587;-0.0359;
37.8000;0.1514;-0.0503;
38.1000;0.1490;-0.0575;
38.4000;0.1530;-0.0455;
38.7000;0.1514;-0.0479;
39.0000;0.1604;-0.0264;
39.3000;0.1587;-0.0216;
39.6000;0.1595;-0.0240;
39.9000;0.1579;-0.0264;
40.2000;0.1595;-0.0120;
40.5000;0.1595;-0.0216;
40.8000;0.1579;-0.0288;
41.1000;0.1563;-0.0288;
41.4000;0.1579;-0.0264;
41.7000;0.1579;-0.0264;
42.0000;0.1587;-0.0264;
42.3000;0.1579;-0.0288;
42.6000;0.1465;-0.0575;
42.9000;0.1579;-0.0240;
43.2000;0.1498;-0.0527;
43.5000;0.1563;-0.0311;
43.8000;0.1587;-0.0335;
44.1000;0.1579;-0.0335;
44.4000;0.1587;-0.0383;
44.7000;0.1587;-0.0431;
45.0000;0.1522;-0.0599;
45.3000;0.1587;-0.0335;
45.6000;0.1579;-0.0335;
45.9000;0.1595;-0.0335;
46.2000;0.1563;-0.0335;
46.5000;0.1571;-0.0359;
46.8000;0.1563;-0.0407;
47.1000;0.1587;-0.0431;
47.4000;0.1604;-0.0407;
47.7000;0.1547;-0.0431;
48.0000;0.1587;-0.0335;
48.3000;0.1563;-0.0359;
48.6000;0.1693;-0.0024;
48.9000;0.1579;-0.0407;
49.2000;0.1595;-0.0288;
49.5000;0.1563;-0.0359;
49.8000;0.1571;-0.0311;
50.1000;0.1595;-0.0288;
50.4000;0.1563;-0.0288;
50.7000;0.1579;-0.0192;
51.0000;0.1604;-0.0240;
51.3000;0.1563;-0.0359;
51.6000;0.1530;-0.0503;
51.9000;0.1587;-0.0335;
52.2000;0.1555;-0.0455;
52.5000;0.1587;-0.0383;
52.8000;0.1563;-0.0431;
53.1000;0.1587;-0.0335;
53.4000;0.1563;-0.0335;
53.7000;0.1587;-0.0335;
54.0000;0.1506;-0.0503;
54.3000;0.1579;-0.0359;
54.6000;0.1595;-0.0264;
54.9000;0.1604;-0.0168;
55.2000;0.1538;-0.0359;
55.5000;0.1563;-0.0288;
55.8000;0.1563;-0.0168;
56.1000;0.1481;-0.0383;
56.4000;0.1579;-0.0144;
56.7000;0.1530;-0.0240;
57.0000;0.1644;0.0048;
57.3000;0.1595;-0.0144;
57.6000;0.1579;-0.0192;
57.9000;0.1669;0.0048;
58.2000;0.1571;-0.0311;
58.5000;0.1547;-0.0264;
58.8000;0.1587;-0.0192;
59.1000;0.1579;-0.0240;
59.4000;0.1595;-0.0240;
59.7000;0.1595;-0.0288;
60.0000;0.1604;-0.0288;
60.3000;0.1563;-0.0455;
60.6000;0.1571;-0.0479;
60.9000;0.1481;-0.0767;
61.2000;0.1595;-0.0455;
61.5000;0.1579;-0.0503;
61.8000;0.1547;-0.0575;
62.1000;0.1571;-0.0479;
62.4000;0.1547;-0.0503;
62.7000;0.1555;-0.0455;
63.0000;0.1563;-0.0407;
63.3000;0.1579;-0.0335;
63.6000;0.1538;-0.0407;
63.9000;0.1571;-0.0383;
64.2000;0.1571;-0.0359;
64.5000;0.1457;-0.0695;
64.8000;0.1473;-0.0599;
65.1000;0.1579;-0.0216;
65.4000;0.1587;-0.0168;
65.7000;0.1579;-0.0288;
66.0000;0.1587;-0.0288;
66.3000;0.1587;-0.0240;
66.6000;0.1522;-0.0383;
66.9000;0.1579;-0.0264;
67.2000;0.1563;-0.0311;
67.5000;0.1604;-0.0216;
67.8000;0.1547;-0.0455;
68.1000;0.1563;-0.0503;
68.4000;0.1571;-0.0383;
68.7000;0.1579;-0.0288;
69.0000;0.1563;-0.0264;
69.3000;0.1555;-0.0311;
69.6000;0.1579;-0.0311;
69.9000;0.1612;-0.0288;
70.2000;0.1555;-0.0551;
70.5000;0.1579;-0.0407;
70.8000;0.1571;-0.0431;
71.1000;0.1595;-0.0359;
71.4000;0.1465;-0.0767;
71.7000;0.1571;-0.0527;
72.0000;0.1620;-0.0455;
72.3000;0.1587;-0.0551;
72.6000;0.1620;-0.0455;
72.9000;0.1620;-0.0479;
73.2000;0.1595;-0.0479;
73.5000;0.1547;-0.0575;
73.8000;0.1579;-0.0575;
74.1000;0.1457;-0.0839;
74.4000;0.1571;-0.0599;
74.7000;0.1571;-0.0575;
75.0000;0.1571;-0.0527;
75.3000;0.1595;-0.0575;
75.6000;0.1571;-0.0527;
75.9000;0.1587;-0.0455;
76.2000;0.1587;-0.0455;
76.5000;0.1579;-0.0479;
76.8000;0.1587;-0.0551;
77.1000;0.1579;-0.0503;
77.4000;0.1595;-0.0503;
77.7000;0.1587;-0.0551;
78.0000;0.1595;-0.0383;
78.3000;0.1571;-0.0479;
78.6000;0.1579;-0.0479;
78.9000;0.1571;-0.0455;
79.2000;0.1571;-0.0455;
79.5000;0.1571;-0.0551;
79.8000;0.1612;-0.0431;
80.1000;0.1709;-0.0096;
80.4000;0.1579;-0.0455;
80.7000;0.1595;-0.0407;
81.0000;0.1571;-0.0407;
81.3000;0.1563;-0.0383;
81.6000;0.1587;-0.0359;
81.9000;0.1579;-0.0288;
82.2000;0.1620;-0.0264;
82.5000;0.1538;-0.0431;
82.8000;0.1555;-0.0383;
83.1000;0.1587;-0.0288;
83.4000;0.1579;-0.0383;
83.7000;0.1571;-0.0407;
84.0000;0.1563;-0.0479;
84.3000;0.1563;-0.0527;
84.6000;0.1587;-0.0455;
84.9000;0.1506;-0.0623;
85.2000;0.1441;-0.0767;
85.5000;0.1563;-0.0335;
85.8000;0.1571;-0.0264;
86.1000;0.1571;-0.0311;
86.4000;0.1669;-0.0096;
86.7000;0.1571;-0.0335;
87.0000;0.1579;-0.0383;
87.3000;0.1587;-0.0288;
87.6000;0.1579;-0.0288;
87.9000;0.1563;-0.0335;
88.2000;0.1604;-0.0311;
88.5000;0.1563;-0.0359;
88.8000;0.1555;-0.0288;
89.1000;0.1563;-0.0240;
89.4000;0.1555;-0.0216;
89.7000;0.1579;-0.0144;
90.0000;0.1579;-0.0168;
90.3000;0.1530;-0.0407;
90.6000;0.1538;-0.0431;
90.9000;0.1587;-0.0359;
91.2000;0.1506;-0.0623;
91.5000;0.1644;-0.0264;
91.8000;0.1579;-0.0359;
92.1000;0.1522;-0.0575;
92.4000;0.1563;-0.0479;
92.7000;0.1563;-0.0551;
93.0000;0.1579;-0.0503;
93.3000;0.1587;-0.0503;
93.6000;0.1587;-0.0575;
93.9000;0.1685;-0.0264;
94.2000;0.1579;-0.0575;
94.5000;0.1571;-0.0599;
94.8000;0.1563;-0.0623;
95.1000;0.1587;-0.0623;
95.4000;0.1547;-0.0719;
95.7000;0.1498;-0.0839;
96.0000;0.1571;-0.0551;
96.3000;0.1571;-0.0479;
96.6000;0.1571;-0.0455;
96.9000;0.1604;-0.0359;
97.2000;0.1555;-0.0551;
97.5000;0.1449;-0.0815;
97.8000;0.1579;-0.0479;
98.1000;0.1571;-0.0431;
98.4000;0.1530;-0.0407;
98.7000;0.1612;-0.0240;
99.0000;0.1522;-0.0455;
99.3000;0.1661;-0.0168;
99.6000;0.1644;-0.0144;
99.9000;0.1709;0.0048;
100.2000;0.1563;-0.0311;
100.5000;0.1571;-0.0240;
100.8000;0.1579;-0.0288;
101.1000;0.1628;-0.0120;
101.4000;0.1604;-0.0264;
101.7000;0.1538;-0.0431;
102.0000;0.1547;-0.0431;
102.3000;0.1595;-0.0264;
102.6000;0.1571;-0.0311;
102.9000;0.1563;-0.0216;
103.2000;0.1555;-0.0216;
103.5000;0.1530;-0.0335;
103.8000;0.1563;-0.0264;
104.1000;0.1538;-0.0431;
104.4000;0.1563;-0.0383;
104.7000;0.1547;-0.0359;
105.0000;0.1571;-0.0240;
105.3000;0.1563;-0.0192;
105.6000;0.1571;-0.0192;
105.9000;0.1685;0.0024;
106.2000;0.1587;-0.0216;
106.5000;0.1563;-0.0240;
106.8000;0.1571;-0.0335;
107.1000;0.1563;-0.0359;
107.4000;0.1579;-0.0288;
107.7000;0.1571;-0.0383;
108.0000;0.1579;-0.0311;
108.3000;0.1538;-0.0359;
108.6000;0.1571;-0.0240;
108.9000;0.1579;-0.0192;
109.2000;0.1563;-0.0264;
109.5000;0.1538;-0.0311;
109.8000;0.1579;-0.0240;
110.1000;0.1449;-0.0671;
110.4000;0.1555;-0.0455;
110.7000;0.1620;-0.0335;
111.0000;0.1563;-0.0503;
111.3000;0.1563;-0.0479;
111.6000;0.1538;-0.0503;
111.9000;0.1587;-0.0455;
112.2000;0.1587;-0.0455;
112.5000;0.1604;-0.0311;
112.8000;0.1571;-0.0359;
113.1000;0.1571;-0.0359;
113.4000;0.1563;-0.0431;
113.7000;0.1587;-0.0479;
114.0000;0.1571;-0.0527;
114.3000;0.1571;-0.0575;
114.6000;0.1652;-0.0455;
114.9000;0.1571;-0.0671;
115.2000;0.1620;-0.0527;
115.5000;0.1595;-0.0599;
115.8000;0.1563;-0.0695;
116.1000;0.1571;-0.0647;
116.4000;0.1555;-0.0767;
116.7000;0.1563;-0.0791;
117.0000;0.1490;-0.0887;
117.3000;0.1547;-0.0695;
117.6000;0.1579;-0.0671;
117.9000;0.1579;-0.0599;
118.2000;0.1579;-0.0575;
118.5000;0.1514;-0.0695;
118.8000;0.1571;-0.0503;
119.1000;0.1571;-0.0503;
119.4000;0.1579;-0.0455;
119.7000;0.1563;-0.0479;
120.0000;0.1612;-0.0431;
120.3000;0.1571;-0.0455;
120.6000;0.1620;-0.0335;
120.9000;0.1522;-0.0551;
121.2000;0.1563;-0.0383;
121.5000;0.1718;0.0048;
121.8000;0.1571;-0.0359;
122.1000;0.1538;-0.0407;
122.4000;0.1604;-0.0288;
122.7000;0.1652;-0.0144;
123.0000;0.1587;-0.0335;
123.3000;0.1587;-0.0311;
123.6000;0.1571;-0.0335;
123.9000;0.1587;-0.0264;
124.2000;0.1587;-0.0311;
124.5000;0.1571;-0.0335;
124.8000;0.1563;-0.0311;
125.1000;0.1563;-0.0240;
125.4000;0.1579;-0.0288;
125.7000;0.1555;-0.0383;
126.0000;0.1604;-0.0240;
126.3000;0.1555;-0.0311;
126.6000;0.1563;-0.0311;
126.9000;0.1571;-0.0311;
127.2000;0.1522;-0.0455;
127.5000;0.1579;-0.0288;
127.8000;0.1571;-0.0240;
128.1000;0.1555;-0.0335;
128.4000;0.1571;-0.0288;
128.7000;0.1563;-0.0359;
129.0000;0.1522;-0.0455;
129.3000;0.1555;-0.0288;
129.6000;0.1587;-0.0240;
129.9000;0.1579;-0.0216;
130.2000;0.1579;-0.0168;
130.5000;0.1579;-0.0192;
130.8000;0.1579;-0.0144;
131.1000;0.1571;-0.0144;
131.4000;0.1587;-0.0120;
131.7000;0.1628;0.0048;
132.0000;0.1555;-0.0192;
132.3000;0.1604;-0.0120;
132.6000;0.1587;-0.0144;
132.9000;0.1571;-0.0120;
133.2000;0.1530;-0.0264;
133.5000;0.1555;-0.0240;
133.8000;0.1563;-0.0192;
134.1000;0.1563;-0.0144;
134.4000;0.1587;-0.0144;
134.7000;0.1579;-0.0216;
135.0000;0.1563;-0.0288;
135.3000;0.1579;-0.0288;
135.6000;0.1530;-0.0359;
135.9000;0.1587;-0.0216;
136.2000;0.1669;-0.0072;
136.5000;0.1538;-0.0383;
136.8000;0.1579;-0.0359;
137.1000;0.1563;-0.0407;
137.4000;0.1514;-0.0479;
137.7000;0.1571;-0.0359;
138.0000;0.1579;-0.0335;
138.3000;0.1563;-0.0407;
138.6000;0.1579;-0.0383;
138.9000;0.1547;-0.0359;
139.2000;0.1563;-0.0288;
139.5000;0.1669;-0.0024;
139.8000;0.1498;-0.0479;
140.1000;0.1547;-0.0335;
140.4000;0.1538;-0.0359;
140.7000;0.1563;-0.0311;
141.0000;0.1425;-0.0695;
141.3000;0.1522;-0.0455;
141.6000;0.1571;-0.0359;
141.9000;0.1571;-0.0311;
142.2000;0.1579;-0.0240;
142.5000;0.1571;-0.0168;
142.8000;0.1685;0.0048;
143.1000;0.1579;-0.0192;
143.4000;0.1604;-0.0024;
143.7000;0.1547;-0.0216;
144.0000;0.1571;-0.0096;
144.3000;0.1604;0.0000;
144.6000;0.1587;-0.0144;
144.9000;0.1514;-0.0407;
145.2000;0.1563;-0.0311;
145.5000;0.1433;-0.0743;
145.8000;0.1522;-0.0407;
146.1000;0.1669;-0.0048;
146.4000;0.1555;-0.0383;
146.7000;0.1579;-0.0264;
147.0000;0.1677;0.0000;
147.3000;0.1587;-0.0120;
147.6000;0.1579;-0.0096;
147.9000;0.1579;-0.0120;
148.2000;0.1571;-0.0144;
148.5000;0.1595;-0.0192;
148.8000;0.1587;-0.0240;
149.1000;0.1579;-0.0240;
149.4000;0.1563;-0.0335;
149.7000;0.1555;-0.0264;
150.0000;0.1571;-0.0240;
150.3000;0.1571;-0.0240;
150.6000;0.1563;-0.0288;
150.9000;0.1563;-0.0240;
151.2000;0.1604;-0.0168;
151.5000;0.1571;-0.0192;
151.8000;0.1579;-0.0144;
152.1000;0.1587;-0.0144;
152.4000;0.1595;-0.0024;
152.7000;0.1571;-0.0072;
153.0000;0.1604;0.0072;
153.3000;0.1555;-0.0048;
153.6000;0.1571;-0.0072;
153.9000;0.1547;-0.0192;
154.2000;0.1563;-0.0240;
154.5000;0.1571;-0.0192;
154.8000;0.1571;-0.0096;
155.1000;0.1579;-0.0096;
155.4000;0.1587;-0.0024;
155.7000;0.1595;0.0024;
156.0000;0.1571;0.0024;
156.3000;0.1604;0.0120;
156.6000;0.1571;-0.0024;
156.9000;0.1547;-0.0048;
157.2000;0.1587;0.0072;
157.5000;0.1587;-0.0024;
157.8000;0.1571;-0.0168;
158.1000;0.1571;-0.0168;
158.4000;0.1587;-0.0192;
158.7000;0.1571;-0.0120;
159.0000;0.1677;0.0072;
159.3000;0.1530;-0.0311;
159.6000;0.1652;0.0000;
159.9000;0.1522;-0.0288;
160.2000;0.1473;-0.0359;
160.5000;0.1571;-0.0120;
160.8000;0.1595;-0.0096;
161.1000;0.1538;-0.0335;
161.4000;0.1563;-0.0216;
161.7000;0.1571;-0.0240;
162.0000;0.1571;-0.0192;
162.3000;0.1547;-0.0216;
162.6000;0.1571;-0.0144;
162.9000;0.1595;-0.0024;
163.2000;0.1547;-0.0168;
163.5000;0.1579;-0.0144;
163.8000;0.1579;-0.0072;
164.1000;0.1563;-0.0096;
164.4000;0.1612;0.0048;
164.7000;0.1628;0.0024;
165.0000;0.1555;-0.0120;
165.3000;0.1571;-0.0144;
165.6000;0.1571;-0.0144;
165.9000;0.1587;-0.0192;
166.2000;0.1587;-0.0144;
166.5000;0.1514;-0.0311;
166.8000;0.1628;-0.0024;
167.1000;0.1538;-0.0311;
167.4000;0.1563;-0.0240;
167.7000;0.1571;-0.0264;
168.0000;0.1530;-0.0407;
168.3000;0.1571;-0.0311;
168.6000;0.1652;-0.0072;
168.9000;0.1555;-0.0240;
169.2000;0.1579;-0.0216;
169.5000;0.1563;-0.0288;
169.8000;0.1522;-0.0479;
170.1000;0.1571;-0.0311;
170.4000;0.1547;-0.0311;
170.7000;0.1563;-0.0264;
171.0000;0.1563;-0.0240;
171.3000;0.1514;-0.0335;
171.6000;0.1555;-0.0240;
171.9000;0.1571;-0.0192;
172.2000;0.1563;-0.0216;
172.5000;0.1547;-0.0264;
172.8000;0.1595;-0.0192;
173.1000;0.1669;-0.0048;
173.4000;0.1579;-0.0192;
173.7000;0.1571;-0.0192;
174.0000;0.1677;0.0168;
174.3000;0.1457;-0.0503;
174.6000;0.1563;-0.0216;
174.9000;0.1579;-0.0288;
175.2000;0.1563;-0.0288;
175.5000;0.1587;-0.0288;
175.8000;0.1579;-0.0264;
176.1000;0.1595;-0.0120;
176.4000;0.1571;-0.0120;
176.7000;0.1555;-0.0216;
177.0000;0.1587;-0.0120;
177.3000;0.1506;-0.0359;
177.6000;0.1579;-0.0192;
177.9000;0.1595;-0.0120;
178.2000;0.1587;-0.0144;
178.5000;0.1571;-0.0264;
178.8000;0.1563;-0.0240;
179.1000;0.1571;-0.0240;
179.4000;0.1579;-0.0216;
179.7000;0.1571;-0.0192;
180.0000;0.1555;-0.0192;
180.3000;0.1555;-0.0192;
180.6000;0.1579;-0.0144;
180.9000;0.1579;-0.0144;
181.2000;0.1563;-0.0144;
181.5000;0.1644;-0.0048;
181.8000;0.1555;-0.0168;
182.1000;0.1587;-0.0120;
182.4000;0.1473;-0.0431;
182.7000;0.1571;-0.0192;
183.0000;0.1579;-0.0216;
183.3000;0.1579;-0.0168;
183.6000;0.1587;-0.0144;
183.9000;0.1587;-0.0144;
184.2000;0.1579;-0.0264;
184.5000;0.1579;-0.0288;
184.8000;0.1563;-0.0264;
185.1000;0.1571;-0.0240;
185.4000;0.1571;-0.0192;
185.7000;0.1563;-0.0240;
186.0000;0.1571;-0.0240;
186.3000;0.1563;-0.0311;
186.6000;0.1579;-0.0192;
186.9000;0.1587;-0.0216;
187.2000;0.1587;-0.0144;
187.5000;0.1579;-0.0311;
187.8000;0.1514;-0.0527;
188.1000;0.1530;-0.0383;
188.4000;0.1587;-0.0216;
188.7000;0.1579;-0.0168;
189.0000;0.1441;-0.0407;
189.3000;0.1538;-0.0120;
189.6000;0.1563;-0.0024;
189.9000;0.1595;-0.0024;
190.2000;0.1563;-0.0048;
190.5000;0.1579;-0.0096;
190.8000;0.1579;-0.0072;
191.1000;0.1506;-0.0192;
191.4000;0.1563;-0.0048;
191.7000;0.1612;0.0000;
192.0000;0.1571;-0.0024;
192.3000;0.1587;-0.0024;
192.6000;0.1579;-0.0024;
192.9000;0.1571;-0.0144;
193.2000;0.1555;-0.0216;
193.5000;0.1571;-0.0192;
193.8000;0.1571;-0.0288;
194.1000;0.1587;-0.0264;
194.4000;0.1563;-0.0288;
194.7000;0.1530;-0.0335;
195.0000;0.1644;0.0024;
195.3000;0.1587;-0.0168;
195.6000;0.1579;-0.0168;
195.9000;0.1563;-0.0240;
196.2000;0.1547;-0.0311;
196.5000;0.1571;-0.0192;
196.8000;0.1538;-0.0311;
197.1000;0.1595;-0.0144;
197.4000;0.1587;-0.0192;
197.7000;0.1595;-0.0096;
198.0000;0.1587;-0.0096;
198.3000;0.1579;-0.0048;
198.6000;0.1555;-0.0072;
198.9000;0.1579;-0.0096;
199.2000;0.1547;-0.0120;
199.5000;0.1530;-0.0144;
199.8000;0.1587;-0.0096;
200.1000;0.1530;-0.0288;
200.4000;0.1587;-0.0192;
200.7000;0.1563;-0.0264;
201.0000;0.1547;-0.0216;
201.3000;0.1587;-0.0096;
201.6000;0.1579;-0.0072;
201.9000;0.1571;0.0024;
202.2000;0.1571;0.0000;
202.5000;0.1587;0.0024;
202.8000;0.1506;-0.0192;
203.1000;0.1579;-0.0096;
203.4000;0.1579;-0.0120;
203.7000;0.1571;-0.0096;
204.0000;0.1579;-0.0024;
204.3000;0.1587;0.0000;
204.6000;0.1457;-0.0264;
204.9000;0.1701;0.0359;
205.2000;0.1514;-0.0120;
205.5000;0.1579;0.0000;
205.8000;0.1579;-0.0024;
206.1000;0.1571;-0.0024;
206.4000;0.1579;-0.0072;
206.7000;0.1563;-0.0168;
207.0000;0.1538;-0.0311;
207.3000;0.1555;-0.0216;
207.6000;0.1579;-0.0144;
207.9000;0.1595;-0.0168;
208.2000;0.1571;-0.0192;
208.5000;0.1571;-0.0192;
208.8000;0.1595;-0.0144;
209.1000;0.1571;-0.0192;
209.4000;0.1547;-0.0264;
209.7000;0.1579;-0.0288;
210.0000;0.1547;-0.0407;
210.3000;0.1587;-0.0288;
210.6000;0.1595;-0.0264;
210.9000;0.1620;-0.0192;
211.2000;0.1571;-0.0383;
211.5000;0.1595;-0.0335;
211.8000;0.1612;-0.0216;
212.1000;0.1547;-0.0503;
212.4000;0.1498;-0.0575;
212.7000;0.1538;-0.0527;
213.0000;0.1604;-0.0383;
213.3000;0.1652;-0.0288;
213.6000;0.1571;-0.0455;
213.9000;0.1571;-0.0431;
214.2000;0.1652;-0.0240;
214.5000;0.1457;-0.0647;
214.8000;0.1563;-0.0335;
215.1000;0.1587;-0.0192;
215.4000;0.1547;-0.0335;
215.7000;0.1571;-0.0264;
216.0000;0.1587;-0.0168;
216.3000;0.1563;-0.0216;
216.6000;0.1530;-0.0288;
216.9000;0.1685;0.0120;
217.2000;0.1555;-0.0288;
217.5000;0.1555;-0.0288;
217.8000;0.1595;-0.0168;
218.1000;0.1612;-0.0048;
218.4000;0.1563;-0.0288;
218.7000;0.1563;-0.0288;
219.0000;0.1563;-0.0264;
219.3000;0.1636;-0.0096;
219.6000;0.1571;-0.0240;
219.9000;0.1620;-0.0072;
220.2000;0.1571;-0.0192;
220.5000;0.1571;-0.0120;
220.8000;0.1595;-0.0024;
221.1000;0.1571;-0.0048;
221.4000;0.1530;-0.0264;
221.7000;0.1571;-0.0192;
222.0000;0.1579;-0.0192;
222.3000;0.1506;-0.0407;
222.6000;0.1620;-0.0072;
222.9000;0.1571;-0.0192;
223.2000;0.1587;-0.0144;
223.5000;0.1563;-0.0120;
223.8000;0.1555;-0.0120;
224.1000;0.1571;-0.0168;
224.4000;0.1555;-0.0216;
224.7000;0.1514;-0.0335;
225.0000;0.1563;-0.0192;
225.3000;0.1555;-0.0216;
225.6000;0.1571;-0.0192;
225.9000;0.1587;-0.0144;
226.2000;0.1579;-0.0168;
226.5000;0.1555;-0.0192;
226.8000;0.1571;-0.0120;
227.1000;0.1579;-0.0216;
227.4000;0.1587;-0.0192;
227.7000;0.1579;-0.0120;
228.0000;0.1538;-0.0168;
228.3000;0.1579;0.0000;
228.6000;0.1555;-0.0192;
228.9000;0.1563;-0.0216;
229.2000;0.1571;-0.0144;
229.5000;0.1555;-0.0240;
229.8000;0.1571;-0.0240;
230.1000;0.1628;0.0024;
230.4000;0.1465;-0.0383;
230.7000;0.1579;-0.0048;
231.0000;0.1571;-0.0120;
231.3000;0.1579;-0.0048;
231.6000;0.1571;-0.0048;
231.9000;0.1522;-0.0240;
232.2000;0.1571;-0.0096;
232.5000;0.1547;-0.0216;
232.8000;0.1579;-0.0240;
233.1000;0.1563;-0.0264;
233.4000;0.1579;-0.0264;
233.7000;0.1465;-0.0527;
234.0000;0.1587;-0.0120;
234.3000;0.1538;-0.0192;
234.6000;0.1563;-0.0072;
234.9000;0.1571;-0.0072;
235.2000;0.1547;-0.0144;
235.5000;0.1563;-0.0168;
235.8000;0.1563;-0.0216;
236.1000;0.1604;-0.0072;
236.4000;0.1636;-0.0048;
236.7000;0.1571;-0.0168;
237.0000;0.1481;-0.0359;
237.3000;0.1514;-0.0288;
237.6000;0.1563;-0.0120;
237.9000;0.1563;-0.0120;
238.2000;0.1579;0.0000;
238.5000;0.1555;-0.0144;
238.8000;0.1563;-0.0144;
239.1000;0.1563;-0.0168;
239.4000;0.1579;-0.0168;
239.7000;0.1457;-0.0527;
240.0000;0.1571;-0.0216;
240.3000;0.1547;-0.0240;
240.6000;0.1579;-0.0096;
240.9000;0.1555;-0.0120;
241.2000;0.1579;-0.0048;
241.5000;0.1555;-0.0096;
241.8000;0.1563;-0.0168;
242.1000;0.1563;-0.0120;
242.4000;0.1620;0.0096;
242.7000;0.1563;0.0048;
243.0000;0.1587;0.0048;
243.3000;0.1530;-0.0144;
243.6000;0.1579;-0.0024;
243.9000;0.1709;0.0359;
244.2000;0.1652;0.0240;
244.5000;0.1587;0.0096;
244.8000;0.1547;-0.0048;
245.1000;0.1538;-0.0024;
245.4000;0.1579;0.0168;
245.7000;0.1579;0.0144;
246.0000;0.1579;0.0000;
246.3000;0.1587;0.0024;
246.6000;0.1563;-0.0096;
246.9000;0.1563;-0.0024;
247.2000;0.1579;0.0024;
247.5000;0.1571;0.0000;
247.8000;0.1587;0.0120;
248.1000;0.1587;0.0144;
248.4000;0.1547;0.0072;
248.7000;0.1587;0.0192;
249.0000;0.1571;0.0168;
249.3000;0.1579;0.0216;
249.6000;0.1530;-0.0048;
249.9000;0.1547;0.0024;
250.2000;0.1555;-0.0048;
250.5000;0.1563;-0.0096;
250.8000;0.1604;0.0096;
251.1000;0.1449;-0.0335;
251.4000;0.1563;-0.0024;
251.7000;0.1571;-0.0096;
252.0000;0.1571;-0.0096;
252.3000;0.1514;-0.0192;
252.6000;0.1604;0.0120;
252.9000;0.1547;-0.0048;
253.2000;0.1571;-0.0048;
253.5000;0.1522;-0.0192;
253.8000;0.1506;-0.0288;
254.1000;0.1571;-0.0048;
254.4000;0.1718;0.0383;
254.7000;0.1571;0.0048;
255.0000;0.1571;0.0072;
255.3000;0.1620;0.0192;
255.6000;0.1595;0.0048;
255.9000;0.1579;-0.0072;
256.2000;0.1563;-0.0144;
256.5000;0.1530;-0.0168;
256.8000;0.1595;0.0024;
257.1000;0.1595;0.0000;
257.4000;0.1538;-0.0072;
257.7000;0.1571;0.0000;
258.0000;0.1669;0.0288;
258.3000;0.1571;0.0048;
258.6000;0.1579;-0.0024;
258.9000;0.1571;-0.0048;
259.2000;0.1563;-0.0120;
259.5000;0.1563;-0.0120;
259.8000;0.1530;-0.0311;
260.1000;0.1408;-0.0575;
260.4000;0.1571;-0.0144;
260.7000;0.1563;-0.0168;
261.0000;0.1579;-0.0072;
261.3000;0.1563;-0.0048;
261.6000;0.1555;-0.0072;
261.9000;0.1538;-0.0168;
262.2000;0.1563;-0.0192;
262.5000;0.1547;-0.0288;
262.8000;0.1563;-0.0216;
263.1000;0.1563;-0.0216;
263.4000;0.1571;-0.0216;
263.7000;0.1563;-0.0288;
264.0000;0.1547;-0.0335;
264.3000;0.1579;-0.0240;
264.6000;0.1612;-0.0120;
264.9000;0.1547;-0.0264;
265.2000;0.1555;-0.0288;
265.5000;0.1571;-0.0288;
265.8000;0.1547;-0.0335;
266.1000;0.1490;-0.0479;
266.4000;0.1595;-0.0216;
266.7000;0.1579;-0.0192;
267.0000;0.1547;-0.0288;
267.3000;0.1587;-0.0216;
267.6000;0.1530;-0.0288;
267.9000;0.1571;-0.0311;
268.2000;0.1506;-0.0527;
268.5000;0.1555;-0.0311;
268.8000;0.1555;-0.0288;
269.1000;0.1563;-0.0240;
269.4000;0.1587;-0.0144;
269.7000;0.1563;-0.0120;
270.0000;0.1555;-0.0120;
270.3000;0.1538;-0.0192;
270.6000;0.1587;-0.0096;
270.9000;0.1563;-0.0120;
271.2000;0.1571;-0.0048;
271.5000;0.1547;-0.0216;
271.8000;0.1571;-0.0144;
272.1000;0.1563;-0.0192;
272.4000;0.1595;-0.0072;
272.7000;0.1579;-0.0144;
273.0000;0.1563;-0.0144;
273.3000;0.1547;-0.0144;
273.6000;0.1604;-0.0072;
273.9000;0.1587;-0.0120;
274.2000;0.1636;-0.0024;
274.5000;0.1579;-0.0264;
274.8000;0.1595;-0.0216;
275.1000;0.1571;-0.0216;
275.4000;0.1571;-0.0144;
275.7000;0.1457;-0.0551;
276.0000;0.1595;-0.0192;
276.3000;0.1587;-0.0192;
276.6000;0.1563;-0.0144;
276.9000;0.1547;-0.0216;
277.2000;0.1604;-0.0024;
277.5000;0.1449;-0.0335;
277.8000;0.1563;-0.0024;
278.1000;0.1571;-0.0096;
278.4000;0.1587;-0.0048;
278.7000;0.1587;0.0024;
279.0000;0.1563;-0.0168;
279.3000;0.1571;-0.0120;
279.6000;0.1563;-0.0168;
279.9000;0.1579;-0.0144;
280.2000;0.1579;-0.0168;
280.5000;0.1604;-0.0072;
280.8000;0.1522;-0.0311;
281.1000;0.1563;-0.0096;
281.4000;0.1579;-0.0120;
281.7000;0.1595;-0.0048;
282.0000;0.1498;-0.0264;
282.3000;0.1555;-0.0048;
282.6000;0.1555;0.0024;
282.9000;0.1571;0.0024;
283.2000;0.1563;0.0072;
283.5000;0.1555;0.0120;
283.8000;0.1555;0.0096;
284.1000;0.1547;0.0024;
284.4000;0.1547;-0.0072;
284.7000;0.1547;-0.0072;
285.0000;0.1644;0.0168;
285.3000;0.1587;0.0000;
285.6000;0.1547;-0.0072;
285.9000;0.1547;-0.0072;
286.2000;0.1547;0.0024;
286.5000;0.1555;0.0000;
286.8000;0.1571;0.0096;
287.1000;0.1563;0.0072;
287.4000;0.1555;0.0000;
287.7000;0.1571;-0.0024;
288.0000;0.1555;-0.0024;
288.3000;0.1571;0.0048;
288.6000;0.1547;-0.0048;
288.9000;0.1563;0.0024;
289.2000;0.1579;0.0048;
289.5000;0.1579;0.0024;
289.8000;0.1579;0.0096;
290.1000;0.1628;0.0288;
290.4000;0.1587;0.0120;
290.7000;0.1587;0.0048;
291.0000;0.1563;0.0048;
291.3000;0.1579;0.0048;
291.6000;0.1579;0.0072;
291.9000;0.1579;0.0072;
292.2000;0.1604;0.0120;
292.5000;0.1571;-0.0024;
292.8000;0.1571;-0.0072;
293.1000;0.1522;-0.0216;
293.4000;0.1571;-0.0048;
293.7000;0.1579;0.0000;
294.0000;0.1579;0.0024;
294.3000;0.1644;0.0240;
294.6000;0.1563;0.0096;
294.9000;0.1514;-0.0048;
295.2000;0.1563;0.0120;
295.5000;0.1579;0.0144;
295.8000;0.1555;0.0096;
296.1000;0.1595;0.0168;
296.4000;0.1579;0.0048;
296.7000;0.1579;0.0048;
297.0000;0.1587;0.0048;
297.3000;0.1579;0.0096;
297.6000;0.1587;0.0120;
297.9000;0.1563;0.0024;
298.2000;0.1571;0.0000;
298.5000;0.1547;-0.0048;
298.8000;0.1563;-0.0048;
299.1000;0.1579;0.0000;
299.4000;0.1571;0.0096;
299.7000;0.1563;0.0096;
300.0000;0.1538;0.0096;
300.3000;0.1571;0.0144;
300.6000;0.1579;0.0144;
300.9000;0.1579;0.0144;
301.2000;0.1555;0.0024;
301.5000;0.1571;0.0024;
301.8000;0.1620;0.0144;
302.1000;0.1563;0.0000;
302.4000;0.1571;0.0000;
302.7000;0.1563;-0.0048;
303.0000;0.1571;0.0024;
303.3000;0.1547;-0.0024;
303.6000;0.1685;0.0311;
303.9000;0.1669;0.0288;
304.2000;0.1571;0.0096;
304.5000;0.1579;0.0144;
304.8000;0.1563;0.0048;
305.1000;0.1563;0.0072;
305.4000;0.1563;0.0048;
305.7000;0.1571;0.0096;
306.0000;0.1604;0.0120;
306.3000;0.1538;0.0000;
306.6000;0.1547;-0.0048;
306.9000;0.1563;0.0024;
307.2000;0.1555;0.0024;
307.5000;0.1571;-0.0024;
307.8000;0.1563;-0.0072;
308.1000;0.1669;0.0168;
308.4000;0.1571;-0.0048;
308.7000;0.1604;0.0024;
309.0000;0.1555;-0.0048;
309.3000;0.1547;-0.0072;
309.6000;0.1579;-0.0072;
309.9000;0.1481;-0.0335;
310.2000;0.1547;-0.0168;
310.5000;0.1547;-0.0168;
310.8000;0.1571;-0.0096;
311.1000;0.1563;-0.0168;
311.4000;0.1563;-0.0168;
311.7000;0.1571;-0.0144;
312.0000;0.1587;-0.0072;
312.3000;0.1604;-0.0048;
312.6000;0.1579;-0.0120;
312.9000;0.1563;0.0000;
313.2000;0.1677;0.0240;
313.5000;0.1579;0.0048;
313.8000;0.1579;0.0072;
314.1000;0.1587;0.0120;
314.4000;0.1571;0.0096;
314.7000;0.1571;0.0096;
315.0000;0.1587;0.0096;
315.3000;0.1579;0.0120;
315.6000;0.1571;0.0144;
315.9000;0.1579;0.0168;
316.2000;0.1555;0.0048;
316.5000;0.1538;0.0024;
316.8000;0.1571;0.0024;
317.1000;0.1555;0.0000;
317.4000;0.1579;0.0000;
317.7000;0.1579;0.0000;
318.0000;0.1547;-0.0120;
318.3000;0.1563;-0.0144;
318.6000;0.1571;-0.0120;
318.9000;0.1587;0.0024;
319.2000;0.1547;-0.0024;
319.5000;0.1563;0.0024;
319.8000;0.1587;0.0072;
320.1000;0.1563;0.0000;
320.4000;0.1571;-0.0072;
320.7000;0.1555;-0.0072;
321.0000;0.1555;-0.0072;
321.3000;0.1595;0.0072;
321.6000;0.1652;0.0288;
321.9000;0.1571;0.0144;
322.2000;0.1563;0.0096;
322.5000;0.1571;0.0096;
322.8000;0.1514;-0.0024;
323.1000;0.1555;0.0096;
323.4000;0.1555;0.0000;
323.7000;0.1555;0.0048;
324.0000;0.1628;0.0264;
324.3000;0.1547;0.0072;
324.6000;0.1490;-0.0072;
324.9000;0.1555;0.0096;
325.2000;0.1620;0.0264;
325.5000;0.1547;0.0072;
325.8000;0.1579;0.0048;
326.1000;0.1587;0.0120;
326.4000;0.1579;0.0072;
326.7000;0.1587;0.0096;
327.0000;0.1555;0.0000;
327.3000;0.1587;-0.0024;
327.6000;0.1457;-0.0383;
327.9000;0.1612;-0.0024;
328.2000;0.1563;-0.0120;
328.5000;0.1547;-0.0144;
328.8000;0.1563;-0.0048;
329.1000;0.1587;0.0000;
329.4000;0.1555;-0.0024;
329.7000;0.1538;-0.0024;
330.0000;0.1612;0.0264;
330.3000;0.1579;0.0216;
330.6000;0.1563;0.0120;
330.9000;0.1514;-0.0096;
331.2000;0.1587;0.0024;
331.5000;0.1538;-0.0024;
331.8000;0.1555;0.0000;
332.1000;0.1555;0.0072;
332.4000;0.1547;0.0024;
332.7000;0.1522;-0.0072;
333.0000;0.1563;0.0096;
333.3000;0.1563;0.0096;
333.6000;0.1555;0.0120;
333.9000;0.1555;0.0168;
334.2000;0.1595;0.0288;
334.5000;0.1555;0.0168;
334.8000;0.1473;-0.0168;
335.1000;0.1563;0.0048;
335.4000;0.1579;0.0120;
335.7000;0.1563;0.0072;
336.0000;0.1579;0.0096;
336.3000;0.1571;0.0144;
336.6000;0.1555;0.0144;
336.9000;0.1620;0.0311;
337.2000;0.1473;-0.0144;
337.5000;0.1473;-0.0096;
337.8000;0.1571;0.0096;
338.1000;0.1563;-0.0072;
338.4000;0.1547;-0.0024;
338.7000;0.1522;-0.0024;
339.0000;0.1571;0.0144;
339.3000;0.1579;0.0096;
339.6000;0.1555;-0.0072;
339.9000;0.1571;-0.0024;
340.2000;0.1587;0.0048;
340.5000;0.1661;0.0288;
340.8000;0.1571;-0.0120;
341.1000;0.1587;-0.0120;
341.4000;0.1579;-0.0120;
341.7000;0.1563;-0.0144;
342.0000;0.1555;-0.0048;
342.3000;0.1555;0.0048;
342.6000;0.1579;0.0096;
342.9000;0.1555;0.0096;
343.2000;0.1571;0.0120;
343.5000;0.1579;0.0072;
343.8000;0.1612;0.0144;
344.1000;0.1587;0.0072;
344.4000;0.1571;0.0072;
344.7000;0.1587;0.0072;
345.0000;0.1506;-0.0096;
345.3000;0.1449;-0.0240;
345.6000;0.1571;0.0048;
345.9000;0.1661;0.0288;
346.2000;0.1571;0.0048;
346.5000;0.1538;0.0024;
346.8000;0.1555;0.0144;
347.1000;0.1579;0.0216;
347.4000;0.1579;0.0120;
347.7000;0.1555;0.0072;
348.0000;0.1547;0.0144;
348.3000;0.1628;0.0359;
348.6000;0.1604;0.0288;
348.9000;0.1522;0.0048;
349.2000;0.1595;0.0144;
349.5000;0.1579;0.0096;
349.8000;0.1579;0.0072;
350.1000;0.1547;-0.0024;
350.4000;0.1563;-0.0072;
350.7000;0.1579;-0.0048;
351.0000;0.1555;-0.0096;
351.3000;0.1571;-0.0024;
351.6000;0.1555;-0.0096;
351.9000;0.1571;-0.0072;
352.2000;0.1571;-0.0048;
352.5000;0.1563;-0.0024;
352.8000;0.1563;0.0000;
353.1000;0.1563;0.0048;
353.4000;0.1563;0.0048;
353.7000;0.1693;0.0407;
354.0000;0.1538;0.0024;
354.3000;0.1563;0.0120;
354.6000;0.1530;0.0024;
354.9000;0.1563;0.0048;
355.2000;0.1465;-0.0192;
355.5000;0.1563;0.0000;
355.8000;0.1555;-0.0024;
356.1000;0.1652;0.0192;
356.4000;0.1587;0.0048;
356.7000;0.1514;-0.0240;
357.0000;0.1595;0.0000;
357.3000;0.1571;0.0024;
357.6000;0.1563;0.0072;
357.9000;0.1612;0.0168;
358.2000;0.1563;-0.0144;
358.5000;0.1571;-0.0144;
358.8000;0.1571;-0.0168;
359.1000;0.1514;-0.0288;
359.4000;0.1547;-0.0192;
359.7000;0.1579;-0.0192;
360.0000;0.1571;-0.0240;
360.3000;0.1595;-0.0144;
360.6000;0.1595;-0.0168;
360.9000;0.1612;-0.0096;
361.2000;0.1579;-0.0216;
361.5000;0.1563;-0.0240;
361.8000;0.1555;-0.0168;
362.1000;0.1571;-0.0120;
362.4000;0.1563;-0.0144;
362.7000;0.1563;-0.0168;
363.0000;0.1571;-0.0120;
363.3000;0.1579;-0.0072;
363.6000;0.1514;-0.0192;
363.9000;0.1555;0.0000;
364.2000;0.1685;0.0264;
364.5000;0.1563;0.0000;
364.8000;0.1473;-0.0192;
365.1000;0.1563;0.0072;
365.4000;0.1555;0.0048;
365.7000;0.1538;0.0048;
366.0000;0.1587;0.0144;
366.3000;0.1571;0.0216;
366.6000;0.1587;0.0144;
366.9000;0.1579;0.0024;
367.2000;0.1555;-0.0024;
367.5000;0.1563;-0.0048;
367.8000;0.1612;0.0024;
368.1000;0.1547;-0.0120;
368.4000;0.1522;-0.0096;
368.7000;0.1547;-0.0048;
369.0000;0.1571;-0.0048;
369.3000;0.1563;-0.0048;
369.6000;0.1563;0.0000;
369.9000;0.1563;-0.0024;
370.2000;0.1547;-0.0024;
370.5000;0.1612;0.0192;
370.8000;0.1579;0.0144;
371.1000;0.1571;0.0168;
371.4000;0.1481;-0.0240;
371.7000;0.1636;0.0192;
372.0000;0.1547;-0.0096;
372.3000;0.1555;-0.0072;
372.6000;0.1587;0.0048;
372.9000;0.1587;0.0072;
373.2000;0.1506;-0.0072;
373.5000;0.1522;-0.0024;
373.8000;0.1571;0.0000;
374.1000;0.1563;0.0000;
374.4000;0.1538;-0.0096;
374.7000;0.1563;-0.0072;
375.0000;0.1563;-0.0096;
375.3000;0.1595;0.0024;
375.6000;0.1579;-0.0096;
375.9000;0.1571;-0.0024;
376.2000;0.1555;-0.0048;
376.5000;0.1571;-0.0048;
376.8000;0.1547;-0.0144;
377.1000;0.1563;-0.0120;
377.4000;0.1547;-0.0144;
377.7000;0.1555;-0.0048;
378.0000;0.1555;-0.0096;
378.3000;0.1547;-0.0048;
378.6000;0.1571;0.0048;
378.9000;0.1555;0.0000;
379.2000;0.1563;0.0048;
379.5000;0.1555;-0.0024;
379.8000;0.1563;-0.0024;
380.1000;0.1555;-0.0096;
380.4000;0.1547;-0.0144;
380.7000;0.1604;0.0096;
381.0000;0.1563;0.0024;
381.3000;0.1555;0.0048;
381.6000;0.1547;0.0024;
381.9000;0.1587;0.0048;
382.2000;0.1587;0.0048;
382.5000;0.1579;-0.0072;
382.8000;0.1571;-0.0192;
383.1000;0.1571;-0.0120;
383.4000;0.1587;-0.0072;
383.7000;0.1563;-0.0120;
384.0000;0.1555;-0.0216;
384.3000;0.1530;-0.0407;
384.6000;0.1587;-0.0240;
384.9000;0.1571;-0.0240;
385.2000;0.1547;-0.0216;
385.5000;0.1612;-0.0144;
385.8000;0.1587;-0.0192;
386.1000;0.1628;-0.0048;
386.4000;0.1563;-0.0168;
386.7000;0.1604;-0.0096;
387.0000;0.1579;-0.0120;
387.3000;0.1579;-0.0048;
387.6000;0.1563;-0.0072;
387.9000;0.1555;-0.0072;
388.2000;0.1514;-0.0120;
388.5000;0.1587;0.0024;
388.8000;0.1522;-0.0192;
389.1000;0.1563;-0.0120;
389.4000;0.1563;-0.0096;
389.7000;0.1604;-0.0072;
390.0000;0.1547;-0.0144;
390.3000;0.1555;-0.0072;
390.6000;0.1571;-0.0072;
390.9000;0.1538;-0.0168;
391.2000;0.1587;-0.0048;
391.5000;0.1620;-0.0024;
391.8000;0.1563;-0.0072;
392.1000;0.1555;-0.0072;
392.4000;0.1522;-0.0096;
392.7000;0.1571;0.0024;
393.0000;0.1538;-0.0048;
393.3000;0.1571;0.0048;
393.6000;0.1555;-0.0120;
393.9000;0.1555;-0.0168;
394.2000;0.1522;-0.0288;
394.5000;0.1538;-0.0216;
394.8000;0.1563;-0.0120;
395.1000;0.1669;0.0216;
395.4000;0.1571;-0.0120;
395.7000;0.1555;-0.0120;
396.0000;0.1620;0.0072;
396.3000;0.1555;-0.0096;
396.6000;0.1579;0.0000;
396.9000;0.1644;0.0240;
397.2000;0.1587;0.0120;
397.5000;0.1563;0.0096;
397.8000;0.1587;0.0120;
398.1000;0.1579;0.0120;
398.4000;0.1587;0.0048;
398.7000;0.1579;-0.0096;
399.0000;0.1587;-0.0024;
399.3000;0.1555;0.0000;
399.6000;0.1522;-0.0048;
399.9000;0.1547;0.0024;
400.2000;0.1579;0.0048;
400.5000;0.1661;0.0240;
400.8000;0.1563;-0.0120;
401.1000;0.1579;-0.0048;
401.4000;0.1587;0.0048;
401.7000;0.1547;-0.0096;
402.0000;0.1571;-0.0024;
402.3000;0.1579;0.0048;
402.6000;0.1490;-0.0192;
402.9000;0.1571;-0.0096;
403.2000;0.1636;0.0096;
403.5000;0.1473;-0.0311;
403.8000;0.1555;-0.0144;
404.1000;0.1547;-0.0240;
404.4000;0.1604;-0.0168;
404.7000;0.1563;-0.0240;
405.0000;0.1563;-0.0216;
405.3000;0.1587;-0.0216;
405.6000;0.1571;-0.0192;
405.9000;0.1563;-0.0192;
406.2000;0.1571;-0.0192;
406.5000;0.1579;-0.0120;
406.8000;0.1595;-0.0024;
407.1000;0.1571;-0.0048;
407.4000;0.1595;0.0048;
407.7000;0.1555;0.0048;
408.0000;0.1579;0.0144;
408.3000;0.1538;-0.0024;
408.6000;0.1571;0.0096;
408.9000;0.1555;-0.0024;
409.2000;0.1571;0.0024;
409.5000;0.1563;0.0048;
409.8000;0.1506;-0.0192;
410.1000;0.1595;0.0048;
410.4000;0.1636;0.0096;
410.7000;0.1555;-0.0072;
411.0000;0.1571;0.0024;
411.3000;0.1587;0.0072;
411.6000;0.1563;0.0048;
411.9000;0.1563;0.0048;
412.2000;0.1547;0.0144;
412.5000;0.1579;0.0240;
412.8000;0.1579;0.0288;
413.1000;0.1571;0.0192;
413.4000;0.1547;0.0096;
413.7000;0.1587;0.0216;
414.0000;0.1571;0.0168;
414.3000;0.1579;0.0072;
414.6000;0.1555;-0.0048;
414.9000;0.1555;-0.0096;
415.2000;0.1571;-0.0048;
415.5000;0.1571;-0.0144;
415.8000;0.1579;-0.0120;
416.1000;0.1547;-0.0168;
416.4000;0.1563;-0.0120;
416.7000;0.1571;-0.0048;
417.0000;0.1563;0.0024;
417.3000;0.1571;-0.0048;
417.6000;0.1579;0.0048;
417.9000;0.1571;0.0096;
418.2000;0.1547;0.0072;
418.5000;0.1571;0.0072;
418.8000;0.1538;-0.0072;
419.1000;0.1587;0.0168;
419.4000;0.1571;0.0120;
419.7000;0.1538;0.0048;
420.0000;0.1530;0.0096;
420.3000;0.1514;0.0072;
420.6000;0.1555;0.0048;
420.9000;0.1595;0.0216;
421.2000;0.1555;0.0096;
421.5000;0.1538;0.0024;
421.8000;0.1563;-0.0024;
422.1000;0.1604;0.0048;
422.4000;0.1579;-0.0072;
422.7000;0.1595;-0.0048;
423.0000;0.1555;-0.0168;
423.3000;0.1595;-0.0120;
423.6000;0.1538;-0.0240;
423.9000;0.1547;-0.0192;
424.2000;0.1530;-0.0192;
424.5000;0.1587;-0.0120;
424.8000;0.1563;-0.0144;
425.1000;0.1449;-0.0431;
425.4000;0.1563;-0.0240;
425.7000;0.1563;-0.0264;
426.0000;0.1563;-0.0288;
426.3000;0.1530;-0.0311;
426.6000;0.1661;0.0072;
426.9000;0.1571;-0.0144;
427.2000;0.1571;-0.0168;
427.5000;0.1579;-0.0192;
427.8000;0.1579;-0.0240;
428.1000;0.1571;-0.0288;
428.4000;0.1547;-0.0335;
428.7000;0.1579;-0.0264;
429.0000;0.1579;-0.0264;
429.3000;0.1595;-0.0144;
429.6000;0.1604;-0.0120;
429.9000;0.1579;-0.0216;
430.2000;0.1579;-0.0168;
430.5000;0.1604;-0.0024;
430.8000;0.1579;0.0024;
431.1000;0.1579;0.0000;
431.4000;0.1571;-0.0096;
431.7000;0.1547;-0.0120;
432.0000;0.1563;-0.0072;
432.3000;0.1563;-0.0120;
432.6000;0.1563;-0.0168;
432.9000;0.1571;-0.0120;
433.2000;0.1563;-0.0168;
433.5000;0.1587;-0.0192;
433.8000;0.1571;-0.0264;
434.1000;0.1571;-0.0168;
434.4000;0.1571;-0.0216;
434.7000;0.1563;-0.0216;
435.0000;0.1555;-0.0168;
435.3000;0.1547;-0.0096;
435.6000;0.1563;-0.0144;
435.9000;0.1595;0.0000;
436.2000;0.1571;-0.0120;
436.5000;0.1579;-0.0096;
436.8000;0.1563;-0.0144;
437.1000;0.1563;-0.0192;
437.4000;0.1547;-0.0216;
437.7000;0.1571;-0.0240;
438.0000;0.1579;-0.0240;
438.3000;0.1620;-0.0072;
438.6000;0.1547;-0.0240;
438.9000;0.1587;-0.0144;
439.2000;0.1555;-0.0288;
439.5000;0.1579;-0.0192;
439.8000;0.1620;-0.0048;
440.1000;0.1563;-0.0072;
440.4000;0.1571;-0.0120;
440.7000;0.1571;-0.0048;
441.0000;0.1587;0.0024;
441.3000;0.1571;-0.0096;
441.6000;0.1538;-0.0192;
441.9000;0.1555;-0.0120;
442.2000;0.1587;-0.0072;
442.5000;0.1595;-0.0072;
442.8000;0.1563;-0.0096;
443.1000;0.1563;-0.0120;
443.4000;0.1563;-0.0192;
443.7000;0.1555;-0.0359;
444.0000;0.1514;-0.0503;
444.3000;0.1579;-0.0335;
444.6000;0.1506;-0.0503;
444.9000;0.1587;-0.0240;
445.2000;0.1579;-0.0192;
445.5000;0.1547;-0.0168;
445.8000;0.1547;-0.0120;
446.1000;0.1514;-0.0120;
446.4000;0.1563;-0.0120;
446.7000;0.1595;0.0000;
447.0000;0.1555;-0.0024;
447.3000;0.1555;0.0000;
447.6000;0.1579;0.0048;
447.9000;0.1555;0.0000;
448.2000;0.1498;-0.0096;
448.5000;0.1538;0.0096;
448.8000;0.1547;0.0072;
449.1000;0.1587;0.0168;
449.4000;0.1563;0.0048;
449.7000;0.1677;0.0335;
450.0000;0.1530;0.0000;
450.3000;0.1563;0.0048;
450.6000;0.1555;0.0072;
450.9000;0.1579;0.0120;
451.2000;0.1604;0.0216;
451.5000;0.1490;-0.0168;
451.8000;0.1506;-0.0168;
452.1000;0.1571;0.0000;
452.4000;0.1579;-0.0096;
452.7000;0.1563;-0.0120;
453.0000;0.1547;-0.0240;
453.3000;0.1547;-0.0096;
453.6000;0.1587;0.0048;
453.9000;0.1571;-0.0024;
454.2000;0.1579;-0.0096;
454.5000;0.1547;-0.0144;
454.8000;0.1579;-0.0048;
455.1000;0.1604;-0.0024;
455.4000;0.1604;-0.0072;
455.7000;0.1571;-0.0216;
456.0000;0.1555;-0.0216;
456.3000;0.1514;-0.0311;
456.6000;0.1571;-0.0072;
456.9000;0.1563;-0.0096;
457.2000;0.1571;-0.0168;
457.5000;0.1555;-0.0144;
457.8000;0.1579;-0.0048;
458.1000;0.1579;-0.0072;
458.4000;0.1571;-0.0216;
458.7000;0.1555;-0.0192;
459.0000;0.1563;-0.0192;
459.3000;0.1620;-0.0024;
459.6000;0.1538;-0.0264;
459.9000;0.1522;-0.0288;
460.2000;0.1587;-0.0144;
460.5000;0.1644;0.0048;
460.8000;0.1612;0.0072;
461.1000;0.1571;-0.0072;
461.4000;0.1563;-0.0192;
461.7000;0.1490;-0.0359;
462.0000;0.1587;-0.0072;
462.3000;0.1595;-0.0096;
462.6000;0.1628;0.0048;
462.9000;0.1571;-0.0168;
463.2000;0.1571;-0.0288;
463.5000;0.1547;-0.0335;
463.8000;0.1644;-0.0024;
464.1000;0.1571;-0.0216;
464.4000;0.1473;-0.0479;
464.7000;0.1587;-0.0192;
465.0000;0.1571;-0.0216;
465.3000;0.1547;-0.0311;
465.6000;0.1563;-0.0240;
465.9000;0.1555;-0.0216;
466.2000;0.1612;-0.0144;
466.5000;0.1555;-0.0311;
466.8000;0.1587;-0.0168;
467.1000;0.1563;-0.0120;
467.4000;0.1579;-0.0048;
467.7000;0.1571;-0.0024;
468.0000;0.1628;0.0168;
468.3000;0.1595;0.0072;
468.6000;0.1604;0.0072;
468.9000;0.1612;0.0024;
469.2000;0.1555;-0.0144;
469.5000;0.1604;0.0024;
469.8000;0.1587;-0.0072;
470.1000;0.1604;0.0000;
470.4000;0.1579;-0.0048;
470.7000;0.1571;0.0024;
471.0000;0.1547;-0.0072;
471.3000;0.1579;-0.0024;
471.6000;0.1571;0.0096;
471.9000;0.1522;-0.0096;
472.2000;0.1563;-0.0144;
472.5000;0.1563;-0.0168;
472.8000;0.1538;-0.0192;
473.1000;0.1563;-0.0192;
473.4000;0.1579;-0.0216;
473.7000;0.1547;-0.0311;
474.0000;0.1620;-0.0144;
474.3000;0.1571;-0.0216;
474.6000;0.1547;-0.0264;
474.9000;0.1563;-0.0216;
475.2000;0.1571;-0.0216;
475.5000;0.1547;-0.0264;
475.8000;0.1587;-0.0240;
476.1000;0.1579;-0.0144;
476.4000;0.1571;-0.0240;
476.7000;0.1579;-0.0192;
477.0000;0.1555;-0.0216;
477.3000;0.1555;-0.0240;
477.6000;0.1555;-0.0264;
477.9000;0.1547;-0.0335;
478.2000;0.1661;0.0024;
478.5000;0.1555;-0.0240;
478.8000;0.1571;-0.0192;
479.1000;0.1579;-0.0264;
479.4000;0.1571;-0.0335;
479.7000;0.1563;-0.0335;
480.0000;0.1563;-0.0240;
480.3000;0.1530;-0.0383;
480.6000;0.1563;-0.0264;
480.9000;0.1555;-0.0288;
481.2000;0.1481;-0.0431;
481.5000;0.1563;-0.0216;
481.8000;0.1571;-0.0120;
482.1000;0.1547;-0.0144;
482.4000;0.1563;-0.0120;
482.7000;0.1563;0.0000;
483.0000;0.1571;0.0072;
483.3000;0.1612;0.0096;
483.6000;0.1538;-0.0120;
483.9000;0.1547;-0.0096;
484.2000;0.1555;-0.0096;
484.5000;0.1563;-0.0048;
484.8000;0.1522;-0.0216;
485.1000;0.1563;-0.0168;
485.4000;0.1555;-0.0168;
485.7000;0.1481;-0.0264;
486.0000;0.1579;-0.0048;
486.3000;0.1514;-0.0288;
486.6000;0.1522;-0.0240;
486.9000;0.1522;-0.0192;
487.2000;0.1571;-0.0168;
487.5000;0.1595;-0.0096;
487.8000;0.1604;-0.0144;
488.1000;0.1579;-0.0144;
488.4000;0.1563;-0.0168;
488.7000;0.1595;-0.0048;
489.0000;0.1587;-0.0072;
489.3000;0.1620;0.0120;
489.6000;0.1563;-0.0048;
489.9000;0.1555;-0.0072;
490.2000;0.1563;0.0000;
490.5000;0.1555;-0.0048;
490.8000;0.1563;-0.0096;
491.1000;0.1563;-0.0120;
491.4000;0.1506;-0.0264;
491.7000;0.1547;-0.0192;
492.0000;0.1563;-0.0168;
492.3000;0.1571;-0.0192;
492.6000;0.1587;-0.0048;
492.9000;0.1685;0.0192;
493.2000;0.1563;-0.0096;
493.5000;0.1490;-0.0216;
493.8000;0.1636;0.0096;
494.1000;0.1571;-0.0024;
494.4000;0.1579;0.0048;
494.7000;0.1563;-0.0024;
495.0000;0.1555;-0.0096;
495.3000;0.1563;-0.0168;
495.6000;0.1563;-0.0168;
495.9000;0.1555;-0.0120;
496.2000;0.1555;-0.0096;
496.5000;0.1506;-0.0144;
496.8000;0.1547;-0.0048;
497.1000;0.1547;-0.0096;
497.4000;0.1571;-0.0120;
497.7000;0.1571;-0.0024;
498.0000;0.1563;-0.0072;
498.3000;0.1579;0.0000;
498.6000;0.1522;-0.0168;
498.9000;0.1563;-0.0072;
499.2000;0.1579;-0.0048;
499.5000;0.1563;0.0000;
499.8000;0.1579;0.0072;
500.1000;0.1636;0.0264;
500.4000;0.1563;0.0072;
500.7000;0.1547;0.0024;
501.0000;0.1563;-0.0048;
501.3000;0.1433;-0.0311;
501.6000;0.1571;0.0168;
501.9000;0.1563;0.0216;
502.2000;0.1563;0.0144;
502.5000;0.1620;0.0264;
502.8000;0.1563;0.0144;
503.1000;0.1571;0.0216;
503.4000;0.1530;0.0048;
503.7000;0.1555;0.0120;
504.0000;0.1563;0.0024;
504.3000;0.1522;-0.0096;
504.6000;0.1547;0.0000;
504.9000;0.1547;0.0096;
505.2000;0.1563;0.0168;
505.5000;0.1571;0.0144;
505.8000;0.1587;0.0192;
506.1000;0.1538;0.0072;
506.4000;0.1579;0.0072;
506.7000;0.1547;0.0024;
507.0000;0.1555;-0.0024;
507.3000;0.1506;-0.0168;
507.6000;0.1579;-0.0072;
507.9000;0.1571;-0.0120;
508.2000;0.1563;-0.0096;
508.5000;0.1514;-0.0216;
508.8000;0.1563;0.0024;
509.1000;0.1587;0.0168;
509.4000;0.1571;0.0096;
509.7000;0.1579;0.0096;
510.0000;0.1563;0.0096;
510.3000;0.1555;0.0048;
510.6000;0.1571;0.0048;
510.9000;0.1473;-0.0240;
511.2000;0.1563;-0.0096;
511.5000;0.1579;-0.0072;
511.8000;0.1685;0.0144;
512.1000;0.1538;-0.0216;
512.4000;0.1555;-0.0192;
512.7000;0.1555;-0.0216;
513.0000;0.1595;-0.0192;
513.3000;0.1538;-0.0311;
513.6000;0.1538;-0.0216;
513.9000;0.1530;-0.0288;
514.2000;0.1595;-0.0048;
514.5000;0.1595;-0.0072;
514.8000;0.1563;-0.0120;
515.1000;0.1555;-0.0120;
515.4000;0.1571;-0.0072;
515.7000;0.1563;-0.0024;
516.0000;0.1506;-0.0240;
516.3000;0.1555;-0.0120;
516.6000;0.1571;-0.0072;
516.9000;0.1587;-0.0072;
517.2000;0.1555;-0.0120;
517.5000;0.1563;-0.0192;
517.8000;0.1547;-0.0240;
518.1000;0.1547;-0.0311;
518.4000;0.1547;-0.0264;
518.7000;0.1579;-0.0216;
519.0000;0.1612;-0.0120;
519.3000;0.1579;-0.0240;
519.6000;0.1652;0.0024;
519.9000;0.1563;-0.0240;
520.2000;0.1563;-0.0192;
520.5000;0.1579;-0.0144;
520.8000;0.1587;0.0000;
521.1000;0.1571;-0.0120;
521.4000;0.1579;-0.0048;
521.7000;0.1547;-0.0144;
522.0000;0.1522;-0.0144;
522.3000;0.1547;-0.0168;
522.6000;0.1563;-0.0144;
522.9000;0.1547;-0.0216;
523.2000;0.1547;-0.0216;
523.5000;0.1587;-0.0096;
523.8000;0.1563;-0.0144;
524.1000;0.1563;-0.0072;
524.4000;0.1571;-0.0072;
524.7000;0.1571;-0.0096;
525.0000;0.1555;-0.0168;
525.3000;0.1587;-0.0120;
525.6000;0.1547;-0.0240;
525.9000;0.1547;-0.0264;
526.2000;0.1563;-0.0192;
526.5000;0.1538;-0.0192;
526.8000;0.1579;-0.0144;
527.1000;0.1547;-0.0216;
527.4000;0.1563;-0.0144;
527.7000;0.1563;-0.0072;
528.0000;0.1571;-0.0048;
528.3000;0.1571;-0.0048;
528.6000;0.1555;-0.0048;
528.9000;0.1555;-0.0072;
529.2000;0.1563;-0.0072;
529.5000;0.1579;-0.0072;
529.8000;0.1595;-0.0024;
530.1000;0.1571;-0.0120;
530.4000;0.1538;-0.0144;
530.7000;0.1538;-0.0168;
531.0000;0.1604;-0.0048;
531.3000;0.1563;-0.0120;
531.6000;0.1547;-0.0192;
531.9000;0.1547;-0.0288;
532.2000;0.1587;-0.0120;
532.5000;0.1579;0.0024;
532.8000;0.1579;0.0072;
533.1000;0.1563;0.0072;
533.4000;0.1563;0.0000;
533.7000;0.1571;0.0000;
534.0000;0.1587;0.0072;
534.3000;0.1571;-0.0024;
534.6000;0.1555;-0.0048;
534.9000;0.1571;0.0000;
535.2000;0.1514;-0.0168;
535.5000;0.1555;-0.0120;
535.8000;0.1595;-0.0192;
536.1000;0.1547;-0.0240;
536.4000;0.1563;-0.0192;
536.7000;0.1579;-0.0072;
537.0000;0.1555;-0.0096;
537.3000;0.1563;-0.0144;
537.6000;0.1563;-0.0072;
537.9000;0.1571;0.0000;
538.2000;0.1595;0.0024;
538.5000;0.1587;0.0072;
538.8000;0.1571;0.0024;
539.1000;0.1563;-0.0024;
539.4000;0.1718;0.0431;
539.7000;0.1547;0.0048;
540.0000;0.1555;0.0072;
540.3000;0.1571;0.0144;
540.6000;0.1579;0.0048;
540.9000;0.1506;-0.0168;
541.2000;0.1571;-0.0072;
541.5000;0.1579;-0.0096;
541.8000;0.1571;-0.0120;
542.1000;0.1530;-0.0240;
542.4000;0.1547;-0.0264;
542.7000;0.1514;-0.0359;
543.0000;0.1644;-0.0024;
543.3000;0.1547;-0.0359;
543.6000;0.1563;-0.0359;
543.9000;0.1579;-0.0288;
544.2000;0.1571;-0.0216;
544.5000;0.1563;-0.0240;
544.8000;0.1571;-0.0192;
545.1000;0.1563;-0.0144;
545.4000;0.1571;-0.0216;
545.7000;0.1555;-0.0264;
546.0000;0.1579;-0.0144;
546.3000;0.1579;-0.0288;
546.6000;0.1571;-0.0216;
546.9000;0.1579;-0.0096;
547.2000;0.1579;-0.0144;
547.5000;0.1620;-0.0120;
547.8000;0.1579;-0.0216;
548.1000;0.1579;-0.0216;
548.4000;0.1571;-0.0168;
548.7000;0.1579;-0.0192;
549.0000;0.1530;-0.0288;
549.3000;0.1579;-0.0168;
549.6000;0.1555;-0.0168;
549.9000;0.1587;-0.0120;
550.2000;0.1506;-0.0359;
550.5000;0.1547;-0.0240;
550.8000;0.1571;-0.0168;
551.1000;0.1563;-0.0096;
551.4000;0.1547;-0.0192;
551.7000;0.1563;-0.0288;
552.0000;0.1579;-0.0335;
552.3000;0.1579;-0.0311;
552.6000;0.1547;-0.0311;
552.9000;0.1604;-0.0120;
553.2000;0.1571;-0.0144;
553.5000;0.1587;-0.0144;
553.8000;0.1587;-0.0168;
554.1000;0.1571;-0.0168;
554.4000;0.1563;-0.0144;
554.7000;0.1579;-0.0024;
555.0000;0.1571;-0.0048;
555.3000;0.1538;-0.0144;
555.6000;0.1555;-0.0168;
555.9000;0.1587;-0.0072;
556.2000;0.1465;-0.0407;
556.5000;0.1669;0.0240;
556.8000;0.1538;-0.0120;
557.1000;0.1579;-0.0072;
557.4000;0.1498;-0.0311;
557.7000;0.1506;-0.0264;
558.0000;0.1555;-0.0168;
558.3000;0.1449;-0.0359;
558.6000;0.1587;-0.0024;
558.9000;0.1628;0.0024;
559.2000;0.1563;-0.0072;
559.5000;0.1579;-0.0144;
559.8000;0.1498;-0.0240;
560.1000;0.1563;-0.0072;
560.4000;0.1571;-0.0072;
560.7000;0.1604;0.0000;
561.0000;0.1547;-0.0240;
561.3000;0.1538;-0.0168;
561.6000;0.1563;-0.0168;
561.9000;0.1384;-0.0599;
562.2000;0.1571;-0.0024;
562.5000;0.1538;-0.0048;
562.8000;0.1530;-0.0096;
563.1000;0.1587;0.0000;
563.4000;0.1530;-0.0120;
563.7000;0.1571;0.0048;
564.0000;0.1734;0.0431;
564.3000;0.1538;-0.0120;
564.6000;0.1595;-0.0024;
564.9000;0.1579;0.0024;
565.2000;0.1563;-0.0096;
565.5000;0.1522;-0.0288;
565.8000;0.1555;-0.0240;
566.1000;0.1579;-0.0216;
566.4000;0.1547;-0.0168;
566.7000;0.1571;-0.0024;
567.0000;0.1555;-0.0048;
567.3000;0.1571;0.0048;
567.6000;0.1563;0.0000;
567.9000;0.1555;0.0024;
568.2000;0.1547;-0.0048;
568.5000;0.1555;0.0024;
568.8000;0.1587;0.0048;
569.1000;0.1547;-0.0072;
569.4000;0.1579;-0.0048;
569.7000;0.1587;0.0024;
570.0000;0.1571;-0.0048;
570.3000;0.1579;-0.0048;
570.6000;0.1555;-0.0168;
570.9000;0.1579;-0.0096;
571.2000;0.1555;-0.0120;
571.5000;0.1555;-0.0024;
571.8000;0.1604;-0.0096;
572.1000;0.1555;-0.0216;
572.4000;0.1604;-0.0096;
572.7000;0.1547;-0.0168;
573.0000;0.1555;-0.0120;
573.3000;0.1628;0.0000;
573.6000;0.1555;-0.0168;
573.9000;0.1571;-0.0096;
574.2000;0.1547;-0.0192;
574.5000;0.1563;-0.0264;
574.8000;0.1612;-0.0168;
575.1000;0.1709;0.0096;
575.4000;0.1620;-0.0168;
575.7000;0.1555;-0.0240;
576.0000;0.1571;-0.0240;
576.3000;0.1571;-0.0264;
576.6000;0.1587;-0.0335;
576.9000;0.1547;-0.0383;
577.2000;0.1555;-0.0288;
577.5000;0.1514;-0.0407;
577.8000;0.1563;-0.0240;
578.1000;0.1571;-0.0240;
578.4000;0.1620;-0.0144;
578.7000;0.1563;-0.0264;
579.0000;0.1563;-0.0288;
579.3000;0.1620;-0.0096;
579.6000;0.1595;-0.0120;
579.9000;0.1555;-0.0168;
580.2000;0.1530;-0.0335;
580.5000;0.1571;-0.0216;
580.8000;0.1579;-0.0192;
581.1000;0.1563;-0.0168;
581.4000;0.1579;-0.0120;
581.7000;0.1571;-0.0144;
582.0000;0.1571;-0.0120;
582.3000;0.1555;-0.0168;
582.6000;0.1636;0.0072;
582.9000;0.1481;-0.0359;
583.2000;0.1571;-0.0192;
583.5000;0.1547;-0.0216;
583.8000;0.1563;-0.0168;
584.1000;0.1522;-0.0240;
584.4000;0.1579;-0.0120;
584.7000;0.1563;-0.0144;
585.0000;0.1571;-0.0192;
585.3000;0.1571;-0.0120;
585.6000;0.1571;-0.0192;
585.9000;0.1563;-0.0288;
586.2000;0.1571;-0.0335;
586.5000;0.1563;-0.0335;
586.8000;0.1563;-0.0359;
587.1000;0.1555;-0.0431;
587.4000;0.1563;-0.0407;
587.7000;0.1571;-0.0383;
588.0000;0.1571;-0.0311;
588.3000;0.1547;-0.0407;
588.6000;0.1571;-0.0335;
588.9000;0.1595;-0.0216;
589.2000;0.1538;-0.0335;
589.5000;0.1555;-0.0311;
589.8000;0.1555;-0.0335;
590.1000;0.1579;-0.0216;
590.4000;0.1571;-0.0216;
590.7000;0.1579;-0.0216;
591.0000;0.1693;0.0144;
591.3000;0.1555;-0.0168;
591.6000;0.1538;-0.0216;
591.9000;0.1579;-0.0096;
592.2000;0.1547;-0.0192;
592.5000;0.1555;-0.0168;
592.8000;0.1563;-0.0120;
593.1000;0.1538;-0.0168;
593.4000;0.1571;-0.0168;
593.7000;0.1538;-0.0240;
594.0000;0.1563;-0.0240;
594.3000;0.1457;-0.0479;
594.6000;0.1538;-0.0192;
594.9000;0.1571;-0.0048;
595.2000;0.1555;-0.0024;
595.5000;0.1555;0.0000;
595.8000;0.1587;0.0072;
596.1000;0.1628;0.0240;
596.4000;0.1571;0.0072;
596.7000;0.1555;-0.0024;
597.0000;0.1579;0.0072;
597.3000;0.1481;-0.0168;
597.6000;0.1555;0.0024;
597.9000;0.1563;-0.0072;
598.2000;0.1595;-0.0096;
598.5000;0.1563;-0.0144;
598.8000;0.1571;-0.0072;
599.1000;0.1490;-0.0311;
599.4000;0.1571;-0.0096;
599.7000;0.1571;-0.0096;
600.0000;0.1579;-0.0096;
600.3000;0.1571;-0.0120;
600.6000;0.1579;-0.0168;
600.9000;0.1555;-0.0288;
601.2000;0.1547;-0.0359;
601.5000;0.1547;-0.0503;
601.8000;0.1530;-0.0671;
602.1000;0.1530;-0.0791;
602.4000;0.1530;-0.0910;
602.7000;0.1514;-0.1006;
603.0000;0.1441;-0.1342;
603.3000;0.1506;-0.1294;
603.6000;0.1530;-0.1366;
603.9000;0.1555;-0.1438;
604.2000;0.1441;-0.1773;
604.5000;0.1628;-0.1318;
604.8000;0.1481;-0.1677;
605.1000;0.1506;-0.1701;
605.4000;0.1490;-0.1749;
605.7000;0.1481;-0.1869;
606.0000;0.1481;-0.1965;
606.3000;0.1514;-0.1893;
606.6000;0.1473;-0.1989;
606.9000;0.1481;-0.2061;
607.2000;0.1473;-0.2132;
607.5000;0.1473;-0.2085;
607.8000;0.1481;-0.2085;
608.1000;0.1490;-0.2108;
608.4000;0.1498;-0.2037;
608.7000;0.1481;-0.2085;
609.0000;0.1392;-0.2300;
609.3000;0.1481;-0.2013;
609.6000;0.1465;-0.2085;
609.9000;0.1449;-0.2228;
610.2000;0.1449;-0.2324;
610.5000;0.1433;-0.2348;
610.8000;0.1441;-0.2324;
611.1000;0.1473;-0.2252;
611.4000;0.1465;-0.2252;
611.7000;0.1473;-0.2300;
612.0000;0.1465;-0.2324;
612.3000;0.1490;-0.2228;
612.6000;0.1392;-0.2396;
612.9000;0.1465;-0.2252;
613.2000;0.1457;-0.2300;
613.5000;0.1457;-0.2276;
613.8000;0.1481;-0.2180;
614.1000;0.1571;-0.1965;
614.4000;0.1481;-0.2276;
614.7000;0.1465;-0.2396;
615.0000;0.1465;-0.2396;
615.3000;0.1481;-0.2324;
615.6000;0.1498;-0.2276;
615.9000;0.1457;-0.2420;
616.2000;0.1449;-0.2396;
616.5000;0.1465;-0.2420;
616.8000;0.1481;-0.2468;
617.1000;0.1506;-0.2420;
617.4000;0.1473;-0.2372;
617.7000;0.1449;-0.2468;
618.0000;0.1457;-0.2468;
618.3000;0.1490;-0.2444;
618.6000;0.1473;-0.2468;
618.9000;0.1514;-0.2276;
619.2000;0.1465;-0.2420;
619.5000;0.1449;-0.2492;
619.8000;0.1392;-0.2684;
620.1000;0.1457;-0.2492;
620.4000;0.1457;-0.2492;
620.7000;0.1481;-0.2444;
621.0000;0.1433;-0.2540;
621.3000;0.1473;-0.2540;
621.6000;0.1473;-0.2540;
621.9000;0.1384;-0.2779;
622.2000;0.1384;-0.2707;
622.5000;0.1473;-0.2420;
622.8000;0.1481;-0.2396;
623.1000;0.1481;-0.2324;
623.4000;0.1441;-0.2468;
623.7000;0.1514;-0.2228;
624.0000;0.1441;-0.2396;
624.3000;0.1481;-0.2324;
624.6000;0.1465;-0.2420;
624.9000;0.1457;-0.2420;
625.2000;0.1433;-0.2396;
625.5000;0.1457;-0.2444;
625.8000;0.1457;-0.2492;
626.1000;0.1465;-0.2372;
626.4000;0.1473;-0.2324;
626.7000;0.1449;-0.2324;
627.0000;0.1433;-0.2324;
627.3000;0.1441;-0.2396;
627.6000;0.1457;-0.2396;
627.9000;0.1449;-0.2396;
628.2000;0.1449;-0.2516;
628.5000;0.1433;-0.2588;
628.8000;0.1376;-0.2684;
629.1000;0.1465;-0.2372;
629.4000;0.1465;-0.2276;
629.7000;0.1449;-0.2324;
630.0000;0.1498;-0.2204;
630.3000;0.1457;-0.2348;
630.6000;0.1465;-0.2420;
630.9000;0.1563;-0.2180;
631.2000;0.1457;-0.2516;
631.5000;0.1522;-0.2396;
631.8000;0.1465;-0.2420;
632.1000;0.1400;-0.2564;
632.4000;0.1465;-0.2396;
632.7000;0.1425;-0.2468;
633.0000;0.1506;-0.2324;
633.3000;0.1425;-0.2420;
633.6000;0.1547;-0.2108;
633.9000;0.1408;-0.2516;
634.2000;0.1457;-0.2420;
634.5000;0.1465;-0.2372;
634.8000;0.1449;-0.2444;
635.1000;0.1408;-0.2492;
635.4000;0.1481;-0.2348;
635.7000;0.1457;-0.2348;
636.0000;0.1311;-0.2707;
636.3000;0.1433;-0.2492;
636.6000;0.1425;-0.2420;
636.9000;0.1457;-0.2348;
637.2000;0.1498;-0.2252;
637.5000;0.1457;-0.2372;
637.8000;0.1465;-0.2396;
638.1000;0.1449;-0.2516;
638.4000;0.1465;-0.2516;
638.7000;0.1457;-0.2516;
639.0000;0.1465;-0.2540;
639.3000;0.1481;-0.2588;
639.6000;0.1490;-0.2564;
639.9000;0.1465;-0.2540;
640.2000;0.1481;-0.2468;
640.5000;0.1473;-0.2420;
640.8000;0.1473;-0.2372;
641.1000;0.1465;-0.2348;
641.4000;0.1425;-0.2372;
641.7000;0.1441;-0.2372;
642.0000;0.1457;-0.2372;
642.3000;0.1457;-0.2420;
642.6000;0.1449;-0.2372;
642.9000;0.1465;-0.2300;
643.2000;0.1433;-0.2348;
643.5000;0.1457;-0.2372;
643.8000;0.1449;-0.2348;
644.1000;0.1473;-0.2276;
644.4000;0.1538;-0.2228;
644.7000;0.1457;-0.2468;
645.0000;0.1465;-0.2444;
645.3000;0.1465;-0.2468;
645.6000;0.1473;-0.2444;
645.9000;0.1449;-0.2564;
646.2000;0.1457;-0.2564;
646.5000;0.1465;-0.2492;
646.8000;0.1441;-0.2588;
647.1000;0.1473;-0.2468;
647.4000;0.1473;-0.2564;
647.7000;0.1449;-0.2684;
648.0000;0.1449;-0.2755;
648.3000;0.1465;-0.2755;
648.6000;0.1473;-0.2636;
648.9000;0.1481;-0.2564;
649.2000;0.1449;-0.2588;
649.5000;0.1473;-0.2468;
649.8000;0.1465;-0.2396;
650.1000;0.1449;-0.2372;
650.4000;0.1449;-0.2348;
650.7000;0.1376;-0.2516;
651.0000;0.1441;-0.2372;
651.3000;0.1465;-0.2252;
651.6000;0.1449;-0.2396;
651.9000;0.1465;-0.2348;
652.2000;0.1441;-0.2372;
652.5000;0.1449;-0.2444;
652.8000;0.1465;-0.2444;
653.1000;0.1457;-0.2468;
653.4000;0.1465;-0.2468;
653.7000;0.1441;-0.2540;
654.0000;0.1449;-0.2492;
654.3000;0.1441;-0.2468;
654.6000;0.1465;-0.2444;
654.9000;0.1555;-0.2132;
655.2000;0.1457;-0.2468;
655.5000;0.1433;-0.2468;
655.8000;0.1408;-0.2492;
656.1000;0.1392;-0.2564;
656.4000;0.1449;-0.2492;
656.7000;0.1449;-0.2516;
657.0000;0.1547;-0.2372;
657.3000;0.1433;-0.2684;
657.6000;0.1449;-0.2636;
657.9000;0.1457;-0.2564;
658.2000;0.1457;-0.2492;
658.5000;0.1343;-0.2803;
658.8000;0.1465;-0.2396;
659.1000;0.1481;-0.2372;
659.4000;0.1400;-0.2564;
659.7000;0.1449;-0.2396;
660.0000;0.1498;-0.2228;
660.3000;0.1457;-0.2300;
660.6000;0.1449;-0.2324;
660.9000;0.1449;-0.2396;
661.2000;0.1465;-0.2300;
661.5000;0.1449;-0.2348;
661.8000;0.1457;-0.2444;
662.1000;0.1449;-0.2372;
662.4000;0.1449;-0.2444;
662.7000;0.1457;-0.2492;
663.0000;0.1465;-0.2516;
663.3000;0.1449;-0.2492;
663.6000;0.1457;-0.2516;
663.9000;0.1433;-0.2612;
664.2000;0.1441;-0.2564;
664.5000;0.1416;-0.2660;
664.8000;0.1441;-0.2588;
665.1000;0.1441;-0.2612;
665.4000;0.1441;-0.2684;
665.7000;0.1441;-0.2636;
666.0000;0.1433;-0.2612;
666.3000;0.1490;-0.2492;
666.6000;0.1457;-0.2516;
666.9000;0.1481;-0.2420;
667.2000;0.1449;-0.2420;
667.5000;0.1433;-0.2492;
667.8000;0.1481;-0.2468;
668.1000;0.1579;-0.2180;
668.4000;0.1514;-0.2396;
668.7000;0.1481;-0.2396;
669.0000;0.1465;-0.2324;
669.3000;0.1457;-0.2228;
669.6000;0.1522;-0.1941;
669.9000;0.1449;-0.2132;
670.2000;0.1449;-0.2180;
670.5000;0.1481;-0.2156;
670.8000;0.1449;-0.2252;
671.1000;0.1441;-0.2228;
671.4000;0.1449;-0.2228;
671.7000;0.1481;-0.2156;
672.0000;0.1457;-0.2228;
672.3000;0.1465;-0.2252;
672.6000;0.1449;-0.2420;
672.9000;0.1457;-0.2420;
673.2000;0.1481;-0.2516;
673.5000;0.1416;-0.2684;
673.8000;0.1441;-0.2660;
674.1000;0.1465;-0.2612;
674.4000;0.1457;-0.2636;
674.7000;0.1457;-0.2564;
675.0000;0.1351;-0.2803;
675.3000;0.1441;-0.2468;
675.6000;0.1506;-0.2348;
675.9000;0.1449;-0.2516;
676.2000;0.1441;-0.2540;
676.5000;0.1400;-0.2660;
676.8000;0.1457;-0.2564;
677.1000;0.1481;-0.2348;
677.4000;0.1465;-0.2372;
677.7000;0.1441;-0.2420;
678.0000;0.1506;-0.2204;
678.3000;0.1465;-0.2324;
678.6000;0.1433;-0.2300;
678.9000;0.1343;-0.2540;
679.2000;0.1449;-0.2276;
679.5000;0.1449;-0.2300;
679.8000;0.1473;-0.2204;
680.1000;0.1441;-0.2300;
680.4000;0.1530;-0.2204;
680.7000;0.1449;-0.2348;
681.0000;0.1376;-0.2564;
681.3000;0.1457;-0.2396;
681.6000;0.1457;-0.2300;
681.9000;0.1457;-0.2300;
682.2000;0.1530;-0.2156;
682.5000;0.1465;-0.2372;
682.8000;0.1457;-0.2420;
683.1000;0.1457;-0.2516;
683.4000;0.1449;-0.2636;
683.7000;0.1465;-0.2684;
684.0000;0.1522;-0.2372;
684.3000;0.1449;-0.2444;
684.6000;0.1457;-0.2324;
684.9000;0.1473;-0.2252;
685.2000;0.1465;-0.2348;
685.5000;0.1457;-0.2300;
685.8000;0.1457;-0.2300;
686.1000;0.1465;-0.2276;
686.4000;0.1441;-0.2324;
686.7000;0.1457;-0.2276;
687.0000;0.1481;-0.2252;
687.3000;0.1457;-0.2396;
687.6000;0.1473;-0.2372;
687.9000;0.1457;-0.2420;
688.2000;0.1433;-0.2444;
688.5000;0.1408;-0.2540;
688.8000;0.1473;-0.2324;
689.1000;0.1571;-0.1989;
689.4000;0.1490;-0.2276;
689.7000;0.1465;-0.2348;
690.0000;0.1465;-0.2348;
690.3000;0.1416;-0.2468;
690.6000;0.1457;-0.2444;
690.9000;0.1465;-0.2492;
691.2000;0.1498;-0.2372;
691.5000;0.1465;-0.2540;
691.8000;0.1457;-0.2540;
692.1000;0.1433;-0.2540;
692.4000;0.1465;-0.2444;
692.7000;0.1433;-0.2468;
693.0000;0.1465;-0.2372;
693.3000;0.1441;-0.2372;
693.6000;0.1465;-0.2324;
693.9000;0.1457;-0.2324;
694.2000;0.1465;-0.2276;
694.5000;0.1449;-0.2348;
694.8000;0.1490;-0.2204;
695.1000;0.1530;-0.2037;
695.4000;0.1416;-0.2396;
695.7000;0.1465;-0.2300;
696.0000;0.1449;-0.2372;
696.3000;0.1441;-0.2420;
696.6000;0.1449;-0.2468;
696.9000;0.1433;-0.2492;
697.2000;0.1465;-0.2468;
697.5000;0.1457;-0.2420;
697.8000;0.1473;-0.2396;
698.1000;0.1457;-0.2396;
698.4000;0.1449;-0.2420;
698.7000;0.1465;-0.2444;
699.0000;0.1449;-0.2396;
699.3000;0.1449;-0.2396;
699.6000;0.1449;-0.2468;
699.9000;0.1473;-0.2348;
700.2000;0.1449;-0.2396;
700.5000;0.1457;-0.2396;
700.8000;0.1433;-0.2540;
701.1000;0.1473;-0.2396;
701.4000;0.1441;-0.2444;
701.7000;0.1457;-0.2444;
702.0000;0.1441;-0.2564;
702.3000;0.1449;-0.2540;
702.6000;0.1481;-0.2444;
702.9000;0.1457;-0.2588;
703.2000;0.1457;-0.2588;
703.5000;0.1481;-0.2492;
703.8000;0.1506;-0.2372;
704.1000;0.1449;-0.2564;
704.4000;0.1441;-0.2492;
704.7000;0.1465;-0.2492;
705.0000;0.1457;-0.2492;
705.3000;0.1400;-0.2612;
705.6000;0.1441;-0.2444;
705.9000;0.1449;-0.2420;
706.2000;0.1416;-0.2564;
706.5000;0.1465;-0.2348;
706.8000;0.1465;-0.2420;
707.1000;0.1433;-0.2564;
707.4000;0.1506;-0.2396;
707.7000;0.1425;-0.2660;
708.0000;0.1473;-0.2516;
708.3000;0.1465;-0.2516;
708.6000;0.1441;-0.2564;
708.9000;0.1457;-0.2468;
709.2000;0.1408;-0.2731;
709.5000;0.1465;-0.2540;
709.8000;0.1359;-0.2755;
710.1000;0.1465;-0.2540;
710.4000;0.1449;-0.2564;
710.7000;0.1457;-0.2564;
711.0000;0.1449;-0.2492;
711.3000;0.1457;-0.2540;
711.6000;0.1449;-0.2588;
711.9000;0.1457;-0.2636;
712.2000;0.1449;-0.2660;
712.5000;0.1433;-0.2660;
712.8000;0.1457;-0.2660;
713.1000;0.1465;-0.2540;
713.4000;0.1319;-0.2875;
713.7000;0.1530;-0.2348;
714.0000;0.1449;-0.2636;
714.3000;0.1449;-0.2612;
714.6000;0.1433;-0.2612;
714.9000;0.1433;-0.2540;
715.2000;0.1465;-0.2492;
715.5000;0.1457;-0.2540;
715.8000;0.1449;-0.2516;
716.1000;0.1433;-0.2540;
716.4000;0.1530;-0.2300;
716.7000;0.1530;-0.2348;
717.0000;0.1425;-0.2564;
717.3000;0.1433;-0.2564;
717.6000;0.1425;-0.2612;
717.9000;0.1481;-0.2444;
718.2000;0.1465;-0.2540;
718.5000;0.1441;-0.2540;
718.8000;0.1441;-0.2540;
719.1000;0.1514;-0.2324;
719.4000;0.1457;-0.2444;
719.7000;0.1449;-0.2492;
720.0000;0.1457;-0.2444;
720.3000;0.1457;-0.2444;
720.6000;0.1457;-0.2516;
720.9000;0.1441;-0.2540;
721.2000;0.1481;-0.2516;
721.5000;0.1457;-0.2516;
721.8000;0.1473;-0.2516;
722.1000;0.1433;-0.2468;
722.4000;0.1457;-0.2444;
722.7000;0.1441;-0.2540;
723.0000;0.1481;-0.2420;
723.3000;0.1449;-0.2444;
723.6000;0.1449;-0.2396;
723.9000;0.1359;-0.2516;
724.2000;0.1481;-0.2228;
724.5000;0.1449;-0.2348;
724.8000;0.1449;-0.2396;
725.1000;0.1465;-0.2420;
725.4000;0.1449;-0.2492;
725.7000;0.1481;-0.2540;
726.0000;0.1408;-0.2707;
726.3000;0.1441;-0.2612;
726.6000;0.1449;-0.2564;
726.9000;0.1433;-0.2540;
727.2000;0.1481;-0.2468;
727.5000;0.1433;-0.2468;
727.8000;0.1473;-0.2372;
728.1000;0.1425;-0.2348;
728.4000;0.1449;-0.2396;
728.7000;0.1490;-0.2348;
729.0000;0.1392;-0.2660;
729.3000;0.1384;-0.2684;
729.6000;0.1506;-0.2276;
729.9000;0.1441;-0.2444;
730.2000;0.1530;-0.2252;
730.5000;0.1433;-0.2444;
730.8000;0.1425;-0.2372;
731.1000;0.1473;-0.2276;
731.4000;0.1473;-0.2300;
731.7000;0.1465;-0.2276;
732.0000;0.1514;-0.2085;
732.3000;0.1449;-0.2204;
732.6000;0.1449;-0.2252;
732.9000;0.1449;-0.2204;
733.2000;0.1449;-0.2156;
733.5000;0.1416;-0.2348;
733.8000;0.1530;-0.2132;
734.1000;0.1465;-0.2420;
734.4000;0.1441;-0.2588;
734.7000;0.1465;-0.2540;
735.0000;0.1457;-0.2492;
735.3000;0.1449;-0.2540;
735.6000;0.1400;-0.2707;
735.9000;0.1449;-0.2612;
736.2000;0.1481;-0.2564;
736.5000;0.1449;-0.2588;
736.8000;0.1465;-0.2516;
737.1000;0.1465;-0.2516;
737.4000;0.1449;-0.2516;
737.7000;0.1400;-0.2540;
738.0000;0.1449;-0.2468;
738.3000;0.1490;-0.2300;
738.6000;0.1465;-0.2324;
738.9000;0.1441;-0.2396;
739.2000;0.1441;-0.2444;
739.5000;0.1465;-0.2420;
739.8000;0.1449;-0.2396;
740.1000;0.1498;-0.2228;
740.4000;0.1457;-0.2300;
740.7000;0.1449;-0.2252;
741.0000;0.1416;-0.2300;
741.3000;0.1465;-0.2156;
741.6000;0.1481;-0.2132;
741.9000;0.1465;-0.2085;
742.2000;0.1449;-0.2061;
742.5000;0.1449;-0.2085;
742.8000;0.1457;-0.2108;
743.1000;0.1457;-0.2085;
743.4000;0.1416;-0.2204;
743.7000;0.1457;-0.2108;
744.0000;0.1449;-0.2132;
744.3000;0.1457;-0.2156;
744.6000;0.1449;-0.2252;
744.9000;0.1457;-0.2300;
745.2000;0.1416;-0.2300;
745.5000;0.1465;-0.2180;
745.8000;0.1376;-0.2420;
746.1000;0.1449;-0.2324;
746.4000;0.1433;-0.2420;
746.7000;0.1457;-0.2396;
747.0000;0.1449;-0.2348;
747.3000;0.1449;-0.2276;
747.6000;0.1473;-0.2204;
747.9000;0.1498;-0.2132;
748.2000;0.1457;-0.2252;
748.5000;0.1441;-0.2276;
748.8000;0.1465;-0.2180;
749.1000;0.1522;-0.2061;
749.4000;0.1530;-0.2061;
749.7000;0.1433;-0.2420;
750.0000;0.1449;-0.2324;
750.3000;0.1449;-0.2300;
750.6000;0.1449;-0.2348;
750.9000;0.1449;-0.2420;
751.2000;0.1449;-0.2468;
751.5000;0.1449;-0.2444;
751.8000;0.1441;-0.2420;
752.1000;0.1408;-0.2588;
752.4000;0.1425;-0.2516;
752.7000;0.1465;-0.2420;
753.0000;0.1473;-0.2324;
753.3000;0.1457;-0.2324;
753.6000;0.1457;-0.2372;
753.9000;0.1473;-0.2324;
754.2000;0.1473;-0.2276;
754.5000;0.1449;-0.2372;
754.8000;0.1441;-0.2468;
755.1000;0.1457;-0.2444;
755.4000;0.1465;-0.2444;
755.7000;0.1449;-0.2444;
756.0000;0.1441;-0.2420;
756.3000;0.1441;-0.2420;
756.6000;0.1465;-0.2420;
756.9000;0.1441;-0.2468;
757.2000;0.1449;-0.2444;
757.5000;0.1465;-0.2396;
757.8000;0.1465;-0.2372;
758.1000;0.1457;-0.2396;
758.4000;0.1449;-0.2468;
758.7000;0.1433;-0.2564;
759.0000;0.1449;-0.2492;
759.3000;0.1449;-0.2468;
759.6000;0.1449;-0.2348;
759.9000;0.1368;-0.2588;
760.2000;0.1465;-0.2396;
760.5000;0.1449;-0.2420;
760.8000;0.1579;-0.2013;
761.1000;0.1449;-0.2420;
761.4000;0.1441;-0.2468;
761.7000;0.1465;-0.2396;
762.0000;0.1449;-0.2396;
762.3000;0.1473;-0.2324;
762.6000;0.1433;-0.2444;
762.9000;0.1441;-0.2492;
763.2000;0.1465;-0.2396;
763.5000;0.1408;-0.2492;
763.8000;0.1441;-0.2348;
764.1000;0.1457;-0.2276;
764.4000;0.1449;-0.2228;
764.7000;0.1457;-0.2252;
765.0000;0.1433;-0.2300;
765.3000;0.1457;-0.2180;
765.6000;0.1490;-0.2204;
765.9000;0.1433;-0.2228;
766.2000;0.1473;-0.2180;
766.5000;0.1465;-0.2204;
766.8000;0.1441;-0.2300;
767.1000;0.1465;-0.2324;
767.4000;0.1473;-0.2228;
767.7000;0.1433;-0.2324;
768.0000;0.1449;-0.2372;
768.3000;0.1449;-0.2348;
768.6000;0.1514;-0.2180;
768.9000;0.1441;-0.2324;
769.2000;0.1465;-0.2204;
769.5000;0.1514;-0.2013;
769.8000;0.1457;-0.2108;
770.1000;0.1343;-0.2324;
770.4000;0.1449;-0.2180;
770.7000;0.1457;-0.2228;
771.0000;0.1457;-0.2252;
771.3000;0.1441;-0.2300;
771.6000;0.1449;-0.2372;
771.9000;0.1416;-0.2516;
772.2000;0.1473;-0.2444;
772.5000;0.1457;-0.2468;
772.8000;0.1449;-0.2396;
773.1000;0.1571;-0.2085;
773.4000;0.1449;-0.2444;
773.7000;0.1457;-0.2492;
774.0000;0.1506;-0.2420;
774.3000;0.1441;-0.2612;
774.6000;0.1457;-0.2588;
774.9000;0.1473;-0.2588;
775.2000;0.1481;-0.2540;
775.5000;0.1465;-0.2612;
775.8000;0.1465;-0.2516;
776.1000;0.1408;-0.2755;
776.4000;0.1425;-0.2612;
776.7000;0.1449;-0.2564;
777.0000;0.1473;-0.2420;
777.3000;0.1457;-0.2420;
777.6000;0.1449;-0.2444;
777.9000;0.1473;-0.2300;
778.2000;0.1563;-0.1989;
778.5000;0.1506;-0.2180;
778.8000;0.1449;-0.2324;
779.1000;0.1433;-0.2348;
779.4000;0.1425;-0.2420;
779.7000;0.1481;-0.2204;
780.0000;0.1457;-0.2276;
780.3000;0.1457;-0.2252;
780.6000;0.1506;-0.2108;
780.9000;0.1441;-0.2324;
781.2000;0.1441;-0.2372;
781.5000;0.1457;-0.2300;
781.8000;0.1416;-0.2348;
782.1000;0.1449;-0.2252;
782.4000;0.1351;-0.2444;
782.7000;0.1457;-0.2204;
783.0000;0.1465;-0.2204;
783.3000;0.1425;-0.2276;
783.6000;0.1465;-0.2204;
783.9000;0.1441;-0.2300;
784.2000;0.1408;-0.2492;
784.5000;0.1457;-0.2444;
784.8000;0.1449;-0.2444;
785.1000;0.1538;-0.2204;
785.4000;0.1425;-0.2468;
785.7000;0.1433;-0.2516;
786.0000;0.1465;-0.2396;
786.3000;0.1441;-0.2396;
786.6000;0.1457;-0.2276;
786.9000;0.1433;-0.2396;
787.2000;0.1473;-0.2252;
787.5000;0.1481;-0.2300;
787.8000;0.1449;-0.2348;
788.1000;0.1481;-0.2252;
788.4000;0.1441;-0.2324;
788.7000;0.1449;-0.2300;
789.0000;0.1433;-0.2348;
789.3000;0.1449;-0.2324;
789.6000;0.1538;-0.2061;
789.9000;0.1449;-0.2276;
790.2000;0.1473;-0.2228;
790.5000;0.1441;-0.2276;
790.8000;0.1514;-0.2085;
791.1000;0.1433;-0.2276;
791.4000;0.1473;-0.2252;
791.7000;0.1449;-0.2276;
792.0000;0.1457;-0.2156;
792.3000;0.1425;-0.2156;
792.6000;0.1522;-0.1893;
792.9000;0.1449;-0.2132;
793.2000;0.1457;-0.2204;
793.5000;0.1449;-0.2204;
793.8000;0.1433;-0.2108;
794.1000;0.1449;-0.2037;
794.4000;0.1441;-0.2132;
794.7000;0.1514;-0.1893;
795.0000;0.1473;-0.2061;
795.3000;0.1425;-0.2085;
795.6000;0.1441;-0.2085;
795.9000;0.1400;-0.2132;
796.2000;0.1498;-0.1869;
796.5000;0.1441;-0.2037;
796.8000;0.1335;-0.2348;
797.1000;0.1408;-0.2276;
797.4000;0.1368;-0.2468;
797.7000;0.1441;-0.2252;
798.0000;0.1441;-0.2228;
798.3000;0.1425;-0.2252;
798.6000;0.1457;-0.2061;
798.9000;0.1457;-0.2037;
799.2000;0.1473;-0.2013;
799.5000;0.1441;-0.2085;
799.8000;0.1433;-0.2132;
800.1000;0.1441;-0.2085;
800.4000;0.1408;-0.2228;
800.7000;0.1449;-0.2204;
801.0000;0.1457;-0.2156;
801.3000;0.1530;-0.1917;
801.6000;0.1449;-0.2156;
801.9000;0.1465;-0.2061;
802.2000;0.1433;-0.2156;
802.5000;0.1441;-0.2180;
802.8000;0.1368;-0.2444;
803.1000;0.1457;-0.2156;
803.4000;0.1473;-0.2085;
803.7000;0.1457;-0.2180;
804.0000;0.1449;-0.2228;
804.3000;0.1441;-0.2180;
804.6000;0.1425;-0.2228;
804.9000;0.1457;-0.2180;
805.2000;0.1441;-0.2204;
805.5000;0.1408;-0.2276;
805.8000;0.1465;-0.2085;
806.1000;0.1449;-0.2204;
806.4000;0.1465;-0.2156;
806.7000;0.1498;-0.2061;
807.0000;0.1465;-0.2085;
807.3000;0.1473;-0.2013;
807.6000;0.1457;-0.2085;
807.9000;0.1465;-0.1989;
808.2000;0.1457;-0.1965;
808.5000;0.1449;-0.2108;
808.8000;0.1425;-0.2156;
809.1000;0.1465;-0.2180;
809.4000;0.1457;-0.2156;
809.7000;0.1433;-0.2228;
810.0000;0.1465;-0.2204;
810.3000;0.1441;-0.2252;
810.6000;0.1433;-0.2300;
810.9000;0.1457;-0.2252;
811.2000;0.1457;-0.2348;
811.5000;0.1441;-0.2444;
811.8000;0.1465;-0.2468;
812.1000;0.1433;-0.2516;
812.4000;0.1425;-0.2588;
812.7000;0.1441;-0.2564;
813.0000;0.1433;-0.2516;
813.3000;0.1441;-0.2444;
813.6000;0.1449;-0.2468;
813.9000;0.1457;-0.2444;
814.2000;0.1441;-0.2516;
814.5000;0.1449;-0.2492;
814.8000;0.1416;-0.2396;
815.1000;0.1441;-0.2324;
815.4000;0.1449;-0.2396;
815.7000;0.1465;-0.2444;
816.0000;0.1473;-0.2396;
816.3000;0.1473;-0.2276;
816.6000;0.1457;-0.2276;
816.9000;0.1473;-0.2204;
817.2000;0.1425;-0.2300;
817.5000;0.1473;-0.2180;
817.8000;0.1441;-0.2108;
818.1000;0.1465;-0.2132;
818.4000;0.1465;-0.2156;
818.7000;0.1425;-0.2348;
819.0000;0.1335;-0.2707;
819.3000;0.1425;-0.2492;
819.6000;0.1408;-0.2492;
819.9000;0.1319;-0.2755;
820.2000;0.1465;-0.2276;
820.5000;0.1433;-0.2372;
820.8000;0.1457;-0.2444;
821.1000;0.1449;-0.2444;
821.4000;0.1457;-0.2444;
821.7000;0.1457;-0.2468;
822.0000;0.1416;-0.2540;
822.3000;0.1465;-0.2372;
822.6000;0.1473;-0.2372;
822.9000;0.1465;-0.2372;
823.2000;0.1441;-0.2396;
823.5000;0.1433;-0.2468;
823.8000;0.1392;-0.2564;
824.1000;0.1425;-0.2564;
824.4000;0.1425;-0.2588;
824.7000;0.1368;-0.2707;
825.0000;0.1465;-0.2444;
825.3000;0.1457;-0.2468;
825.6000;0.1473;-0.2492;
825.9000;0.1457;-0.2540;
826.2000;0.1465;-0.2348;
826.5000;0.1481;-0.2396;
826.8000;0.1449;-0.2348;
827.1000;0.1441;-0.2324;
827.4000;0.1506;-0.2180;
827.7000;0.1457;-0.2324;
828.0000;0.1481;-0.2228;
828.3000;0.1416;-0.2252;
828.6000;0.1473;-0.2132;
828.9000;0.1433;-0.2180;
829.2000;0.1522;-0.1989;
829.5000;0.1433;-0.2276;
829.8000;0.1441;-0.2204;
830.1000;0.1449;-0.2204;
830.4000;0.1441;-0.2300;
830.7000;0.1441;-0.2372;
831.0000;0.1416;-0.2396;
831.3000;0.1441;-0.2252;
831.6000;0.1433;-0.2324;
831.9000;0.1441;-0.2300;
832.2000;0.1449;-0.2300;
832.5000;0.1465;-0.2228;
832.8000;0.1465;-0.2252;
833.1000;0.1449;-0.2228;
833.4000;0.1441;-0.2276;
833.7000;0.1449;-0.2276;
834.0000;0.1465;-0.2252;
834.3000;0.1457;-0.2420;
834.6000;0.1384;-0.2516;
834.9000;0.1425;-0.2348;
835.2000;0.1425;-0.2300;
835.5000;0.1457;-0.2204;
835.8000;0.1433;-0.2396;
836.1000;0.1433;-0.2468;
836.4000;0.1538;-0.2156;
836.7000;0.1457;-0.2396;
837.0000;0.1425;-0.2444;
837.3000;0.1465;-0.2348;
837.6000;0.1441;-0.2444;
837.9000;0.1449;-0.2396;
838.2000;0.1449;-0.2420;
838.5000;0.1449;-0.2468;
838.8000;0.1465;-0.2324;
839.1000;0.1498;-0.2061;
839.4000;0.1465;-0.2228;
839.7000;0.1441;-0.2204;
840.0000;0.1465;-0.2037;
840.3000;0.1433;-0.2180;
840.6000;0.1425;-0.2300;
840.9000;0.1425;-0.2252;
841.2000;0.1425;-0.2228;
841.5000;0.1457;-0.2180;
841.8000;0.1465;-0.2156;
842.1000;0.1473;-0.2156;
842.4000;0.1433;-0.2228;
842.7000;0.1473;-0.2108;
843.0000;0.1457;-0.2180;
843.3000;0.1457;-0.2204;
843.6000;0.1449;-0.2204;
843.9000;0.1506;-0.2013;
844.2000;0.1457;-0.2156;
844.5000;0.1441;-0.2204;
844.8000;0.1441;-0.2252;
845.1000;0.1449;-0.2348;
845.4000;0.1441;-0.2348;
845.7000;0.1416;-0.2420;
846.0000;0.1416;-0.2444;
846.3000;0.1343;-0.2636;
846.6000;0.1465;-0.2348;
846.9000;0.1457;-0.2348;
847.2000;0.1384;-0.2516;
847.5000;0.1433;-0.2420;
847.8000;0.1400;-0.2516;
848.1000;0.1465;-0.2396;
848.4000;0.1481;-0.2324;
848.7000;0.1433;-0.2396;
849.0000;0.1433;-0.2276;
849.3000;0.1449;-0.2252;
849.6000;0.1457;-0.2276;
849.9000;0.1465;-0.2228;
850.2000;0.1449;-0.2252;
850.5000;0.1457;-0.2300;
850.8000;0.1433;-0.2252;
851.1000;0.1449;-0.2252;
851.4000;0.1449;-0.2228;
851.7000;0.1498;-0.2132;
852.0000;0.1441;-0.2276;
852.3000;0.1457;-0.2252;
852.6000;0.1457;-0.2180;
852.9000;0.1457;-0.2156;
853.2000;0.1457;-0.2204;
853.5000;0.1457;-0.2252;
853.8000;0.1465;-0.2348;
854.1000;0.1465;-0.2276;
854.4000;0.1506;-0.2276;
854.7000;0.1465;-0.2396;
855.0000;0.1449;-0.2468;
855.3000;0.1433;-0.2516;
855.6000;0.1530;-0.2276;
855.9000;0.1449;-0.2396;
856.2000;0.1433;-0.2492;
856.5000;0.1498;-0.2300;
856.8000;0.1441;-0.2468;
857.1000;0.1457;-0.2420;
857.4000;0.1433;-0.2468;
857.7000;0.1449;-0.2444;
858.0000;0.1441;-0.2444;
858.3000;0.1473;-0.2348;
858.6000;0.1441;-0.2468;
858.9000;0.1449;-0.2468;
859.2000;0.1449;-0.2444;
859.5000;0.1449;-0.2396;
859.8000;0.1425;-0.2396;
860.1000;0.1449;-0.2252;
860.4000;0.1579;-0.1845;
860.7000;0.1457;-0.2132;
861.0000;0.1449;-0.2108;
861.3000;0.1441;-0.2108;
861.6000;0.1498;-0.2037;
861.9000;0.1408;-0.2300;
862.2000;0.1449;-0.2204;
862.5000;0.1384;-0.2468;
862.8000;0.1384;-0.2468;
863.1000;0.1441;-0.2276;
863.4000;0.1481;-0.2061;
863.7000;0.1433;-0.2276;
864.0000;0.1449;-0.2204;
864.3000;0.1449;-0.2372;
864.6000;0.1449;-0.2396;
864.9000;0.1473;-0.2372;
865.2000;0.1433;-0.2516;
865.5000;0.1465;-0.2564;
865.8000;0.1490;-0.2564;
866.1000;0.1368;-0.2851;
866.4000;0.1384;-0.2779;
866.7000;0.1441;-0.2612;
867.0000;0.1425;-0.2588;
867.3000;0.1457;-0.2564;
867.6000;0.1433;-0.2684;
867.9000;0.1433;-0.2684;
868.2000;0.1465;-0.2540;
868.5000;0.1449;-0.2564;
868.8000;0.1425;-0.2612;
869.1000;0.1441;-0.2540;
869.4000;0.1555;-0.2252;
869.7000;0.1465;-0.2540;
870.0000;0.1449;-0.2516;
870.3000;0.1441;-0.2468;
870.6000;0.1433;-0.2420;
870.9000;0.1457;-0.2324;
871.2000;0.1457;-0.2348;
871.5000;0.1425;-0.2372;
871.8000;0.1449;-0.2396;
872.1000;0.1449;-0.2468;
872.4000;0.1441;-0.2492;
872.7000;0.1457;-0.2444;
873.0000;0.1449;-0.2468;
873.3000;0.1457;-0.2420;
873.6000;0.1473;-0.2372;
873.9000;0.1400;-0.2588;
874.2000;0.1473;-0.2372;
874.5000;0.1384;-0.2636;
874.8000;0.1481;-0.2372;
875.1000;0.1449;-0.2420;
875.4000;0.1457;-0.2444;
875.7000;0.1441;-0.2468;
876.0000;0.1433;-0.2444;
876.3000;0.1457;-0.2372;
876.6000;0.1441;-0.2372;
876.9000;0.1473;-0.2324;
877.2000;0.1449;-0.2444;
877.5000;0.1457;-0.2276;
877.8000;0.1473;-0.2300;
878.1000;0.1449;-0.2348;
878.4000;0.1433;-0.2516;
878.7000;0.1449;-0.2396;
879.0000;0.1400;-0.2540;
879.3000;0.1441;-0.2468;
879.6000;0.1457;-0.2468;
879.9000;0.1425;-0.2492;
880.2000;0.1465;-0.2372;
880.5000;0.1457;-0.2348;
880.8000;0.1457;-0.2348;
881.1000;0.1449;-0.2372;
881.4000;0.1425;-0.2348;
881.7000;0.1433;-0.2348;
882.0000;0.1473;-0.2324;
882.3000;0.1449;-0.2276;
882.6000;0.1441;-0.2276;
882.9000;0.1449;-0.2276;
883.2000;0.1465;-0.2276;
883.5000;0.1465;-0.2276;
883.8000;0.1457;-0.2300;
884.1000;0.1433;-0.2396;
884.4000;0.1408;-0.2420;
884.7000;0.1433;-0.2276;
885.0000;0.1433;-0.2420;
885.3000;0.1473;-0.2324;
885.6000;0.1514;-0.2156;
885.9000;0.1473;-0.2348;
886.2000;0.1441;-0.2468;
886.5000;0.1481;-0.2420;
886.8000;0.1465;-0.2468;
887.1000;0.1465;-0.2324;
887.4000;0.1457;-0.2372;
887.7000;0.1441;-0.2516;
888.0000;0.1490;-0.2444;
888.3000;0.1473;-0.2540;
888.6000;0.1433;-0.2564;
888.9000;0.1498;-0.2492;
889.2000;0.1441;-0.2612;
889.5000;0.1465;-0.2516;
889.8000;0.1441;-0.2564;
890.1000;0.1449;-0.2564;
890.4000;0.1433;-0.2564;
890.7000;0.1465;-0.2444;
891.0000;0.1441;-0.2540;
891.3000;0.1441;-0.2468;
891.6000;0.1465;-0.2300;
891.9000;0.1465;-0.2252;
892.2000;0.1449;-0.2228;
892.5000;0.1457;-0.2228;
892.8000;0.1449;-0.2252;
893.1000;0.1457;-0.2156;
893.4000;0.1449;-0.2156;
893.7000;0.1449;-0.2252;
894.0000;0.1449;-0.2276;
894.3000;0.1433;-0.2324;
894.6000;0.1457;-0.2252;
894.9000;0.1433;-0.2348;
895.2000;0.1449;-0.2348;
895.5000;0.1441;-0.2300;
895.8000;0.1465;-0.2348;
896.1000;0.1441;-0.2444;
896.4000;0.1465;-0.2420;
896.7000;0.1465;-0.2396;
897.0000;0.1481;-0.2396;
897.3000;0.1473;-0.2468;
897.6000;0.1465;-0.2516;
897.9000;0.1465;-0.2540;
898.2000;0.1522;-0.2372;
898.5000;0.1449;-0.2564;
898.8000;0.1457;-0.2492;
899.1000;0.1457;-0.2564;
899.4000;0.1425;-0.2612;
899.7000;0.1457;-0.2444;
900.0000;0.1449;-0.2468;
900.3000;0.1416;-0.2564;
900.6000;0.1457;-0.2516;
900.9000;0.1465;-0.2540;
901.2000;0.1311;-0.2947;
901.5000;0.1416;-0.2588;
901.8000;0.1425;-0.2540;
902.1000;0.1538;-0.2252;
902.4000;0.1473;-0.2372;
902.7000;0.1449;-0.2444;
903.0000;0.1457;-0.2444;
903.3000;0.1392;-0.2492;
903.6000;0.1449;-0.2300;
903.9000;0.1457;-0.2276;
904.2000;0.1473;-0.2324;
904.5000;0.1449;-0.2300;
904.8000;0.1449;-0.2300;
905.1000;0.1449;-0.2300;
905.4000;0.1433;-0.2324;
905.7000;0.1425;-0.2348;
906.0000;0.1473;-0.2228;
906.3000;0.1465;-0.2180;
906.6000;0.1465;-0.2132;
906.9000;0.1449;-0.2180;
907.2000;0.1465;-0.2132;
907.5000;0.1441;-0.2372;
907.8000;0.1457;-0.2348;
908.1000;0.1449;-0.2324;
908.4000;0.1441;-0.2276;
908.7000;0.1425;-0.2348;
909.0000;0.1481;-0.2252;
909.3000;0.1416;-0.2396;
909.6000;0.1490;-0.2108;
909.9000;0.1449;-0.2180;
910.2000;0.1457;-0.2108;
910.5000;0.1400;-0.2228;
910.8000;0.1441;-0.2132;
911.1000;0.1400;-0.2228;
911.4000;0.1473;-0.2061;
911.7000;0.1457;-0.2180;
912.0000;0.1392;-0.2396;
912.3000;0.1457;-0.2300;
912.6000;0.1481;-0.2348;
912.9000;0.1473;-0.2348;
913.2000;0.1449;-0.2396;
913.5000;0.1457;-0.2396;
913.8000;0.1441;-0.2444;
914.1000;0.1433;-0.2492;
914.4000;0.1449;-0.2396;
914.7000;0.1457;-0.2324;
915.0000;0.1449;-0.2372;
915.3000;0.1449;-0.2348;
915.6000;0.1433;-0.2420;
915.9000;0.1457;-0.2324;
916.2000;0.1465;-0.2276;
916.5000;0.1433;-0.2300;
916.8000;0.1457;-0.2228;
917.1000;0.1433;-0.2252;
917.4000;0.1457;-0.2252;
917.7000;0.1473;-0.2228;
918.0000;0.1457;-0.2396;
918.3000;0.1457;-0.2420;
918.6000;0.1481;-0.2372;
918.9000;0.1473;-0.2324;
919.2000;0.1351;-0.2588;
919.5000;0.1441;-0.2300;
919.8000;0.1441;-0.2300;
920.1000;0.1449;-0.2276;
920.4000;0.1465;-0.2300;
920.7000;0.1433;-0.2420;
921.0000;0.1416;-0.2420;
921.3000;0.1481;-0.2300;
921.6000;0.1457;-0.2348;
921.9000;0.1457;-0.2348;
922.2000;0.1465;-0.2252;
922.5000;0.1449;-0.2300;
922.8000;0.1465;-0.2300;
923.1000;0.1473;-0.2300;
923.4000;0.1449;-0.2396;
923.7000;0.1481;-0.2324;
924.0000;0.1425;-0.2492;
924.3000;0.1506;-0.2180;
924.6000;0.1465;-0.2348;
924.9000;0.1416;-0.2396;
925.2000;0.1514;-0.1989;
925.5000;0.1449;-0.2085;
925.8000;0.1425;-0.2156;
926.1000;0.1449;-0.2085;
926.4000;0.1457;-0.2108;
926.7000;0.1449;-0.2156;
927.0000;0.1441;-0.2228;
927.3000;0.1392;-0.2468;
927.6000;0.1441;-0.2300;
927.9000;0.1457;-0.2204;
928.2000;0.1457;-0.2156;
928.5000;0.1449;-0.2228;
928.8000;0.1457;-0.2276;
929.1000;0.1449;-0.2300;
929.4000;0.1506;-0.2180;
929.7000;0.1457;-0.2324;
930.0000;0.1441;-0.2228;
930.3000;0.1441;-0.2252;
930.6000;0.1441;-0.2372;
930.9000;0.1465;-0.2300;
931.2000;0.1441;-0.2420;
931.5000;0.1433;-0.2540;
931.8000;0.1441;-0.2492;
932.1000;0.1425;-0.2540;
932.4000;0.1506;-0.2348;
932.7000;0.1392;-0.2612;
933.0000;0.1441;-0.2492;
933.3000;0.1441;-0.2468;
933.6000;0.1530;-0.2204;
933.9000;0.1457;-0.2324;
934.2000;0.1416;-0.2420;
934.5000;0.1449;-0.2228;
934.8000;0.1441;-0.2156;
935.1000;0.1490;-0.2085;
935.4000;0.1416;-0.2324;
935.7000;0.1441;-0.2228;
936.0000;0.1425;-0.2180;
936.3000;0.1481;-0.2108;
936.6000;0.1465;-0.2180;
936.9000;0.1457;-0.2228;
937.2000;0.1490;-0.2085;
937.5000;0.1473;-0.2061;
937.8000;0.1457;-0.2132;
938.1000;0.1400;-0.2180;
938.4000;0.1473;-0.2013;
938.7000;0.1457;-0.2061;
939.0000;0.1457;-0.1965;
939.3000;0.1449;-0.2061;
939.6000;0.1441;-0.2037;
939.9000;0.1433;-0.2037;
940.2000;0.1522;-0.1845;
940.5000;0.1441;-0.2132;
940.8000;0.1465;-0.2085;
941.1000;0.1506;-0.2013;
941.4000;0.1441;-0.2180;
941.7000;0.1441;-0.2228;
942.0000;0.1457;-0.2156;
942.3000;0.1457;-0.2204;
942.6000;0.1433;-0.2276;
942.9000;0.1433;-0.2324;
943.2000;0.1311;-0.2612;
943.5000;0.1335;-0.2588;
943.8000;0.1441;-0.2396;
944.1000;0.1449;-0.2396;
944.4000;0.1441;-0.2468;
944.7000;0.1457;-0.2540;
945.0000;0.1457;-0.2516;
945.3000;0.1392;-0.2612;
945.6000;0.1449;-0.2420;
945.9000;0.1465;-0.2372;
946.2000;0.1457;-0.2396;
946.5000;0.1400;-0.2492;
946.8000;0.1441;-0.2300;
947.1000;0.1441;-0.2348;
947.4000;0.1473;-0.2180;
947.7000;0.1457;-0.2180;
948.0000;0.1465;-0.2180;
948.3000;0.1465;-0.2156;
948.6000;0.1457;-0.2108;
948.9000;0.1441;-0.2204;
949.2000;0.1457;-0.2132;
949.5000;0.1457;-0.2300;
949.8000;0.1547;-0.2061;
950.1000;0.1457;-0.2276;
950.4000;0.1449;-0.2276;
950.7000;0.1465;-0.2276;
951.0000;0.1425;-0.2372;
951.3000;0.1473;-0.2180;
951.6000;0.1449;-0.2228;
951.9000;0.1441;-0.2132;
952.2000;0.1473;-0.2037;
952.5000;0.1441;-0.2037;
952.8000;0.1449;-0.2085;
953.1000;0.1473;-0.1965;
953.4000;0.1522;-0.1773;
953.7000;0.1457;-0.2061;
954.0000;0.1457;-0.2204;
954.3000;0.1465;-0.2204;
954.6000;0.1449;-0.2132;
954.9000;0.1408;-0.2300;
955.2000;0.1441;-0.2252;
955.5000;0.1457;-0.2204;
955.8000;0.1457;-0.2252;
956.1000;0.1449;-0.2204;
956.4000;0.1441;-0.2156;
956.7000;0.1449;-0.2156;
957.0000;0.1465;-0.2228;
957.3000;0.1441;-0.2252;
957.6000;0.1457;-0.2300;
957.9000;0.1441;-0.2396;
958.2000;0.1425;-0.2444;
958.5000;0.1465;-0.2396;
958.8000;0.1449;-0.2300;
959.1000;0.1392;-0.2492;
959.4000;0.1425;-0.2276;
959.7000;0.1449;-0.2132;
960.0000;0.1433;-0.2180;
960.3000;0.1433;-0.2085;
960.6000;0.1449;-0.2037;
960.9000;0.1481;-0.1941;
961.2000;0.1433;-0.2108;
961.5000;0.1449;-0.2132;
961.8000;0.1465;-0.2085;
962.1000;0.1392;-0.2228;
962.4000;0.1457;-0.2037;
962.7000;0.1465;-0.2085;
963.0000;0.1449;-0.2085;
963.3000;0.1457;-0.2180;
963.6000;0.1441;-0.2228;
963.9000;0.1441;-0.2252;
964.2000;0.1530;-0.1989;
964.5000;0.1441;-0.2156;
964.8000;0.1449;-0.2061;
965.1000;0.1457;-0.2037;
965.4000;0.1473;-0.2061;
965.7000;0.1449;-0.2132;
966.0000;0.1465;-0.2037;
966.3000;0.1441;-0.2132;
966.6000;0.1481;-0.2085;
966.9000;0.1465;-0.2061;
967.2000;0.1449;-0.2108;
967.5000;0.1465;-0.2037;
967.8000;0.1441;-0.2108;
968.1000;0.1449;-0.2085;
968.4000;0.1449;-0.2204;
968.7000;0.1449;-0.2276;
969.0000;0.1433;-0.2300;
969.3000;0.1441;-0.2324;
969.6000;0.1441;-0.2180;
969.9000;0.1433;-0.2300;
970.2000;0.1425;-0.2252;
970.5000;0.1506;-0.2085;
970.8000;0.1441;-0.2228;
971.1000;0.1441;-0.2300;
971.4000;0.1449;-0.2252;
971.7000;0.1449;-0.2228;
972.0000;0.1441;-0.2252;
972.3000;0.1465;-0.2180;
972.6000;0.1449;-0.2252;
972.9000;0.1441;-0.2252;
973.2000;0.1457;-0.2228;
973.5000;0.1449;-0.2324;
973.8000;0.1449;-0.2324;
974.1000;0.1433;-0.2396;
974.4000;0.1433;-0.2420;
974.7000;0.1465;-0.2396;
975.0000;0.1490;-0.2180;
975.3000;0.1441;-0.2300;
975.6000;0.1449;-0.2348;
975.9000;0.1457;-0.2252;
976.2000;0.1433;-0.2300;
976.5000;0.1433;-0.2252;
976.8000;0.1457;-0.2180;
977.1000;0.1433;-0.2252;
977.4000;0.1368;-0.2564;
977.7000;0.1457;-0.2372;
978.0000;0.1465;-0.2372;
978.3000;0.1465;-0.2300;
978.6000;0.1465;-0.2276;
978.9000;0.1449;-0.2324;
979.2000;0.1457;-0.2276;
979.5000;0.1498;-0.2180;
979.8000;0.1441;-0.2252;
980.1000;0.1473;-0.2108;
980.4000;0.1425;-0.2252;
980.7000;0.1457;-0.2132;
981.0000;0.1465;-0.2132;
981.3000;0.1473;-0.2085;
981.6000;0.1416;-0.2276;
981.9000;0.1465;-0.2156;
982.2000;0.1457;-0.2228;
982.5000;0.1498;-0.2108;
982.8000;0.1465;-0.2204;
983.1000;0.1473;-0.2204;
983.4000;0.1425;-0.2300;
983.7000;0.1457;-0.2228;
984.0000;0.1408;-0.2324;
984.3000;0.1449;-0.2252;
984.6000;0.1457;-0.2228;
984.9000;0.1506;-0.2108;
985.2000;0.1425;-0.2276;
985.5000;0.1441;-0.2252;
985.8000;0.1449;-0.2204;
986.1000;0.1457;-0.2276;
986.4000;0.1473;-0.2204;
986.7000;0.1433;-0.2324;
987.0000;0.1433;-0.2228;
987.3000;0.1465;-0.2132;
987.6000;0.1449;-0.2204;
987.9000;0.1449;-0.2156;
988.2000;0.1449;-0.2204;
988.5000;0.1481;-0.2108;
988.8000;0.1465;-0.2156;
989.1000;0.1457;-0.2228;
989.4000;0.1457;-0.2252;
989.7000;0.1473;-0.2180;
990.0000;0.1465;-0.2228;
990.3000;0.1425;-0.2276;
990.6000;0.1465;-0.2132;
990.9000;0.1473;-0.2156;
991.2000;0.1449;-0.2156;
991.5000;0.1441;-0.2228;
991.8000;0.1449;-0.2132;
992.1000;0.1457;-0.2061;
992.4000;0.1481;-0.1917;
992.7000;0.1408;-0.2061;
993.0000;0.1490;-0.1893;
993.3000;0.1514;-0.1821;
993.6000;0.1473;-0.2013;
993.9000;0.1465;-0.2108;
994.2000;0.1433;-0.2228;
994.5000;0.1473;-0.2085;
994.8000;0.1465;-0.2085;
995.1000;0.1465;-0.2037;
995.4000;0.1449;-0.2228;
995.7000;0.1465;-0.2252;
996.0000;0.1425;-0.2300;
996.3000;0.1530;-0.2037;
996.6000;0.1441;-0.2228;
996.9000;0.1465;-0.2156;
997.2000;0.1473;-0.2252;
997.5000;0.1408;-0.2540;
997.8000;0.1457;-0.2420;
998.1000;0.1449;-0.2492;
998.4000;0.1457;-0.2444;
998.7000;0.1457;-0.2372;
999.0000;0.1433;-0.2444;
999.3000;0.1465;-0.2372;
999.6000;0.1343;-0.2588;
999.9000;0.1465;-0.2276;
1000.2000;0.1449;-0.2252;
1000.5000;0.1449;-0.2156;
1000.8000;0.1457;-0.2228;
1001.1000;0.1441;-0.2252;
1001.4000;0.1416;-0.2324;
1001.7000;0.1457;-0.2108;
1002.0000;0.1465;-0.2085;
1002.3000;0.1359;-0.2540;
1002.6000;0.1555;-0.2061;
1002.9000;0.1384;-0.2516;
1003.2000;0.1368;-0.2564;
1003.5000;0.1433;-0.2420;
1003.8000;0.1441;-0.2444;
1004.1000;0.1473;-0.2516;
1004.4000;0.1490;-0.2468;
1004.7000;0.1457;-0.2564;
1005.0000;0.1449;-0.2468;
1005.3000;0.1465;-0.2372;
1005.6000;0.1465;-0.2372;
1005.9000;0.1441;-0.2420;
1006.2000;0.1433;-0.2348;
1006.5000;0.1465;-0.2276;
1006.8000;0.1449;-0.2300;
1007.1000;0.1441;-0.2276;
1007.4000;0.1481;-0.2228;
1007.7000;0.1449;-0.2324;
1008.0000;0.1327;-0.2827;
1008.3000;0.1465;-0.2468;
1008.6000;0.1498;-0.2396;
1008.9000;0.1425;-0.2636;
1009.2000;0.1506;-0.2444;
1009.5000;0.1473;-0.2492;
1009.8000;0.1441;-0.2468;
1010.1000;0.1441;-0.2540;
1010.4000;0.1473;-0.2468;
1010.7000;0.1441;-0.2516;
1011.0000;0.1498;-0.2300;
1011.3000;0.1473;-0.2420;
1011.6000;0.1449;-0.2444;
1011.9000;0.1449;-0.2444;
1012.2000;0.1408;-0.2540;
1012.5000;0.1449;-0.2492;
1012.8000;0.1441;-0.2372;
1013.1000;0.1449;-0.2348;
1013.4000;0.1433;-0.2396;
1013.7000;0.1457;-0.2348;
1014.0000;0.1457;-0.2324;
1014.3000;0.1465;-0.2276;
1014.6000;0.1449;-0.2156;
1014.9000;0.1433;-0.2180;
1015.2000;0.1392;-0.2396;
1015.5000;0.1449;-0.2300;
1015.8000;0.1465;-0.2348;
1016.1000;0.1449;-0.2396;
1016.4000;0.1457;-0.2420;
1016.7000;0.1457;-0.2444;
1017.0000;0.1457;-0.2492;
1017.3000;0.1449;-0.2516;
1017.6000;0.1433;-0.2372;
1017.9000;0.1490;-0.2228;
1018.2000;0.1465;-0.2324;
1018.5000;0.1465;-0.2276;
1018.8000;0.1433;-0.2348;
1019.1000;0.1441;-0.2348;
1019.4000;0.1473;-0.2252;
1019.7000;0.1449;-0.2324;
1020.0000;0.1473;-0.2252;
1020.3000;0.1465;-0.2300;
1020.6000;0.1449;-0.2252;
1020.9000;0.1465;-0.2132;
1021.2000;0.1449;-0.2132;
1021.5000;0.1433;-0.2156;
1021.8000;0.1441;-0.2132;
1022.1000;0.1449;-0.2085;
1022.4000;0.1465;-0.2061;
1022.7000;0.1465;-0.2085;
1023.0000;0.1457;-0.2037;
1023.3000;0.1457;-0.2061;
1023.6000;0.1465;-0.2180;
1023.9000;0.1449;-0.2180;
1024.2000;0.1465;-0.2156;
1024.5000;0.1449;-0.2324;
1024.8000;0.1465;-0.2348;
1025.1000;0.1457;-0.2372;
1025.4000;0.1449;-0.2324;
1025.7000;0.1465;-0.2252;
1026.0000;0.1473;-0.2204;
1026.3000;0.1473;-0.2156;
1026.6000;0.1465;-0.2228;
1026.9000;0.1563;-0.1941;
1027.2000;0.1473;-0.2085;
1027.5000;0.1441;-0.2108;
1027.8000;0.1433;-0.2252;
1028.1000;0.1465;-0.2180;
1028.4000;0.1449;-0.2228;
1028.7000;0.1441;-0.2252;
1029.0000;0.1416;-0.2372;
1029.3000;0.1449;-0.2324;
1029.6000;0.1465;-0.2300;
1029.9000;0.1449;-0.2228;
1030.2000;0.1457;-0.2252;
1030.5000;0.1441;-0.2252;
1030.8000;0.1449;-0.2132;
1031.1000;0.1481;-0.2085;
1031.4000;0.1481;-0.2132;
1031.7000;0.1425;-0.2252;
1032.0000;0.1563;-0.1845;
1032.3000;0.1441;-0.2252;
1032.6000;0.1425;-0.2348;
1032.9000;0.1473;-0.2204;
1033.2000;0.1441;-0.2204;
1033.5000;0.1441;-0.2204;
1033.8000;0.1457;-0.2156;
1034.1000;0.1571;-0.1941;
1034.4000;0.1408;-0.2372;
1034.7000;0.1433;-0.2276;
1035.0000;0.1416;-0.2204;
1035.3000;0.1400;-0.2348;
1035.6000;0.1449;-0.2108;
1035.9000;0.1449;-0.2061;
1036.2000;0.1416;-0.2204;
1036.5000;0.1441;-0.2108;
1036.8000;0.1457;-0.2037;
1037.1000;0.1465;-0.1989;
1037.4000;0.1481;-0.1917;
1037.7000;0.1506;-0.1845;
1038.0000;0.1416;-0.2180;
1038.3000;0.1449;-0.2085;
1038.6000;0.1457;-0.2061;
1038.9000;0.1441;-0.2180;
1039.2000;0.1441;-0.2204;
1039.5000;0.1465;-0.2204;
1039.8000;0.1465;-0.2156;
1040.1000;0.1441;-0.2204;
1040.4000;0.1449;-0.2085;
1040.7000;0.1425;-0.2108;
1041.0000;0.1441;-0.1989;
1041.3000;0.1449;-0.1941;
1041.6000;0.1425;-0.2037;
1041.9000;0.1441;-0.2061;
1042.2000;0.1433;-0.2132;
1042.5000;0.1449;-0.2061;
1042.8000;0.1441;-0.2132;
1043.1000;0.1457;-0.2037;
1043.4000;0.1433;-0.2061;
1043.7000;0.1449;-0.2037;
1044.0000;0.1457;-0.1989;
1044.3000;0.1441;-0.1965;
1044.6000;0.1473;-0.1893;
1044.9000;0.1457;-0.1917;
1045.2000;0.1425;-0.2013;
1045.5000;0.1433;-0.2013;
1045.8000;0.1457;-0.1941;
1046.1000;0.1441;-0.2013;
1046.4000;0.1457;-0.1989;
1046.7000;0.1473;-0.2037;
1047.0000;0.1465;-0.2037;
1047.3000;0.1457;-0.2061;
1047.6000;0.1441;-0.2061;
1047.9000;0.1457;-0.2037;
1048.2000;0.1579;-0.1773;
1048.5000;0.1433;-0.2108;
1048.8000;0.1473;-0.2156;
1049.1000;0.1425;-0.2252;
1049.4000;0.1465;-0.2085;
1049.7000;0.1457;-0.2132;
1050.0000;0.1441;-0.2061;
1050.3000;0.1563;-0.1749;
1050.6000;0.1465;-0.2132;
1050.9000;0.1392;-0.2396;
1051.2000;0.1400;-0.2348;
1051.5000;0.1587;-0.1821;
1051.8000;0.1465;-0.2156;
1052.1000;0.1384;-0.2348;
1052.4000;0.1433;-0.2132;
1052.7000;0.1457;-0.2037;
1053.0000;0.1473;-0.1989;
1053.3000;0.1465;-0.1965;
1053.6000;0.1449;-0.2037;
1053.9000;0.1498;-0.1941;
1054.2000;0.1506;-0.1941;
1054.5000;0.1449;-0.2132;
1054.8000;0.1433;-0.2324;
1055.1000;0.1457;-0.2348;
1055.4000;0.1465;-0.2396;
1055.7000;0.1449;-0.2396;
1056.0000;0.1465;-0.2396;
1056.3000;0.1441;-0.2468;
1056.6000;0.1457;-0.2396;
1056.9000;0.1473;-0.2420;
1057.2000;0.1481;-0.2348;
1057.5000;0.1473;-0.2348;
1057.8000;0.1490;-0.2204;
1058.1000;0.1538;-0.2013;
1058.4000;0.1457;-0.2276;
1058.7000;0.1473;-0.2276;
1059.0000;0.1449;-0.2300;
1059.3000;0.1465;-0.2252;
1059.6000;0.1514;-0.2132;
1059.9000;0.1449;-0.2348;
1060.2000;0.1457;-0.2444;
1060.5000;0.1457;-0.2372;
1060.8000;0.1457;-0.2396;
1061.1000;0.1457;-0.2324;
1061.4000;0.1457;-0.2300;
1061.7000;0.1465;-0.2276;
1062.0000;0.1465;-0.2228;
1062.3000;0.1441;-0.2156;
1062.6000;0.1530;-0.2013;
1062.9000;0.1465;-0.2204;
1063.2000;0.1457;-0.2180;
1063.5000;0.1433;-0.2252;
1063.8000;0.1441;-0.2252;
1064.1000;0.1441;-0.2300;
1064.4000;0.1457;-0.2276;
1064.7000;0.1473;-0.2300;
1065.0000;0.1441;-0.2276;
1065.3000;0.1473;-0.2156;
1065.6000;0.1408;-0.2324;
1065.9000;0.1449;-0.2204;
1066.2000;0.1465;-0.2300;
1066.5000;0.1449;-0.2372;
1066.8000;0.1433;-0.2396;
1067.1000;0.1449;-0.2324;
1067.4000;0.1433;-0.2396;
1067.7000;0.1449;-0.2324;
1068.0000;0.1465;-0.2324;
1068.3000;0.1490;-0.2228;
1068.6000;0.1473;-0.2276;
1068.9000;0.1465;-0.2276;
1069.2000;0.1465;-0.2228;
1069.5000;0.1465;-0.2228;
1069.8000;0.1449;-0.2252;
1070.1000;0.1416;-0.2348;
1070.4000;0.1368;-0.2492;
1070.7000;0.1457;-0.2156;
1071.0000;0.1441;-0.2204;
1071.3000;0.1449;-0.2204;
1071.6000;0.1457;-0.2132;
1071.9000;0.1441;-0.2180;
1072.2000;0.1506;-0.1989;
1072.5000;0.1481;-0.2156;
1072.8000;0.1441;-0.2204;
1073.1000;0.1522;-0.2061;
1073.4000;0.1449;-0.2348;
1073.7000;0.1465;-0.2276;
1074.0000;0.1441;-0.2420;
1074.3000;0.1441;-0.2420;
1074.6000;0.1384;-0.2612;
1074.9000;0.1465;-0.2348;
1075.2000;0.1392;-0.2492;
1075.5000;0.1465;-0.2276;
1075.8000;0.1457;-0.2348;
1076.1000;0.1392;-0.2564;
1076.4000;0.1433;-0.2396;
1076.7000;0.1400;-0.2516;
1077.0000;0.1376;-0.2492;
1077.3000;0.1449;-0.2300;
1077.6000;0.1473;-0.2204;
1077.9000;0.1449;-0.2252;
1078.2000;0.1457;-0.2252;
1078.5000;0.1457;-0.2276;
1078.8000;0.1465;-0.2132;
1079.1000;0.1457;-0.2204;
1079.4000;0.1425;-0.2252;
1079.7000;0.1465;-0.2085;
1080.0000;0.1522;-0.1845;
1080.3000;0.1433;-0.2013;
1080.6000;0.1457;-0.1989;
1080.9000;0.1457;-0.1893;
1081.2000;0.1392;-0.2085;
1081.5000;0.1457;-0.1917;
1081.8000;0.1441;-0.2037;
1082.1000;0.1441;-0.2108;
1082.4000;0.1433;-0.2156;
1082.7000;0.1465;-0.2180;
1083.0000;0.1441;-0.2252;
1083.3000;0.1384;-0.2420;
1083.6000;0.1481;-0.2180;
1083.9000;0.1441;-0.2228;
1084.2000;0.1457;-0.2204;
1084.5000;0.1433;-0.2228;
1084.8000;0.1457;-0.2276;
1085.1000;0.1457;-0.2276;
1085.4000;0.1465;-0.2228;
1085.7000;0.1465;-0.2276;
1086.0000;0.1425;-0.2300;
1086.3000;0.1416;-0.2228;
1086.6000;0.1457;-0.2085;
1086.9000;0.1449;-0.2108;
1087.2000;0.1441;-0.2108;
1087.5000;0.1473;-0.2013;
1087.8000;0.1376;-0.2228;
1088.1000;0.1433;-0.2156;
1088.4000;0.1514;-0.1941;
1088.7000;0.1498;-0.1989;
1089.0000;0.1506;-0.2037;
1089.3000;0.1433;-0.2324;
1089.6000;0.1465;-0.2252;
1089.9000;0.1481;-0.2252;
1090.2000;0.1490;-0.2228;
1090.5000;0.1465;-0.2300;
1090.8000;0.1465;-0.2204;
1091.1000;0.1457;-0.2228;
1091.4000;0.1465;-0.2228;
1091.7000;0.1465;-0.2180;
1092.0000;0.1465;-0.2156;
1092.3000;0.1368;-0.2444;
1092.6000;0.1457;-0.2108;
1092.9000;0.1490;-0.2061;
1093.2000;0.1473;-0.2156;
1093.5000;0.1441;-0.2180;
1093.8000;0.1465;-0.2228;
1094.1000;0.1441;-0.2204;
1094.4000;0.1465;-0.2180;
1094.7000;0.1441;-0.2252;
1095.0000;0.1449;-0.2228;
1095.3000;0.1449;-0.2228;
1095.6000;0.1465;-0.2228;
1095.9000;0.1425;-0.2324;
1096.2000;0.1465;-0.2204;
1096.5000;0.1457;-0.2252;
1096.8000;0.1473;-0.2132;
1097.1000;0.1457;-0.2204;
1097.4000;0.1465;-0.2180;
1097.7000;0.1481;-0.2156;
1098.0000;0.1433;-0.2204;
1098.3000;0.1449;-0.2108;
1098.6000;0.1441;-0.2156;
1098.9000;0.1473;-0.2108;
1099.2000;0.1441;-0.2156;
1099.5000;0.1425;-0.2132;
1099.8000;0.1465;-0.2108;
1100.1000;0.1457;-0.2228;
1100.4000;0.1457;-0.2252;
1100.7000;0.1465;-0.2180;
1101.0000;0.1465;-0.2156;
1101.3000;0.1425;-0.2156;
1101.6000;0.1465;-0.2037;
1101.9000;0.1465;-0.2108;
1102.2000;0.1457;-0.2108;
1102.5000;0.1465;-0.2085;
1102.8000;0.1457;-0.2013;
1103.1000;0.1449;-0.1965;
1103.4000;0.1425;-0.2108;
1103.7000;0.1433;-0.2061;
1104.0000;0.1441;-0.2037;
1104.3000;0.1449;-0.1941;
1104.6000;0.1351;-0.2204;
1104.9000;0.1433;-0.2013;
1105.2000;0.1506;-0.1893;
1105.5000;0.1514;-0.1989;
1105.8000;0.1449;-0.2204;
1106.1000;0.1449;-0.2204;
1106.4000;0.1433;-0.2132;
1106.7000;0.1465;-0.2061;
1107.0000;0.1449;-0.2061;
1107.3000;0.1498;-0.1965;
1107.6000;0.1465;-0.2108;
1107.9000;0.1473;-0.2132;
1108.2000;0.1441;-0.2228;
1108.5000;0.1498;-0.2156;
1108.8000;0.1449;-0.2300;
1109.1000;0.1465;-0.2252;
1109.4000;0.1457;-0.2276;
1109.7000;0.1433;-0.2252;
1110.0000;0.1335;-0.2540;
1110.3000;0.1441;-0.2204;
1110.6000;0.1433;-0.2300;
1110.9000;0.1473;-0.2252;
1111.2000;0.1473;-0.2204;
1111.5000;0.1457;-0.2180;
1111.8000;0.1319;-0.2516;
1112.1000;0.1449;-0.2228;
1112.4000;0.1465;-0.2204;
1112.7000;0.1441;-0.2300;
1113.0000;0.1376;-0.2516;
1113.3000;0.1490;-0.2252;
1113.6000;0.1449;-0.2372;
1113.9000;0.1449;-0.2468;
1114.2000;0.1457;-0.2444;
1114.5000;0.1449;-0.2444;
1114.8000;0.1465;-0.2420;
1115.1000;0.1449;-0.2444;
1115.4000;0.1449;-0.2492;
1115.7000;0.1449;-0.2468;
1116.0000;0.1473;-0.2468;
1116.3000;0.1490;-0.2420;
1116.6000;0.1465;-0.2444;
1116.9000;0.1473;-0.2348;
1117.2000;0.1506;-0.2156;
1117.5000;0.1433;-0.2396;
1117.8000;0.1473;-0.2324;
1118.1000;0.1449;-0.2372;
1118.4000;0.1425;-0.2492;
1118.7000;0.1433;-0.2564;
1119.0000;0.1481;-0.2516;
1119.3000;0.1441;-0.2492;
1119.6000;0.1416;-0.2444;
1119.9000;0.1457;-0.2420;
1120.2000;0.1408;-0.2636;
1120.5000;0.1465;-0.2540;
1120.8000;0.1457;-0.2636;
1121.1000;0.1465;-0.2684;
1121.4000;0.1441;-0.2731;
1121.7000;0.1473;-0.2707;
1122.0000;0.1465;-0.2588;
1122.3000;0.1449;-0.2588;
1122.6000;0.1465;-0.2468;
1122.9000;0.1433;-0.2420;
1123.2000;0.1384;-0.2684;
1123.5000;0.1481;-0.2468;
1123.8000;0.1473;-0.2540;
1124.1000;0.1490;-0.2516;
1124.4000;0.1441;-0.2612;
1124.7000;0.1449;-0.2636;
1125.0000;0.1547;-0.2276;
1125.3000;0.1433;-0.2564;
1125.6000;0.1376;-0.2731;
1125.9000;0.1449;-0.2612;
1126.2000;0.1416;-0.2731;
1126.5000;0.1457;-0.2588;
1126.8000;0.1433;-0.2660;
1127.1000;0.1433;-0.2660;
1127.4000;0.1449;-0.2660;
1127.7000;0.1457;-0.2588;
1128.0000;0.1473;-0.2492;
1128.3000;0.1425;-0.2612;
1128.6000;0.1579;-0.2252;
1128.9000;0.1465;-0.2588;
1129.2000;0.1481;-0.2564;
1129.5000;0.1457;-0.2516;
1129.8000;0.1465;-0.2324;
1130.1000;0.1449;-0.2372;
1130.4000;0.1433;-0.2396;
1130.7000;0.1433;-0.2396;
1131.0000;0.1465;-0.2324;
1131.3000;0.1441;-0.2396;
1131.6000;0.1441;-0.2444;
1131.9000;0.1433;-0.2492;
1132.2000;0.1449;-0.2444;
1132.5000;0.1490;-0.2324;
1132.8000;0.1481;-0.2372;
1133.1000;0.1465;-0.2540;
1133.4000;0.1490;-0.2564;
1133.7000;0.1449;-0.2660;
1134.0000;0.1587;-0.2252;
1134.3000;0.1473;-0.2516;
1134.6000;0.1449;-0.2564;
1134.9000;0.1441;-0.2516;
1135.2000;0.1465;-0.2492;
1135.5000;0.1449;-0.2516;
1135.8000;0.1400;-0.2660;
1136.1000;0.1465;-0.2588;
1136.4000;0.1514;-0.2444;
1136.7000;0.1449;-0.2636;
1137.0000;0.1441;-0.2636;
1137.3000;0.1449;-0.2636;
1137.6000;0.1457;-0.2540;
1137.9000;0.1473;-0.2492;
1138.2000;0.1465;-0.2564;
1138.5000;0.1449;-0.2564;
1138.8000;0.1441;-0.2516;
1139.1000;0.1457;-0.2444;
1139.4000;0.1473;-0.2444;
1139.7000;0.1481;-0.2468;
1140.0000;0.1441;-0.2540;
1140.3000;0.1465;-0.2396;
1140.6000;0.1457;-0.2372;
1140.9000;0.1441;-0.2420;
1141.2000;0.1595;-0.2061;
1141.5000;0.1473;-0.2276;
1141.8000;0.1473;-0.2204;
1142.1000;0.1392;-0.2492;
1142.4000;0.1441;-0.2324;
1142.7000;0.1473;-0.2276;
1143.0000;0.1441;-0.2324;
1143.3000;0.1449;-0.2444;
1143.6000;0.1457;-0.2420;
1143.9000;0.1490;-0.2348;
1144.2000;0.1441;-0.2468;
1144.5000;0.1481;-0.2372;
1144.8000;0.1441;-0.2300;
1145.1000;0.1449;-0.2300;
1145.4000;0.1465;-0.2228;
1145.7000;0.1465;-0.2228;
1146.0000;0.1473;-0.2108;
1146.3000;0.1441;-0.2204;
1146.6000;0.1441;-0.2228;
1146.9000;0.1498;-0.2108;
1147.2000;0.1433;-0.2348;
1147.5000;0.1465;-0.2348;
1147.8000;0.1457;-0.2372;
1148.1000;0.1465;-0.2348;
1148.4000;0.1449;-0.2324;
1148.7000;0.1449;-0.2372;
1149.0000;0.1587;-0.1941;
1149.3000;0.1490;-0.2300;
1149.6000;0.1465;-0.2324;
1149.9000;0.1449;-0.2276;
1150.2000;0.1449;-0.2300;
1150.5000;0.1441;-0.2300;
1150.8000;0.1449;-0.2276;
1151.1000;0.1465;-0.2228;
1151.4000;0.1481;-0.2180;
1151.7000;0.1457;-0.2204;
1152.0000;0.1441;-0.2300;
1152.3000;0.1449;-0.2204;
1152.6000;0.1522;-0.1965;
1152.9000;0.1441;-0.2180;
1153.2000;0.1441;-0.2180;
1153.5000;0.1457;-0.2204;
1153.8000;0.1449;-0.2204;
1154.1000;0.1416;-0.2300;
1154.4000;0.1457;-0.2252;
1154.7000;0.1449;-0.2276;
1155.0000;0.1400;-0.2372;
1155.3000;0.1449;-0.2204;
1155.6000;0.1465;-0.2300;
1155.9000;0.1449;-0.2300;
1156.2000;0.1481;-0.2228;
1156.5000;0.1449;-0.2348;
1156.8000;0.1449;-0.2300;
1157.1000;0.1473;-0.2180;
1157.4000;0.1473;-0.2300;
1157.7000;0.1473;-0.2348;
1158.0000;0.1465;-0.2300;
1158.3000;0.1457;-0.2228;
1158.6000;0.1449;-0.2324;
1158.9000;0.1457;-0.2204;
1159.2000;0.1457;-0.2276;
1159.5000;0.1465;-0.2324;
1159.8000;0.1392;-0.2468;
1160.1000;0.1473;-0.2204;
1160.4000;0.1433;-0.2324;
1160.7000;0.1425;-0.2348;
1161.0000;0.1457;-0.2252;
1161.3000;0.1457;-0.2180;
1161.6000;0.1457;-0.2108;
1161.9000;0.1433;-0.2300;
1162.2000;0.1441;-0.2252;
1162.5000;0.1465;-0.2228;
1162.8000;0.1604;-0.1749;
1163.1000;0.1441;-0.2252;
1163.4000;0.1441;-0.2372;
1163.7000;0.1465;-0.2372;
1164.0000;0.1473;-0.2372;
1164.3000;0.1449;-0.2420;
1164.6000;0.1433;-0.2516;
1164.9000;0.1457;-0.2468;
1165.2000;0.1416;-0.2588;
1165.5000;0.1441;-0.2516;
1165.8000;0.1441;-0.2516;
1166.1000;0.1441;-0.2636;
1166.4000;0.1433;-0.2636;
1166.7000;0.1457;-0.2612;
1167.0000;0.1441;-0.2588;
1167.3000;0.1416;-0.2516;
1167.6000;0.1449;-0.2516;
1167.9000;0.1441;-0.2468;
1168.2000;0.1449;-0.2348;
1168.5000;0.1465;-0.2300;
1168.8000;0.1473;-0.2300;
1169.1000;0.1384;-0.2588;
1169.4000;0.1481;-0.2324;
1169.7000;0.1457;-0.2444;
1170.0000;0.1604;-0.2108;
1170.3000;0.1441;-0.2492;
1170.6000;0.1457;-0.2540;
1170.9000;0.1514;-0.2468;
1171.2000;0.1465;-0.2492;
1171.5000;0.1465;-0.2444;
1171.8000;0.1481;-0.2396;
1172.1000;0.1335;-0.2755;
1172.4000;0.1441;-0.2468;
1172.7000;0.1465;-0.2444;
1173.0000;0.1400;-0.2636;
1173.3000;0.1359;-0.2684;
1173.6000;0.1425;-0.2492;
1173.9000;0.1457;-0.2396;
1174.2000;0.1563;-0.2180;
1174.5000;0.1433;-0.2492;
1174.8000;0.1457;-0.2396;
1175.1000;0.1433;-0.2372;
1175.4000;0.1457;-0.2276;
1175.7000;0.1441;-0.2348;
1176.0000;0.1473;-0.2396;
1176.3000;0.1481;-0.2300;
1176.6000;0.1457;-0.2348;
1176.9000;0.1457;-0.2324;
1177.2000;0.1449;-0.2372;
1177.5000;0.1465;-0.2324;
1177.8000;0.1465;-0.2348;
1178.1000;0.1449;-0.2516;
1178.4000;0.1449;-0.2516;
1178.7000;0.1433;-0.2468;
1179.0000;0.1433;-0.2540;
1179.3000;0.1392;-0.2612;
1179.6000;0.1473;-0.2396;
1179.9000;0.1449;-0.2396;
1180.2000;0.1457;-0.2372;
1180.5000;0.1465;-0.2300;
1180.8000;0.1457;-0.2372;
1181.1000;0.1449;-0.2420;
1181.4000;0.1465;-0.2396;
1181.7000;0.1408;-0.2540;
1182.0000;0.1457;-0.2348;
1182.3000;0.1481;-0.2252;
1182.6000;0.1457;-0.2372;
1182.9000;0.1473;-0.2324;
1183.2000;0.1473;-0.2324;
1183.5000;0.1433;-0.2396;
1183.8000;0.1416;-0.2468;
1184.1000;0.1425;-0.2396;
1184.4000;0.1449;-0.2300;
1184.7000;0.1416;-0.2300;
1185.0000;0.1465;-0.2252;
1185.3000;0.1441;-0.2324;
1185.6000;0.1457;-0.2348;
1185.9000;0.1473;-0.2276;
1186.2000;0.1473;-0.2324;
1186.5000;0.1457;-0.2420;
1186.8000;0.1416;-0.2588;
1187.1000;0.1481;-0.2516;
1187.4000;0.1449;-0.2636;
1187.7000;0.1441;-0.2612;
1188.0000;0.1457;-0.2540;
1188.3000;0.1506;-0.2396;
1188.6000;0.1449;-0.2516;
1188.9000;0.1441;-0.2492;
1189.2000;0.1449;-0.2444;
1189.5000;0.1457;-0.2444;
1189.8000;0.1465;-0.2492;
1190.1000;0.1465;-0.2468;
1190.4000;0.1457;-0.2492;
1190.7000;0.1457;-0.2492;
1191.0000;0.1441;-0.2564;
1191.3000;0.1400;-0.2731;
1191.6000;0.1465;-0.2516;
1191.9000;0.1465;-0.2516;
1192.2000;0.1441;-0.2564;
1192.5000;0.1465;-0.2516;
1192.8000;0.1425;-0.2636;
1193.1000;0.1441;-0.2636;
1193.4000;0.1425;-0.2636;
1193.7000;0.1441;-0.2492;
1194.0000;0.1441;-0.2420;
1194.3000;0.1433;-0.2420;
1194.6000;0.1457;-0.2420;
1194.9000;0.1449;-0.2420;
1195.2000;0.1457;-0.2468;
1195.5000;0.1457;-0.2516;
1195.8000;0.1457;-0.2468;
1196.1000;0.1449;-0.2492;
1196.4000;0.1481;-0.2396;
1196.7000;0.1473;-0.2492;
1197.0000;0.1473;-0.2444;
1197.3000;0.1441;-0.2540;
1197.6000;0.1473;-0.2516;
1197.9000;0.1457;-0.2564;
1198.2000;0.1433;-0.2588;
1198.5000;0.1473;-0.2396;
1198.8000;0.1449;-0.2468;
1199.1000;0.1457;-0.2468;
1199.4000;0.1449;-0.2492;
1199.7000;0.1457;-0.2396;
1200.0000;0.1465;-0.2420;
1200.3000;0.1449;-0.2444;
1200.6000;0.1433;-0.2468;
1200.9000;0.1449;-0.2492;
1201.2000;0.1449;-0.2468;
1201.5000;0.1441;-0.2492;
1201.8000;0.1449;-0.2492;
1202.1000;0.1465;-0.2540;
1202.4000;0.1441;-0.2588;
1202.7000;0.1457;-0.2564;
1203.0000;0.1481;-0.2444;
1203.3000;0.1425;-0.2612;
1203.6000;0.1465;-0.2492;
1203.9000;0.1547;-0.2252;
1204.2000;0.1449;-0.2540;
1204.5000;0.1408;-0.2684;
1204.8000;0.1498;-0.2468;
1205.1000;0.1433;-0.2660;
1205.4000;0.1441;-0.2588;
1205.7000;0.1449;-0.2588;
1206.0000;0.1571;-0.2204;
1206.3000;0.1441;-0.2516;
1206.6000;0.1400;-0.2636;
1206.9000;0.1465;-0.2396;
1207.2000;0.1433;-0.2492;
1207.5000;0.1433;-0.2492;
1207.8000;0.1457;-0.2348;
1208.1000;0.1481;-0.2300;
1208.4000;0.1465;-0.2396;
1208.7000;0.1457;-0.2348;
1209.0000;0.1481;-0.2300;
1209.3000;0.1457;-0.2372;
1209.6000;0.1335;-0.2612;
1209.9000;0.1465;-0.2204;
1210.2000;0.1433;-0.2348;
1210.5000;0.1449;-0.2300;
1210.8000;0.1392;-0.2492;
1211.1000;0.1457;-0.2468;
1211.4000;0.1416;-0.2684;
1211.7000;0.1449;-0.2540;
1212.0000;0.1449;-0.2516;
1212.3000;0.1465;-0.2468;
1212.6000;0.1538;-0.2252;
1212.9000;0.1457;-0.2420;
1213.2000;0.1449;-0.2468;
1213.5000;0.1441;-0.2564;
1213.8000;0.1441;-0.2540;
1214.1000;0.1457;-0.2492;
1214.4000;0.1433;-0.2612;
1214.7000;0.1457;-0.2612;
1215.0000;0.1514;-0.2372;
1215.3000;0.1449;-0.2564;
1215.6000;0.1465;-0.2468;
1215.9000;0.1514;-0.2372;
1216.2000;0.1457;-0.2564;
1216.5000;0.1465;-0.2516;
1216.8000;0.1449;-0.2516;
1217.1000;0.1457;-0.2564;
1217.4000;0.1441;-0.2660;
1217.7000;0.1441;-0.2660;
1218.0000;0.1441;-0.2731;
1218.3000;0.1449;-0.2636;
1218.6000;0.1449;-0.2636;
1218.9000;0.1457;-0.2660;
1219.2000;0.1473;-0.2636;
1219.5000;0.1465;-0.2660;
1219.8000;0.1465;-0.2540;
1220.1000;0.1457;-0.2492;
1220.4000;0.1465;-0.2564;
1220.7000;0.1506;-0.2348;
1221.0000;0.1441;-0.2540;
1221.3000;0.1449;-0.2516;
1221.6000;0.1473;-0.2348;
1221.9000;0.1457;-0.2372;
1222.2000;0.1457;-0.2396;
1222.5000;0.1441;-0.2444;
1222.8000;0.1449;-0.2468;
1223.1000;0.1506;-0.2324;
1223.4000;0.1449;-0.2540;
1223.7000;0.1465;-0.2516;
1224.0000;0.1457;-0.2540;
1224.3000;0.1481;-0.2516;
1224.6000;0.1473;-0.2492;
1224.9000;0.1457;-0.2564;
1225.2000;0.1457;-0.2660;
1225.5000;0.1481;-0.2588;
1225.8000;0.1465;-0.2612;
1226.1000;0.1465;-0.2564;
1226.4000;0.1433;-0.2684;
1226.7000;0.1457;-0.2612;
1227.0000;0.1457;-0.2564;
1227.3000;0.1490;-0.2420;
1227.6000;0.1457;-0.2540;
1227.9000;0.1514;-0.2396;
1228.2000;0.1441;-0.2588;
1228.5000;0.1425;-0.2588;
1228.8000;0.1473;-0.2540;
1229.1000;0.1441;-0.2588;
1229.4000;0.1441;-0.2660;
1229.7000;0.1457;-0.2540;
1230.0000;0.1538;-0.2252;
1230.3000;0.1449;-0.2540;
1230.6000;0.1481;-0.2444;
1230.9000;0.1457;-0.2396;
1231.2000;0.1473;-0.2444;
1231.5000;0.1465;-0.2444;
1231.8000;0.1441;-0.2444;
1232.1000;0.1457;-0.2444;
1232.4000;0.1433;-0.2540;
1232.7000;0.1449;-0.2468;
1233.0000;0.1433;-0.2516;
1233.3000;0.1465;-0.2420;
1233.6000;0.1425;-0.2492;
1233.9000;0.1433;-0.2396;
1234.2000;0.1457;-0.2348;
1234.5000;0.1579;-0.2037;
1234.8000;0.1465;-0.2324;
1235.1000;0.1457;-0.2396;
1235.4000;0.1473;-0.2396;
1235.7000;0.1457;-0.2420;
1236.0000;0.1473;-0.2348;
1236.3000;0.1473;-0.2372;
1236.6000;0.1425;-0.2444;
1236.9000;0.1433;-0.2420;
1237.2000;0.1457;-0.2300;
1237.5000;0.1514;-0.2156;
1237.8000;0.1416;-0.2348;
1238.1000;0.1433;-0.2300;
1238.4000;0.1473;-0.2156;
1238.7000;0.1343;-0.2588;
1239.0000;0.1441;-0.2180;
1239.3000;0.1433;-0.2061;
1239.6000;0.1449;-0.2037;
1239.9000;0.1473;-0.2061;
1240.2000;0.1490;-0.2085;
1240.5000;0.1481;-0.2132;
1240.8000;0.1481;-0.2180;
1241.1000;0.1441;-0.2276;
1241.4000;0.1457;-0.2132;
1241.7000;0.1449;-0.2204;
1242.0000;0.1481;-0.2180;
1242.3000;0.1473;-0.2252;
1242.6000;0.1433;-0.2396;
1242.9000;0.1465;-0.2396;
1243.2000;0.1473;-0.2420;
1243.5000;0.1465;-0.2468;
1243.8000;0.1481;-0.2348;
1244.1000;0.1514;-0.2300;
1244.4000;0.1465;-0.2396;
1244.7000;0.1433;-0.2444;
1245.0000;0.1351;-0.2660;
1245.3000;0.1481;-0.2372;
1245.6000;0.1441;-0.2588;
1245.9000;0.1465;-0.2540;
1246.2000;0.1490;-0.2468;
1246.5000;0.1449;-0.2492;
1246.8000;0.1449;-0.2420;
1247.1000;0.1506;-0.2180;
1247.4000;0.1457;-0.2276;
1247.7000;0.1441;-0.2348;
1248.0000;0.1465;-0.2324;
1248.3000;0.1449;-0.2276;
1248.6000;0.1449;-0.2324;
1248.9000;0.1441;-0.2324;
1249.2000;0.1465;-0.2252;
1249.5000;0.1465;-0.2252;
1249.8000;0.1457;-0.2420;
1250.1000;0.1449;-0.2444;
1250.4000;0.1538;-0.2204;
1250.7000;0.1449;-0.2468;
1251.0000;0.1465;-0.2468;
1251.3000;0.1441;-0.2468;
1251.6000;0.1465;-0.2324;
1251.9000;0.1408;-0.2348;
1252.2000;0.1457;-0.2252;
1252.5000;0.1441;-0.2276;
1252.8000;0.1465;-0.2372;
1253.1000;0.1433;-0.2468;
1253.4000;0.1481;-0.2324;
1253.7000;0.1449;-0.2444;
1254.0000;0.1449;-0.2372;
1254.3000;0.1425;-0.2492;
1254.6000;0.1465;-0.2420;
1254.9000;0.1441;-0.2468;
1255.2000;0.1481;-0.2372;
1255.5000;0.1465;-0.2444;
1255.8000;0.1465;-0.2444;
1256.1000;0.1465;-0.2396;
1256.4000;0.1433;-0.2444;
1256.7000;0.1465;-0.2396;
1257.0000;0.1425;-0.2444;
1257.3000;0.1473;-0.2324;
1257.6000;0.1449;-0.2396;
1257.9000;0.1449;-0.2396;
1258.2000;0.1490;-0.2396;
1258.5000;0.1595;-0.2037;
1258.8000;0.1579;-0.2013;
1259.1000;0.1449;-0.2324;
1259.4000;0.1457;-0.2300;
1259.7000;0.1433;-0.2324;
1260.0000;0.1449;-0.2324;
1260.3000;0.1449;-0.2324;
1260.6000;0.1400;-0.2588;
1260.9000;0.1441;-0.2468;
1261.2000;0.1433;-0.2540;
1261.5000;0.1384;-0.2636;
1261.8000;0.1449;-0.2444;
1262.1000;0.1506;-0.2300;
1262.4000;0.1506;-0.2276;
1262.7000;0.1449;-0.2324;
1263.0000;0.1351;-0.2612;
1263.3000;0.1400;-0.2516;
1263.6000;0.1441;-0.2468;
1263.9000;0.1465;-0.2372;
1264.2000;0.1465;-0.2300;
1264.5000;0.1441;-0.2228;
1264.8000;0.1408;-0.2300;
1265.1000;0.1400;-0.2372;
1265.4000;0.1457;-0.2132;
1265.7000;0.1481;-0.2156;
1266.0000;0.1490;-0.2085;
1266.3000;0.1441;-0.2228;
1266.6000;0.1449;-0.2300;
1266.9000;0.1473;-0.2372;
1267.2000;0.1425;-0.2516;
1267.5000;0.1465;-0.2396;
1267.8000;0.1457;-0.2396;
1268.1000;0.1465;-0.2420;
1268.4000;0.1473;-0.2396;
1268.7000;0.1457;-0.2444;
1269.0000;0.1473;-0.2372;
1269.3000;0.1449;-0.2492;
1269.6000;0.1473;-0.2468;
1269.9000;0.1481;-0.2396;
1270.2000;0.1433;-0.2420;
1270.5000;0.1449;-0.2300;
1270.8000;0.1457;-0.2324;
1271.1000;0.1441;-0.2372;
1271.4000;0.1433;-0.2420;
1271.7000;0.1433;-0.2492;
1272.0000;0.1433;-0.2516;
1272.3000;0.1425;-0.2396;
1272.6000;0.1465;-0.2300;
1272.9000;0.1449;-0.2300;
1273.2000;0.1441;-0.2276;
1273.5000;0.1441;-0.2252;
1273.8000;0.1441;-0.2348;
1274.1000;0.1473;-0.2396;
1274.4000;0.1473;-0.2420;
1274.7000;0.1457;-0.2516;
1275.0000;0.1457;-0.2564;
1275.3000;0.1441;-0.2540;
1275.6000;0.1441;-0.2540;
1275.9000;0.1465;-0.2540;
1276.2000;0.1473;-0.2564;
1276.5000;0.1498;-0.2468;
1276.8000;0.1465;-0.2468;
1277.1000;0.1441;-0.2588;
1277.4000;0.1449;-0.2612;
1277.7000;0.1441;-0.2564;
1278.0000;0.1441;-0.2540;
1278.3000;0.1473;-0.2468;
1278.6000;0.1481;-0.2444;
1278.9000;0.1457;-0.2516;
1279.2000;0.1441;-0.2564;
1279.5000;0.1473;-0.2516;
1279.8000;0.1441;-0.2468;
1280.1000;0.1425;-0.2540;
1280.4000;0.1457;-0.2468;
1280.7000;0.1449;-0.2612;
1281.0000;0.1465;-0.2612;
1281.3000;0.1457;-0.2588;
1281.6000;0.1425;-0.2612;
1281.9000;0.1457;-0.2612;
1282.2000;0.1473;-0.2516;
1282.5000;0.1473;-0.2420;
1282.8000;0.1473;-0.2444;
1283.1000;0.1473;-0.2420;
1283.4000;0.1457;-0.2492;
1283.7000;0.1465;-0.2444;
1284.0000;0.1465;-0.2444;
1284.3000;0.1441;-0.2396;
1284.6000;0.1465;-0.2324;
1284.9000;0.1457;-0.2324;
1285.2000;0.1449;-0.2420;
1285.5000;0.1457;-0.2540;
1285.8000;0.1457;-0.2540;
1286.1000;0.1473;-0.2516;
1286.4000;0.1425;-0.2636;
1286.7000;0.1441;-0.2707;
1287.0000;0.1457;-0.2588;
1287.3000;0.1449;-0.2636;
1287.6000;0.1473;-0.2516;
1287.9000;0.1473;-0.2588;
1288.2000;0.1433;-0.2731;
1288.5000;0.1457;-0.2755;
1288.8000;0.1457;-0.2851;
1289.1000;0.1433;-0.2947;
1289.4000;0.1490;-0.2851;
1289.7000;0.1457;-0.2899;
1290.0000;0.1473;-0.2803;
1290.3000;0.1441;-0.2875;
1290.6000;0.1473;-0.2851;
1290.9000;0.1433;-0.2899;
1291.2000;0.1465;-0.2755;
1291.5000;0.1457;-0.2779;
1291.8000;0.1449;-0.2779;
1292.1000;0.1433;-0.2731;
1292.4000;0.1416;-0.2731;
1292.7000;0.1490;-0.2468;
1293.0000;0.1457;-0.2636;
1293.3000;0.1457;-0.2684;
1293.6000;0.1425;-0.2707;
1293.9000;0.1465;-0.2564;
1294.2000;0.1473;-0.2612;
1294.5000;0.1473;-0.2684;
1294.8000;0.1449;-0.2779;
1295.1000;0.1473;-0.2707;
1295.4000;0.1433;-0.2851;
1295.7000;0.1449;-0.2731;
1296.0000;0.1457;-0.2731;
1296.3000;0.1473;-0.2684;
1296.6000;0.1457;-0.2660;
1296.9000;0.1433;-0.2779;
1297.2000;0.1441;-0.2731;
1297.5000;0.1481;-0.2636;
1297.8000;0.1579;-0.2180;
1298.1000;0.1441;-0.2612;
1298.4000;0.1416;-0.2588;
1298.7000;0.1457;-0.2468;
1299.0000;0.1425;-0.2612;
1299.3000;0.1457;-0.2564;
1299.6000;0.1465;-0.2588;
1299.9000;0.1343;-0.2803;
1300.2000;0.1490;-0.2540;
1300.5000;0.1481;-0.2612;
1300.8000;0.1449;-0.2684;
1301.1000;0.1400;-0.2684;
1301.4000;0.1465;-0.2492;
1301.7000;0.1465;-0.2492;
1302.0000;0.1441;-0.2588;
1302.3000;0.1425;-0.2660;
1302.6000;0.1433;-0.2684;
1302.9000;0.1465;-0.2588;
1303.2000;0.1433;-0.2612;
1303.5000;0.1449;-0.2612;
1303.8000;0.1465;-0.2564;
1304.1000;0.1449;-0.2636;
1304.4000;0.1457;-0.2636;
1304.7000;0.1465;-0.2731;
1305.0000;0.1457;-0.2660;
1305.3000;0.1457;-0.2564;
1305.6000;0.1465;-0.2540;
1305.9000;0.1441;-0.2636;
1306.2000;0.1425;-0.2755;
1306.5000;0.1473;-0.2636;
1306.8000;0.1449;-0.2755;
1307.1000;0.1473;-0.2684;
1307.4000;0.1392;-0.2875;
1307.7000;0.1449;-0.2707;
1308.0000;0.1441;-0.2684;
1308.3000;0.1433;-0.2731;
1308.6000;0.1433;-0.2684;
1308.9000;0.1449;-0.2684;
1309.2000;0.1449;-0.2731;
1309.5000;0.1465;-0.2755;
1309.8000;0.1473;-0.2731;
1310.1000;0.1441;-0.2803;
1310.4000;0.1441;-0.2803;
1310.7000;0.1465;-0.2731;
1311.0000;0.1571;-0.2492;
1311.3000;0.1416;-0.2923;
1311.6000;0.1441;-0.2731;
1311.9000;0.1465;-0.2731;
1312.2000;0.1433;-0.2947;
1312.5000;0.1473;-0.2923;
1312.8000;0.1449;-0.3019;
1313.1000;0.1473;-0.3043;
1313.4000;0.1449;-0.3043;
1313.7000;0.1433;-0.3115;
1314.0000;0.1449;-0.2995;
1314.3000;0.1449;-0.2947;
1314.6000;0.1449;-0.2875;
1314.9000;0.1433;-0.2851;
1315.2000;0.1449;-0.2755;
1315.5000;0.1473;-0.2707;
1315.8000;0.1498;-0.2564;
1316.1000;0.1449;-0.2755;
1316.4000;0.1465;-0.2707;
1316.7000;0.1547;-0.2468;
1317.0000;0.1465;-0.2636;
1317.3000;0.1441;-0.2803;
1317.6000;0.1457;-0.2731;
1317.9000;0.1449;-0.2755;
1318.2000;0.1449;-0.2660;
1318.5000;0.1449;-0.2636;
1318.8000;0.1433;-0.2564;
1319.1000;0.1473;-0.2492;
1319.4000;0.1465;-0.2420;
1319.7000;0.1473;-0.2420;
1320.0000;0.1563;-0.2180;
1320.3000;0.1441;-0.2564;
1320.6000;0.1449;-0.2492;
1320.9000;0.1457;-0.2492;
1321.2000;0.1449;-0.2492;
1321.5000;0.1465;-0.2516;
1321.8000;0.1416;-0.2612;
1322.1000;0.1433;-0.2516;
1322.4000;0.1449;-0.2468;
1322.7000;0.1449;-0.2444;
1323.0000;0.1449;-0.2444;
1323.3000;0.1465;-0.2420;
1323.6000;0.1465;-0.2372;
1323.9000;0.1530;-0.2228;
1324.2000;0.1457;-0.2444;
1324.5000;0.1465;-0.2396;
1324.8000;0.1441;-0.2468;
1325.1000;0.1416;-0.2492;
1325.4000;0.1465;-0.2300;
1325.7000;0.1465;-0.2372;
1326.0000;0.1473;-0.2420;
1326.3000;0.1481;-0.2420;
1326.6000;0.1441;-0.2540;
1326.9000;0.1351;-0.2803;
1327.2000;0.1473;-0.2492;
1327.5000;0.1465;-0.2468;
1327.8000;0.1441;-0.2612;
1328.1000;0.1457;-0.2588;
1328.4000;0.1481;-0.2540;
1328.7000;0.1465;-0.2660;
1329.0000;0.1457;-0.2803;
1329.3000;0.1441;-0.2731;
1329.6000;0.1457;-0.2779;
1329.9000;0.1457;-0.2779;
1330.2000;0.1465;-0.2755;
1330.5000;0.1449;-0.2827;
1330.8000;0.1449;-0.2803;
1331.1000;0.1538;-0.2492;
1331.4000;0.1506;-0.2660;
1331.7000;0.1465;-0.2731;
1332.0000;0.1457;-0.2684;
1332.3000;0.1433;-0.2755;
1332.6000;0.1465;-0.2660;
1332.9000;0.1457;-0.2588;
1333.2000;0.1457;-0.2564;
1333.5000;0.1473;-0.2540;
1333.8000;0.1449;-0.2492;
1334.1000;0.1449;-0.2564;
1334.4000;0.1449;-0.2612;
1334.7000;0.1433;-0.2636;
1335.0000;0.1457;-0.2612;
1335.3000;0.1457;-0.2564;
1335.6000;0.1481;-0.2396;
1335.9000;0.1449;-0.2540;
1336.2000;0.1441;-0.2492;
1336.5000;0.1433;-0.2540;
1336.8000;0.1473;-0.2396;
1337.1000;0.1457;-0.2444;
1337.4000;0.1335;-0.2779;
1337.7000;0.1457;-0.2588;
1338.0000;0.1457;-0.2612;
1338.3000;0.1351;-0.2827;
1338.6000;0.1465;-0.2420;
1338.9000;0.1465;-0.2420;
1339.2000;0.1457;-0.2444;
1339.5000;0.1465;-0.2444;
1339.8000;0.1473;-0.2396;
1340.1000;0.1441;-0.2468;
1340.4000;0.1433;-0.2612;
1340.7000;0.1457;-0.2540;
1341.0000;0.1457;-0.2516;
1341.3000;0.1473;-0.2516;
1341.6000;0.1449;-0.2588;
1341.9000;0.1465;-0.2516;
1342.2000;0.1449;-0.2636;
1342.5000;0.1457;-0.2540;
1342.8000;0.1473;-0.2492;
1343.1000;0.1449;-0.2540;
1343.4000;0.1457;-0.2540;
1343.7000;0.1384;-0.2755;
1344.0000;0.1514;-0.2468;
1344.3000;0.1465;-0.2588;
1344.6000;0.1449;-0.2588;
1344.9000;0.1465;-0.2516;
1345.2000;0.1473;-0.2468;
1345.5000;0.1481;-0.2396;
1345.8000;0.1384;-0.2660;
1346.1000;0.1449;-0.2540;
1346.4000;0.1481;-0.2492;
1346.7000;0.1465;-0.2636;
1347.0000;0.1449;-0.2731;
1347.3000;0.1449;-0.2755;
1347.6000;0.1441;-0.2731;
1347.9000;0.1457;-0.2660;
1348.2000;0.1441;-0.2803;
1348.5000;0.1449;-0.2899;
1348.8000;0.1473;-0.2779;
1349.1000;0.1465;-0.2779;
1349.4000;0.1400;-0.3019;
1349.7000;0.1449;-0.2755;
1350.0000;0.1449;-0.2660;
1350.3000;0.1465;-0.2612;
1350.6000;0.1449;-0.2660;
1350.9000;0.1571;-0.2372;
1351.2000;0.1449;-0.2660;
1351.5000;0.1465;-0.2612;
1351.8000;0.1449;-0.2540;
1352.1000;0.1498;-0.2420;
1352.4000;0.1457;-0.2540;
1352.7000;0.1457;-0.2468;
1353.0000;0.1457;-0.2468;
1353.3000;0.1465;-0.2492;
1353.6000;0.1425;-0.2564;
1353.9000;0.1441;-0.2444;
1354.2000;0.1465;-0.2420;
1354.5000;0.1465;-0.2324;
1354.8000;0.1465;-0.2348;
1355.1000;0.1481;-0.2276;
1355.4000;0.1457;-0.2348;
1355.7000;0.1465;-0.2372;
1356.0000;0.1433;-0.2468;
1356.3000;0.1441;-0.2396;
1356.6000;0.1433;-0.2468;
1356.9000;0.1384;-0.2779;
1357.2000;0.1433;-0.2636;
1357.5000;0.1465;-0.2564;
1357.8000;0.1481;-0.2540;
1358.1000;0.1465;-0.2660;
1358.4000;0.1506;-0.2588;
1358.7000;0.1441;-0.2660;
1359.0000;0.1490;-0.2660;
1359.3000;0.1465;-0.2636;
1359.6000;0.1441;-0.2660;
1359.9000;0.1433;-0.2612;
1360.2000;0.1449;-0.2636;
1360.5000;0.1425;-0.2684;
1360.8000;0.1457;-0.2636;
1361.1000;0.1457;-0.2612;
1361.4000;0.1425;-0.2755;
1361.7000;0.1433;-0.2779;
1362.0000;0.1465;-0.2684;
1362.3000;0.1449;-0.2684;
1362.6000;0.1473;-0.2636;
1362.9000;0.1449;-0.2779;
1363.2000;0.1457;-0.2684;
1363.5000;0.1473;-0.2660;
1363.8000;0.1465;-0.2707;
1364.1000;0.1473;-0.2707;
1364.4000;0.1465;-0.2684;
1364.7000;0.1465;-0.2684;
1365.0000;0.1441;-0.2684;
1365.3000;0.1473;-0.2612;
1365.6000;0.1473;-0.2636;
1365.9000;0.1473;-0.2588;
1366.2000;0.1465;-0.2636;
1366.5000;0.1473;-0.2636;
1366.8000;0.1457;-0.2684;
1367.1000;0.1481;-0.2636;
1367.4000;0.1490;-0.2612;
1367.7000;0.1457;-0.2707;
1368.0000;0.1441;-0.2755;
1368.3000;0.1416;-0.2875;
1368.6000;0.1457;-0.2827;
1368.9000;0.1473;-0.2731;
1369.2000;0.1433;-0.2779;
1369.5000;0.1465;-0.2684;
1369.8000;0.1400;-0.2779;
1370.1000;0.1465;-0.2660;
1370.4000;0.1473;-0.2612;
1370.7000;0.1441;-0.2731;
1371.0000;0.1481;-0.2660;
1371.3000;0.1481;-0.2684;
1371.6000;0.1335;-0.2995;
1371.9000;0.1465;-0.2660;
1372.2000;0.1481;-0.2612;
1372.5000;0.1457;-0.2660;
1372.8000;0.1449;-0.2707;
1373.1000;0.1465;-0.2684;
1373.4000;0.1449;-0.2660;
1373.7000;0.1457;-0.2612;
1374.0000;0.1490;-0.2516;
1374.3000;0.1351;-0.2779;
1374.6000;0.1473;-0.2468;
1374.9000;0.1473;-0.2492;
1375.2000;0.1465;-0.2516;
1375.5000;0.1473;-0.2540;
1375.8000;0.1433;-0.2636;
1376.1000;0.1449;-0.2660;
1376.4000;0.1457;-0.2636;
1376.7000;0.1457;-0.2707;
1377.0000;0.1481;-0.2636;
1377.3000;0.1327;-0.2971;
1377.6000;0.1457;-0.2588;
1377.9000;0.1433;-0.2636;
1378.2000;0.1368;-0.2803;
1378.5000;0.1449;-0.2612;
1378.8000;0.1449;-0.2755;
1379.1000;0.1400;-0.2779;
1379.4000;0.1441;-0.2755;
1379.7000;0.1465;-0.2684;
1380.0000;0.1433;-0.2660;
1380.3000;0.1465;-0.2492;
1380.6000;0.1498;-0.2468;
1380.9000;0.1490;-0.2492;
1381.2000;0.1465;-0.2516;
1381.5000;0.1457;-0.2516;
1381.8000;0.1473;-0.2492;
1382.1000;0.1457;-0.2564;
1382.4000;0.1441;-0.2468;
1382.7000;0.1449;-0.2444;
1383.0000;0.1449;-0.2492;
1383.3000;0.1449;-0.2444;
1383.6000;0.1400;-0.2540;
1383.9000;0.1400;-0.2492;
1384.2000;0.1538;-0.2156;
1384.5000;0.1449;-0.2324;
1384.8000;0.1457;-0.2420;
1385.1000;0.1457;-0.2492;
1385.4000;0.1384;-0.2564;
1385.7000;0.1465;-0.2444;
1386.0000;0.1465;-0.2444;
1386.3000;0.1473;-0.2492;
1386.6000;0.1473;-0.2516;
1386.9000;0.1465;-0.2492;
1387.2000;0.1449;-0.2492;
1387.5000;0.1319;-0.2827;
1387.8000;0.1473;-0.2468;
1388.1000;0.1465;-0.2420;
1388.4000;0.1449;-0.2420;
1388.7000;0.1465;-0.2420;
1389.0000;0.1449;-0.2420;
1389.3000;0.1449;-0.2516;
1389.6000;0.1441;-0.2588;
1389.9000;0.1425;-0.2636;
1390.2000;0.1457;-0.2612;
1390.5000;0.1481;-0.2540;
1390.8000;0.1457;-0.2540;
1391.1000;0.1457;-0.2540;
1391.4000;0.1498;-0.2492;
1391.7000;0.1457;-0.2492;
1392.0000;0.1457;-0.2564;
1392.3000;0.1449;-0.2564;
1392.6000;0.1465;-0.2564;
1392.9000;0.1465;-0.2492;
1393.2000;0.1457;-0.2468;
1393.5000;0.1433;-0.2492;
1393.8000;0.1441;-0.2420;
1394.1000;0.1441;-0.2396;
1394.4000;0.1465;-0.2468;
1394.7000;0.1441;-0.2564;
1395.0000;0.1449;-0.2636;
1395.3000;0.1465;-0.2660;
1395.6000;0.1449;-0.2636;
1395.9000;0.1449;-0.2636;
1396.2000;0.1457;-0.2636;
1396.5000;0.1481;-0.2540;
1396.8000;0.1473;-0.2564;
1397.1000;0.1457;-0.2516;
1397.4000;0.1465;-0.2516;
1397.7000;0.1449;-0.2540;
1398.0000;0.1457;-0.2588;
1398.3000;0.1457;-0.2612;
1398.6000;0.1433;-0.2660;
1398.9000;0.1449;-0.2612;
1399.2000;0.1449;-0.2636;
1399.5000;0.1457;-0.2540;
1399.8000;0.1457;-0.2588;
