time/ms;Fluo/V;P700 deltaI/I x10³;
-199.8000;0.0879;-0.8290;
-199.5000;0.0904;-0.8312;
-199.2000;0.0855;-0.8425;
-198.9000;0.0855;-0.8425;
-198.6000;0.0847;-0.8358;
-198.3000;0.0895;-0.8335;
-198.0000;0.0879;-0.8380;
-197.7000;0.0855;-0.8471;
-197.4000;0.0806;-0.8607;
-197.1000;0.0855;-0.8448;
-196.8000;0.0863;-0.8358;
-196.5000;0.0838;-0.8403;
-196.2000;0.0887;-0.8267;
-195.9000;0.0961;-0.8108;
-195.6000;0.0920;-0.8176;
-195.3000;0.0879;-0.8244;
-195.0000;0.0887;-0.8222;
-194.7000;0.0920;-0.8154;
-194.4000;0.0863;-0.8267;
-194.1000;0.0887;-0.8222;
-193.8000;0.0855;-0.8199;
-193.5000;0.0871;-0.8086;
-193.2000;0.0863;-0.8176;
-192.9000;0.0863;-0.8176;
-192.6000;0.0855;-0.8199;
-192.3000;0.0895;-0.8108;
-192.0000;0.0863;-0.8267;
-191.7000;0.0895;-0.8199;
-191.4000;0.0887;-0.8290;
-191.1000;0.0912;-0.8222;
-190.8000;0.0879;-0.8199;
-190.5000;0.0895;-0.8131;
-190.2000;0.0863;-0.8154;
-189.9000;0.0887;-0.8018;
-189.6000;0.0847;-0.8154;
-189.3000;0.0936;-0.7972;
-189.0000;0.0887;-0.8018;
-188.7000;0.0790;-0.8267;
-188.4000;0.0879;-0.8176;
-188.1000;0.0871;-0.8244;
-187.8000;0.0847;-0.8335;
-187.5000;0.0847;-0.8312;
-187.2000;0.0879;-0.8290;
-186.9000;0.0871;-0.8290;
-186.6000;0.0879;-0.8199;
-186.3000;0.0871;-0.8154;
-186.0000;0.0863;-0.8222;
-185.7000;0.0847;-0.8267;
-185.4000;0.0871;-0.8154;
-185.1000;0.0847;-0.8199;
-184.8000;0.0871;-0.8131;
-184.5000;0.0912;-0.8108;
-184.2000;0.0920;-0.8131;
-183.9000;0.0879;-0.8267;
-183.6000;0.0904;-0.8244;
-183.3000;0.0847;-0.8380;
-183.0000;0.0855;-0.8448;
-182.7000;0.0879;-0.8380;
-182.4000;0.0871;-0.8358;
-182.1000;0.0895;-0.8290;
-181.8000;0.0887;-0.8448;
-181.5000;0.0855;-0.8493;
-181.2000;0.0863;-0.8539;
-180.9000;0.0855;-0.8493;
-180.6000;0.0871;-0.8403;
-180.3000;0.0871;-0.8448;
-180.0000;0.0863;-0.8471;
-179.7000;0.0895;-0.8425;
-179.4000;0.0855;-0.8516;
-179.1000;0.0879;-0.8403;
-178.8000;0.0871;-0.8358;
-178.5000;0.0814;-0.8584;
-178.2000;0.0871;-0.8539;
-177.9000;0.0863;-0.8516;
-177.6000;0.0887;-0.8425;
-177.3000;0.0879;-0.8425;
-177.0000;0.0879;-0.8471;
-176.7000;0.0871;-0.8471;
-176.4000;0.0895;-0.8403;
-176.1000;0.0871;-0.8425;
-175.8000;0.0871;-0.8380;
-175.5000;0.0904;-0.8312;
-175.2000;0.0904;-0.8335;
-174.9000;0.0871;-0.8425;
-174.6000;0.0863;-0.8312;
-174.3000;0.0863;-0.8199;
-174.0000;0.0879;-0.8222;
-173.7000;0.0871;-0.8244;
-173.4000;0.0871;-0.8244;
-173.1000;0.0838;-0.8335;
-172.8000;0.0863;-0.8335;
-172.5000;0.0855;-0.8380;
-172.2000;0.0879;-0.8267;
-171.9000;0.0871;-0.8312;
-171.6000;0.0895;-0.8222;
-171.3000;0.0863;-0.8267;
-171.0000;0.0871;-0.8267;
-170.7000;0.0887;-0.8244;
-170.4000;0.0887;-0.8199;
-170.1000;0.0887;-0.8267;
-169.8000;0.0895;-0.8244;
-169.5000;0.0855;-0.8290;
-169.2000;0.0904;-0.8154;
-168.9000;0.0904;-0.8176;
-168.6000;0.0871;-0.8312;
-168.3000;0.0879;-0.8244;
-168.0000;0.0871;-0.8267;
-167.7000;0.0871;-0.8244;
-167.4000;0.0887;-0.8380;
-167.1000;0.0855;-0.8448;
-166.8000;0.0871;-0.8403;
-166.5000;0.0863;-0.8448;
-166.2000;0.0863;-0.8493;
-165.9000;0.0879;-0.8493;
-165.6000;0.0904;-0.8380;
-165.3000;0.0895;-0.8358;
-165.0000;0.0863;-0.8403;
-164.7000;0.0871;-0.8358;
-164.4000;0.0855;-0.8425;
-164.1000;0.0871;-0.8403;
-163.8000;0.0765;-0.8629;
-163.5000;0.0879;-0.8471;
-163.2000;0.0879;-0.8539;
-162.9000;0.0871;-0.8584;
-162.6000;0.0838;-0.8584;
-162.3000;0.0895;-0.8403;
-162.0000;0.1018;-0.7995;
-161.7000;0.0920;-0.8154;
-161.4000;0.0887;-0.8267;
-161.1000;0.0879;-0.8380;
-160.8000;0.0830;-0.8629;
-160.5000;0.0920;-0.8448;
-160.2000;0.0895;-0.8584;
-159.9000;0.0798;-0.8788;
-159.6000;0.0863;-0.8675;
-159.3000;0.0822;-0.8720;
-159.0000;0.0920;-0.8425;
-158.7000;0.0863;-0.8516;
-158.4000;0.0855;-0.8425;
-158.1000;0.0879;-0.8222;
-157.8000;0.0887;-0.8222;
-157.5000;0.0830;-0.8312;
-157.2000;0.0879;-0.8176;
-156.9000;0.0895;-0.8086;
-156.6000;0.0863;-0.8108;
-156.3000;0.0879;-0.8040;
-156.0000;0.0855;-0.8154;
-155.7000;0.0871;-0.8108;
-155.4000;0.0871;-0.8176;
-155.1000;0.0863;-0.8267;
-154.8000;0.0879;-0.8290;
-154.5000;0.0871;-0.8358;
-154.2000;0.0871;-0.8335;
-153.9000;0.0895;-0.8403;
-153.6000;0.0879;-0.8425;
-153.3000;0.0887;-0.8448;
-153.0000;0.0863;-0.8471;
-152.7000;0.0920;-0.8335;
-152.4000;0.0895;-0.8380;
-152.1000;0.0871;-0.8448;
-151.8000;0.0904;-0.8403;
-151.5000;0.0855;-0.8493;
-151.2000;0.0904;-0.8425;
-150.9000;0.0871;-0.8561;
-150.6000;0.0847;-0.8584;
-150.3000;0.0895;-0.8448;
-150.0000;0.0879;-0.8425;
-149.7000;0.0895;-0.8335;
-149.4000;0.0871;-0.8380;
-149.1000;0.0871;-0.8335;
-148.8000;0.0871;-0.8403;
-148.5000;0.0879;-0.8403;
-148.2000;0.0879;-0.8290;
-147.9000;0.0863;-0.8267;
-147.6000;0.0904;-0.8199;
-147.3000;0.0912;-0.8222;
-147.0000;0.0871;-0.8380;
-146.7000;0.0887;-0.8358;
-146.4000;0.0879;-0.8312;
-146.1000;0.0838;-0.8335;
-145.8000;0.0847;-0.8380;
-145.5000;0.0871;-0.8380;
-145.2000;0.0863;-0.8335;
-144.9000;0.0830;-0.8448;
-144.6000;0.0863;-0.8380;
-144.3000;0.0847;-0.8335;
-144.0000;0.0879;-0.8335;
-143.7000;0.0879;-0.8335;
-143.4000;0.0904;-0.8267;
-143.1000;0.0814;-0.8561;
-142.8000;0.0863;-0.8448;
-142.5000;0.0855;-0.8471;
-142.2000;0.0830;-0.8425;
-141.9000;0.0928;-0.8312;
-141.6000;0.0920;-0.8312;
-141.3000;0.0928;-0.8312;
-141.0000;0.0928;-0.8358;
-140.7000;0.0895;-0.8380;
-140.4000;0.0855;-0.8539;
-140.1000;0.0904;-0.8403;
-139.8000;0.0895;-0.8312;
-139.5000;0.0879;-0.8290;
-139.2000;0.0847;-0.8335;
-138.9000;0.0806;-0.8584;
-138.6000;0.0895;-0.8448;
-138.3000;0.0887;-0.8471;
-138.0000;0.0944;-0.8312;
-137.7000;0.0928;-0.8335;
-137.4000;0.0920;-0.8358;
-137.1000;0.0871;-0.8493;
-136.8000;0.0790;-0.8675;
-136.5000;0.0847;-0.8516;
-136.2000;0.0871;-0.8471;
-135.9000;0.0879;-0.8471;
-135.6000;0.0871;-0.8425;
-135.3000;0.0863;-0.8358;
-135.0000;0.0871;-0.8380;
-134.7000;0.0879;-0.8403;
-134.4000;0.0863;-0.8380;
-134.1000;0.0847;-0.8335;
-133.8000;0.0904;-0.8176;
-133.5000;0.0847;-0.8267;
-133.2000;0.0887;-0.8154;
-132.9000;0.0863;-0.8290;
-132.6000;0.0855;-0.8425;
-132.3000;0.0863;-0.8290;
-132.0000;0.0855;-0.8267;
-131.7000;0.0887;-0.8176;
-131.4000;0.0847;-0.8335;
-131.1000;0.0806;-0.8471;
-130.8000;0.0887;-0.8335;
-130.5000;0.0838;-0.8516;
-130.2000;0.0871;-0.8493;
-129.9000;0.0928;-0.8448;
-129.6000;0.0887;-0.8516;
-129.3000;0.0863;-0.8561;
-129.0000;0.0855;-0.8539;
-128.7000;0.0863;-0.8448;
-128.4000;0.0855;-0.8448;
-128.1000;0.0871;-0.8403;
-127.8000;0.0838;-0.8539;
-127.5000;0.0855;-0.8516;
-127.2000;0.0863;-0.8584;
-126.9000;0.0838;-0.8652;
-126.6000;0.0830;-0.8652;
-126.3000;0.0863;-0.8697;
-126.0000;0.0863;-0.8629;
-125.7000;0.0871;-0.8448;
-125.4000;0.0879;-0.8425;
-125.1000;0.0863;-0.8425;
-124.8000;0.0871;-0.8448;
-124.5000;0.0879;-0.8403;
-124.2000;0.0887;-0.8358;
-123.9000;0.0847;-0.8380;
-123.6000;0.0887;-0.8312;
-123.3000;0.0863;-0.8380;
-123.0000;0.0863;-0.8516;
-122.7000;0.0912;-0.8516;
-122.4000;0.0887;-0.8607;
-122.1000;0.0863;-0.8652;
-121.8000;0.0871;-0.8652;
-121.5000;0.0863;-0.8720;
-121.2000;0.0895;-0.8652;
-120.9000;0.0871;-0.8697;
-120.6000;0.0863;-0.8743;
-120.3000;0.0863;-0.8810;
-120.0000;0.0879;-0.8765;
-119.7000;0.0895;-0.8697;
-119.4000;0.0887;-0.8675;
-119.1000;0.0952;-0.8516;
-118.8000;0.0847;-0.8810;
-118.5000;0.0855;-0.8878;
-118.2000;0.0863;-0.8856;
-117.9000;0.0863;-0.8810;
-117.6000;0.0871;-0.8810;
-117.3000;0.0863;-0.8810;
-117.0000;0.0895;-0.8743;
-116.7000;0.0895;-0.8743;
-116.4000;0.0961;-0.8607;
-116.1000;0.0863;-0.8675;
-115.8000;0.0961;-0.8471;
-115.5000;0.0879;-0.8607;
-115.2000;0.0879;-0.8584;
-114.9000;0.0887;-0.8607;
-114.6000;0.0855;-0.8629;
-114.3000;0.0887;-0.8629;
-114.0000;0.0879;-0.8743;
-113.7000;0.0936;-0.8697;
-113.4000;0.0912;-0.8788;
-113.1000;0.0863;-0.8856;
-112.8000;0.0887;-0.8878;
-112.5000;0.0863;-0.8788;
-112.2000;0.0879;-0.8720;
-111.9000;0.0944;-0.8561;
-111.6000;0.0895;-0.8629;
-111.3000;0.0855;-0.8675;
-111.0000;0.0863;-0.8743;
-110.7000;0.0863;-0.8697;
-110.4000;0.0855;-0.8788;
-110.1000;0.0887;-0.8743;
-109.8000;0.0871;-0.8697;
-109.5000;0.0863;-0.8743;
-109.2000;0.0879;-0.8720;
-108.9000;0.0757;-0.9014;
-108.6000;0.0863;-0.8743;
-108.3000;0.0871;-0.8720;
-108.0000;0.0838;-0.8878;
-107.7000;0.0863;-0.8878;
-107.4000;0.0895;-0.8856;
-107.1000;0.0863;-0.8924;
-106.8000;0.0863;-0.8833;
-106.5000;0.0879;-0.8697;
-106.2000;0.0944;-0.8607;
-105.9000;0.0863;-0.8788;
-105.6000;0.0855;-0.8697;
-105.3000;0.0912;-0.8607;
-105.0000;0.0847;-0.8720;
-104.7000;0.0952;-0.8539;
-104.4000;0.0863;-0.8788;
-104.1000;0.0879;-0.8720;
-103.8000;0.0879;-0.8697;
-103.5000;0.0847;-0.8878;
-103.2000;0.0879;-0.8810;
-102.9000;0.0912;-0.8765;
-102.6000;0.0871;-0.8833;
-102.3000;0.0887;-0.8788;
-102.0000;0.0912;-0.8697;
-101.7000;0.0847;-0.8743;
-101.4000;0.0904;-0.8539;
-101.1000;0.0879;-0.8743;
-100.8000;0.0847;-0.8765;
-100.5000;0.0847;-0.8743;
-100.2000;0.0879;-0.8607;
-99.9000;0.0871;-0.8629;
-99.6000;0.0961;-0.8290;
-99.3000;0.0871;-0.8539;
-99.0000;0.0879;-0.8561;
-98.7000;0.0871;-0.8584;
-98.4000;0.0847;-0.8652;
-98.1000;0.0887;-0.8561;
-97.8000;0.0879;-0.8561;
-97.5000;0.0920;-0.8493;
-97.2000;0.0855;-0.8607;
-96.9000;0.0871;-0.8652;
-96.6000;0.0855;-0.8607;
-96.3000;0.0863;-0.8629;
-96.0000;0.0871;-0.8697;
-95.7000;0.0863;-0.8697;
-95.4000;0.0944;-0.8561;
-95.1000;0.0806;-0.8924;
-94.8000;0.0871;-0.8810;
-94.5000;0.0847;-0.8743;
-94.2000;0.0863;-0.8697;
-93.9000;0.0814;-0.8765;
-93.6000;0.0855;-0.8629;
-93.3000;0.0847;-0.8697;
-93.0000;0.0798;-0.8743;
-92.7000;0.0830;-0.8629;
-92.4000;0.0838;-0.8675;
-92.1000;0.0863;-0.8720;
-91.8000;0.0879;-0.8652;
-91.5000;0.0838;-0.8743;
-91.2000;0.0847;-0.8675;
-90.9000;0.0920;-0.8493;
-90.6000;0.0879;-0.8607;
-90.3000;0.0895;-0.8516;
-90.0000;0.0724;-0.8833;
-89.7000;0.0790;-0.8697;
-89.4000;0.0863;-0.8584;
-89.1000;0.0961;-0.8425;
-88.8000;0.0798;-0.8856;
-88.5000;0.0871;-0.8675;
-88.2000;0.0863;-0.8629;
-87.9000;0.0895;-0.8607;
-87.6000;0.0806;-0.8878;
-87.3000;0.0904;-0.8607;
-87.0000;0.0871;-0.8720;
-86.7000;0.0830;-0.8810;
-86.4000;0.0879;-0.8584;
-86.1000;0.0977;-0.8290;
-85.8000;0.0887;-0.8584;
-85.5000;0.0879;-0.8652;
-85.2000;0.0749;-0.8946;
-84.9000;0.0871;-0.8720;
-84.6000;0.0887;-0.8697;
-84.3000;0.0855;-0.8743;
-84.0000;0.0887;-0.8584;
-83.7000;0.0895;-0.8561;
-83.4000;0.0887;-0.8493;
-83.1000;0.0855;-0.8539;
-82.8000;0.0887;-0.8493;
-82.5000;0.0871;-0.8493;
-82.2000;0.0871;-0.8448;
-81.9000;0.0847;-0.8629;
-81.6000;0.0912;-0.8516;
-81.3000;0.0871;-0.8629;
-81.0000;0.0871;-0.8652;
-80.7000;0.0871;-0.8697;
-80.4000;0.0830;-0.8788;
-80.1000;0.0855;-0.8675;
-79.8000;0.0863;-0.8539;
-79.5000;0.0871;-0.8516;
-79.2000;0.0871;-0.8584;
-78.9000;0.0895;-0.8471;
-78.6000;0.0879;-0.8448;
-78.3000;0.0855;-0.8561;
-78.0000;0.0847;-0.8607;
-77.7000;0.0879;-0.8493;
-77.4000;0.0961;-0.8380;
-77.1000;0.0871;-0.8584;
-76.8000;0.0855;-0.8561;
-76.5000;0.0871;-0.8561;
-76.2000;0.0863;-0.8652;
-75.9000;0.0855;-0.8607;
-75.6000;0.0847;-0.8652;
-75.3000;0.0871;-0.8607;
-75.0000;0.0871;-0.8652;
-74.7000;0.0871;-0.8561;
-74.4000;0.0879;-0.8516;
-74.1000;0.0887;-0.8471;
-73.8000;0.0871;-0.8539;
-73.5000;0.0887;-0.8516;
-73.2000;0.0871;-0.8471;
-72.9000;0.0887;-0.8403;
-72.6000;0.0895;-0.8403;
-72.3000;0.0887;-0.8607;
-72.0000;0.0920;-0.8358;
-71.7000;0.0863;-0.8516;
-71.4000;0.0863;-0.8425;
-71.1000;0.0781;-0.8652;
-70.8000;0.0855;-0.8516;
-70.5000;0.0879;-0.8561;
-70.2000;0.0871;-0.8539;
-69.9000;0.0871;-0.8607;
-69.6000;0.0904;-0.8561;
-69.3000;0.0863;-0.8516;
-69.0000;0.0871;-0.8335;
-68.7000;0.0871;-0.8380;
-68.4000;0.0863;-0.8425;
-68.1000;0.0879;-0.8380;
-67.8000;0.0871;-0.8516;
-67.5000;0.0944;-0.8358;
-67.2000;0.0895;-0.8629;
-66.9000;0.0879;-0.8697;
-66.6000;0.0895;-0.8584;
-66.3000;0.0757;-0.8924;
-66.0000;0.0879;-0.8720;
-65.7000;0.0855;-0.8720;
-65.4000;0.0887;-0.8539;
-65.1000;0.0855;-0.8629;
-64.8000;0.0871;-0.8493;
-64.5000;0.0871;-0.8425;
-64.2000;0.0806;-0.8539;
-63.9000;0.0887;-0.8312;
-63.6000;0.0879;-0.8358;
-63.3000;0.0961;-0.8131;
-63.0000;0.0928;-0.8199;
-62.7000;0.0863;-0.8403;
-62.4000;0.0838;-0.8403;
-62.1000;0.0765;-0.8675;
-61.8000;0.0863;-0.8448;
-61.5000;0.0879;-0.8516;
-61.2000;0.0814;-0.8720;
-60.9000;0.0855;-0.8539;
-60.6000;0.0847;-0.8561;
-60.3000;0.0847;-0.8629;
-60.0000;0.0920;-0.8471;
-59.7000;0.0863;-0.8584;
-59.4000;0.0871;-0.8561;
-59.1000;0.0879;-0.8471;
-58.8000;0.0879;-0.8471;
-58.5000;0.0863;-0.8607;
-58.2000;0.0879;-0.8539;
-57.9000;0.0863;-0.8607;
-57.6000;0.0863;-0.8561;
-57.3000;0.0863;-0.8493;
-57.0000;0.0879;-0.8448;
-56.7000;0.0871;-0.8448;
-56.4000;0.0879;-0.8471;
-56.1000;0.0863;-0.8607;
-55.8000;0.0871;-0.8539;
-55.5000;0.0879;-0.8561;
-55.2000;0.0871;-0.8561;
-54.9000;0.0871;-0.8561;
-54.6000;0.0855;-0.8539;
-54.3000;0.0895;-0.8403;
-54.0000;0.0887;-0.8380;
-53.7000;0.0765;-0.8675;
-53.4000;0.0855;-0.8335;
-53.1000;0.0847;-0.8471;
-52.8000;0.0855;-0.8539;
-52.5000;0.0871;-0.8561;
-52.2000;0.0879;-0.8607;
-51.9000;0.0871;-0.8561;
-51.6000;0.0830;-0.8652;
-51.3000;0.0895;-0.8471;
-51.0000;0.0855;-0.8561;
-50.7000;0.0879;-0.8584;
-50.4000;0.0863;-0.8697;
-50.1000;0.0895;-0.8607;
-49.8000;0.0871;-0.8607;
-49.5000;0.0838;-0.8675;
-49.2000;0.0847;-0.8584;
-48.9000;0.0871;-0.8516;
-48.6000;0.0871;-0.8584;
-48.3000;0.0887;-0.8493;
-48.0000;0.0977;-0.8267;
-47.7000;0.0871;-0.8539;
-47.4000;0.0944;-0.8516;
-47.1000;0.0871;-0.8629;
-46.8000;0.0871;-0.8561;
-46.5000;0.0855;-0.8607;
-46.2000;0.0806;-0.8743;
-45.9000;0.0952;-0.8335;
-45.6000;0.0863;-0.8539;
-45.3000;0.0904;-0.8403;
-45.0000;0.0814;-0.8539;
-44.7000;0.0798;-0.8675;
-44.4000;0.0806;-0.8584;
-44.1000;0.0887;-0.8358;
-43.8000;0.0830;-0.8561;
-43.5000;0.0879;-0.8516;
-43.2000;0.0863;-0.8561;
-42.9000;0.0863;-0.8493;
-42.6000;0.0863;-0.8493;
-42.3000;0.0904;-0.8471;
-42.0000;0.0838;-0.8629;
-41.7000;0.0871;-0.8493;
-41.4000;0.0863;-0.8448;
-41.1000;0.0871;-0.8425;
-40.8000;0.0863;-0.8403;
-40.5000;0.0887;-0.8425;
-40.2000;0.0879;-0.8403;
-39.9000;0.0863;-0.8380;
-39.6000;0.0871;-0.8380;
-39.3000;0.0871;-0.8403;
-39.0000;0.0838;-0.8539;
-38.7000;0.0895;-0.8358;
-38.4000;0.0887;-0.8335;
-38.1000;0.0863;-0.8290;
-37.8000;0.0912;-0.8154;
-37.5000;0.0847;-0.8358;
-37.2000;0.0847;-0.8312;
-36.9000;0.0847;-0.8244;
-36.6000;0.0855;-0.8131;
-36.3000;0.0863;-0.8131;
-36.0000;0.0871;-0.8131;
-35.7000;0.0863;-0.8154;
-35.4000;0.0871;-0.8040;
-35.1000;0.0855;-0.8063;
-34.8000;0.0871;-0.8154;
-34.5000;0.0904;-0.7995;
-34.2000;0.0912;-0.8018;
-33.9000;0.0847;-0.8244;
-33.6000;0.0871;-0.8244;
-33.3000;0.0993;-0.7950;
-33.0000;0.0887;-0.8222;
-32.7000;0.0879;-0.8176;
-32.4000;0.0871;-0.8244;
-32.1000;0.0879;-0.8335;
-31.8000;0.0879;-0.8358;
-31.5000;0.0879;-0.8290;
-31.2000;0.0904;-0.8312;
-30.9000;0.0887;-0.8290;
-30.6000;0.0879;-0.8267;
-30.3000;0.0863;-0.8267;
-30.0000;0.0871;-0.8358;
-29.7000;0.0920;-0.8199;
-29.4000;0.0863;-0.8312;
-29.1000;0.0863;-0.8335;
-28.8000;0.0871;-0.8358;
-28.5000;0.0847;-0.8380;
-28.2000;0.0847;-0.8335;
-27.9000;0.0887;-0.8267;
-27.6000;0.0847;-0.8335;
-27.3000;0.0847;-0.8403;
-27.0000;0.0879;-0.8358;
-26.7000;0.0830;-0.8516;
-26.4000;0.0855;-0.8425;
-26.1000;0.0863;-0.8358;
-25.8000;0.0847;-0.8358;
-25.5000;0.0871;-0.8244;
-25.2000;0.0847;-0.8335;
-24.9000;0.0863;-0.8358;
-24.6000;0.0855;-0.8290;
-24.3000;0.0912;-0.8154;
-24.0000;0.0904;-0.8199;
-23.7000;0.0830;-0.8403;
-23.4000;0.0806;-0.8516;
-23.1000;0.0863;-0.8403;
-22.8000;0.0871;-0.8312;
-22.5000;0.0855;-0.8403;
-22.2000;0.0887;-0.8358;
-21.9000;0.0863;-0.8380;
-21.6000;0.0871;-0.8380;
-21.3000;0.0863;-0.8448;
-21.0000;0.0798;-0.8629;
-20.7000;0.0863;-0.8448;
-20.4000;0.0879;-0.8335;
-20.1000;0.0863;-0.8358;
-19.8000;0.0887;-0.8290;
-19.5000;0.0879;-0.8312;
-19.2000;0.0879;-0.8222;
-18.9000;0.0855;-0.8290;
-18.6000;0.0863;-0.8244;
-18.3000;0.0887;-0.8244;
-18.0000;0.0944;-0.8244;
-17.7000;0.0879;-0.8425;
-17.4000;0.0871;-0.8493;
-17.1000;0.0741;-0.8765;
-16.8000;0.0871;-0.8471;
-16.5000;0.0863;-0.8539;
-16.2000;0.0855;-0.8516;
-15.9000;0.0928;-0.8312;
-15.6000;0.0879;-0.8403;
-15.3000;0.0879;-0.8380;
-15.0000;0.0838;-0.8539;
-14.7000;0.0863;-0.8516;
-14.4000;0.0847;-0.8493;
-14.1000;0.0863;-0.8425;
-13.8000;0.0871;-0.8312;
-13.5000;0.0871;-0.8312;
-13.2000;0.0863;-0.8380;
-12.9000;0.0912;-0.8290;
-12.6000;0.0904;-0.8312;
-12.3000;0.0871;-0.8358;
-12.0000;0.0863;-0.8448;
-11.7000;0.0798;-0.8629;
-11.4000;0.0847;-0.8493;
-11.1000;0.0847;-0.8403;
-10.8000;0.0879;-0.8312;
-10.5000;0.0863;-0.8403;
-10.2000;0.0887;-0.8471;
-9.9000;0.0887;-0.8471;
-9.6000;0.0871;-0.8539;
-9.3000;0.0944;-0.8358;
-9.0000;0.0879;-0.8403;
-8.7000;0.0855;-0.8516;
-8.4000;0.0887;-0.8425;
-8.1000;0.0871;-0.8425;
-7.8000;0.0879;-0.8380;
-7.5000;0.0871;-0.8403;
-7.2000;0.0855;-0.8358;
-6.9000;0.0855;-0.8335;
-6.6000;0.0822;-0.8493;
-6.3000;0.0895;-0.8290;
-6.0000;0.0904;-0.8290;
-5.7000;0.0887;-0.8335;
-5.4000;0.0887;-0.8312;
-5.1000;0.0887;-0.8312;
-4.8000;0.0871;-0.8403;
-4.5000;0.0895;-0.8358;
-4.2000;0.0887;-0.8290;
-3.9000;0.0895;-0.8244;
-3.6000;0.0887;-0.8290;
-3.3000;0.0855;-0.8312;
-3.0000;0.0936;-0.8131;
-2.7000;0.0879;-0.8312;
-2.4000;0.0863;-0.8380;
-2.1000;0.0863;-0.8290;
-1.8000;0.0830;-0.8335;
-1.5000;0.0904;-0.8199;
-1.2000;0.0838;-0.8425;
-0.9000;0.0871;-0.8312;
-0.6000;0.0863;-0.8312;
-0.3000;0.0855;-0.8290;
0.0000;0.0855;-0.8290;
0.3000;0.0887;-0.8448;
0.6000;0.0936;-0.8154;
0.9000;0.0879;-0.8222;
1.2000;0.0887;-0.8154;
1.5000;0.0879;-0.7995;
1.8000;0.1001;-0.7565;
2.1000;0.0879;-0.7769;
2.4000;0.0920;-0.7655;
2.7000;0.0895;-0.7565;
3.0000;0.0855;-0.7519;
3.3000;0.0847;-0.7565;
3.6000;0.0887;-0.7429;
3.9000;0.0904;-0.7361;
4.2000;0.0887;-0.7429;
4.5000;0.0863;-0.7497;
4.8000;0.0895;-0.7429;
5.1000;0.0798;-0.7655;
5.4000;0.0895;-0.7406;
5.7000;0.0904;-0.7474;
6.0000;0.0961;-0.7384;
6.3000;0.0912;-0.7452;
6.6000;0.0912;-0.7384;
6.9000;0.0928;-0.7406;
7.2000;0.0920;-0.7361;
7.5000;0.0977;-0.7270;
7.8000;0.0879;-0.7497;
8.1000;0.0904;-0.7429;
8.4000;0.0895;-0.7316;
8.7000;0.0895;-0.7338;
9.0000;0.0879;-0.7384;
9.3000;0.0887;-0.7338;
9.6000;0.0895;-0.7316;
9.9000;0.0838;-0.7384;
10.2000;0.0912;-0.7225;
10.5000;0.0895;-0.7338;
10.8000;0.0895;-0.7338;
11.1000;0.0944;-0.7248;
11.4000;0.0904;-0.7293;
11.7000;0.0912;-0.7248;
12.0000;0.0912;-0.7225;
12.3000;0.0912;-0.7248;
12.6000;0.0912;-0.7293;
12.9000;0.0912;-0.7293;
13.2000;0.0895;-0.7293;
13.5000;0.0920;-0.7248;
13.8000;0.0904;-0.7338;
14.1000;0.0912;-0.7406;
14.4000;0.0912;-0.7338;
14.7000;0.0920;-0.7270;
15.0000;0.0912;-0.7225;
15.3000;0.0920;-0.7180;
15.6000;0.0895;-0.7293;
15.9000;0.0895;-0.7361;
16.2000;0.0928;-0.7338;
16.5000;0.0920;-0.7429;
16.8000;0.0895;-0.7519;
17.1000;0.0912;-0.7384;
17.4000;0.0904;-0.7361;
17.7000;0.0904;-0.7338;
18.0000;0.0871;-0.7474;
18.3000;0.0879;-0.7497;
18.6000;0.0904;-0.7519;
18.9000;0.0920;-0.7565;
19.2000;0.0920;-0.7542;
19.5000;0.0977;-0.7361;
19.8000;0.0879;-0.7587;
20.1000;0.0920;-0.7519;
20.4000;0.0912;-0.7519;
20.7000;0.0895;-0.7565;
21.0000;0.0920;-0.7497;
21.3000;0.0985;-0.7338;
21.6000;0.0944;-0.7338;
21.9000;0.0887;-0.7338;
22.2000;0.0879;-0.7384;
22.5000;0.0895;-0.7338;
22.8000;0.0912;-0.7338;
23.1000;0.0912;-0.7361;
23.4000;0.0904;-0.7384;
23.7000;0.0822;-0.7565;
24.0000;0.0904;-0.7361;
24.3000;0.0887;-0.7406;
24.6000;0.0904;-0.7429;
24.9000;0.0871;-0.7474;
25.2000;0.0904;-0.7406;
25.5000;0.0871;-0.7519;
25.8000;0.0887;-0.7406;
26.1000;0.0904;-0.7338;
26.4000;0.0904;-0.7293;
26.7000;0.0936;-0.7225;
27.0000;0.0920;-0.7202;
27.3000;0.0904;-0.7270;
27.6000;0.0895;-0.7361;
27.9000;0.0969;-0.7067;
28.2000;0.0912;-0.7225;
28.5000;0.0887;-0.7316;
28.8000;0.0895;-0.7406;
29.1000;0.0961;-0.7270;
29.4000;0.0879;-0.7361;
29.7000;0.0920;-0.7316;
30.0000;0.0912;-0.7293;
30.3000;0.0904;-0.7316;
30.6000;0.0847;-0.7497;
30.9000;0.0969;-0.7134;
31.2000;0.0985;-0.7089;
31.5000;0.0757;-0.7610;
31.8000;0.0936;-0.7180;
32.1000;0.0912;-0.7293;
32.4000;0.0887;-0.7338;
32.7000;0.0912;-0.7202;
33.0000;0.0920;-0.7202;
33.3000;0.0920;-0.7316;
33.6000;0.0895;-0.7406;
33.9000;0.0920;-0.7361;
34.2000;0.0928;-0.7316;
34.5000;0.0920;-0.7270;
34.8000;0.0920;-0.7225;
35.1000;0.0928;-0.7293;
35.4000;0.1050;-0.6999;
35.7000;0.0920;-0.7225;
36.0000;0.0895;-0.7293;
36.3000;0.0887;-0.7270;
36.6000;0.0887;-0.7225;
36.9000;0.0936;-0.7044;
37.2000;0.0920;-0.7112;
37.5000;0.0871;-0.7316;
37.8000;0.0895;-0.7406;
38.1000;0.0904;-0.7384;
38.4000;0.0920;-0.7338;
38.7000;0.0912;-0.7384;
39.0000;0.0895;-0.7452;
39.3000;0.0798;-0.7678;
39.6000;0.0993;-0.7112;
39.9000;0.0912;-0.7384;
40.2000;0.0887;-0.7406;
40.5000;0.0920;-0.7338;
40.8000;0.0912;-0.7384;
41.1000;0.0887;-0.7361;
41.4000;0.0847;-0.7542;
41.7000;0.0781;-0.7587;
42.0000;0.0920;-0.7316;
42.3000;0.0895;-0.7361;
42.6000;0.0863;-0.7429;
42.9000;0.0895;-0.7270;
43.2000;0.0904;-0.7293;
43.5000;0.0895;-0.7316;
43.8000;0.0863;-0.7429;
44.1000;0.0920;-0.7316;
44.4000;0.0952;-0.7293;
44.7000;0.0977;-0.7270;
45.0000;0.0977;-0.7225;
45.3000;0.0904;-0.7406;
45.6000;0.0920;-0.7316;
45.9000;0.0961;-0.7316;
46.2000;0.0814;-0.7746;
46.5000;0.0895;-0.7429;
46.8000;0.0912;-0.7474;
47.1000;0.0895;-0.7497;
47.4000;0.0871;-0.7542;
47.7000;0.0912;-0.7452;
48.0000;0.0895;-0.7474;
48.3000;0.0895;-0.7497;
48.6000;0.0912;-0.7452;
48.9000;0.0887;-0.7429;
49.2000;0.0887;-0.7384;
49.5000;0.0895;-0.7452;
49.8000;0.0863;-0.7497;
50.1000;0.0830;-0.7542;
50.4000;0.0936;-0.7248;
50.7000;0.0879;-0.7338;
51.0000;0.0912;-0.7270;
51.3000;0.0855;-0.7384;
51.6000;0.0904;-0.7316;
51.9000;0.0961;-0.7225;
52.2000;0.0912;-0.7406;
52.5000;0.0920;-0.7497;
52.8000;0.0895;-0.7565;
53.1000;0.0887;-0.7587;
53.4000;0.0895;-0.7610;
53.7000;0.0928;-0.7565;
54.0000;0.0895;-0.7587;
54.3000;0.0920;-0.7452;
54.6000;0.0928;-0.7452;
54.9000;0.0904;-0.7474;
55.2000;0.0920;-0.7429;
55.5000;0.0961;-0.7225;
55.8000;0.0904;-0.7316;
56.1000;0.0904;-0.7316;
56.4000;0.0912;-0.7293;
56.7000;0.0912;-0.7361;
57.0000;0.0904;-0.7429;
57.3000;0.0928;-0.7338;
57.6000;0.0912;-0.7338;
57.9000;0.0904;-0.7406;
58.2000;0.0912;-0.7474;
58.5000;0.0879;-0.7542;
58.8000;0.0904;-0.7519;
59.1000;0.0895;-0.7519;
59.4000;0.0904;-0.7474;
59.7000;0.0904;-0.7406;
60.0000;0.0912;-0.7316;
60.3000;0.0895;-0.7384;
60.6000;0.0952;-0.7180;
60.9000;0.0904;-0.7248;
61.2000;0.0887;-0.7361;
61.5000;0.0912;-0.7316;
61.8000;0.0936;-0.7316;
62.1000;0.0928;-0.7316;
62.4000;0.0879;-0.7429;
62.7000;0.0887;-0.7452;
63.0000;0.0904;-0.7519;
63.3000;0.0961;-0.7384;
63.6000;0.0912;-0.7497;
63.9000;0.0920;-0.7406;
64.2000;0.0912;-0.7452;
64.5000;0.0904;-0.7474;
64.8000;0.0887;-0.7452;
65.1000;0.0895;-0.7384;
65.4000;0.0904;-0.7406;
65.7000;0.0863;-0.7474;
66.0000;0.0928;-0.7384;
66.3000;0.0944;-0.7384;
66.6000;0.0920;-0.7429;
66.9000;0.0879;-0.7452;
67.2000;0.0887;-0.7361;
67.5000;0.0928;-0.7384;
67.8000;0.0855;-0.7542;
68.1000;0.0904;-0.7384;
68.4000;0.0920;-0.7338;
68.7000;0.0985;-0.7134;
69.0000;0.0912;-0.7361;
69.3000;0.0895;-0.7361;
69.6000;0.0895;-0.7406;
69.9000;0.0895;-0.7316;
70.2000;0.0928;-0.7338;
70.5000;0.0887;-0.7384;
70.8000;0.0952;-0.7293;
71.1000;0.0879;-0.7452;
71.4000;0.0904;-0.7361;
71.7000;0.0855;-0.7452;
72.0000;0.0936;-0.7225;
72.3000;0.0912;-0.7225;
72.6000;0.0912;-0.7270;
72.9000;0.0904;-0.7361;
73.2000;0.0928;-0.7202;
73.5000;0.0912;-0.7112;
73.8000;0.0920;-0.7112;
74.1000;0.0904;-0.7134;
74.4000;0.0952;-0.7044;
74.7000;0.0920;-0.7089;
75.0000;0.0887;-0.7202;
75.3000;0.0895;-0.7202;
75.6000;0.0912;-0.7270;
75.9000;0.0895;-0.7316;
76.2000;0.0936;-0.7316;
76.5000;0.0985;-0.7180;
76.8000;0.0912;-0.7406;
77.1000;0.0879;-0.7429;
77.4000;0.0928;-0.7316;
77.7000;0.0887;-0.7497;
78.0000;0.0904;-0.7406;
78.3000;0.0871;-0.7474;
78.6000;0.0969;-0.7225;
78.9000;0.0879;-0.7429;
79.2000;0.0871;-0.7406;
79.5000;0.0871;-0.7429;
79.8000;0.0904;-0.7338;
80.1000;0.0928;-0.7338;
80.4000;0.0912;-0.7429;
80.7000;0.0895;-0.7519;
81.0000;0.0904;-0.7542;
81.3000;0.0928;-0.7452;
81.6000;0.0936;-0.7384;
81.9000;0.0895;-0.7565;
82.2000;0.0887;-0.7678;
82.5000;0.0912;-0.7610;
82.8000;0.0920;-0.7519;
83.1000;0.0928;-0.7497;
83.4000;0.0904;-0.7497;
83.7000;0.0977;-0.7361;
84.0000;0.0912;-0.7587;
84.3000;0.0912;-0.7565;
84.6000;0.0944;-0.7452;
84.9000;0.0887;-0.7406;
85.2000;0.0928;-0.7316;
85.5000;0.0944;-0.7270;
85.8000;0.0936;-0.7225;
86.1000;0.0928;-0.7225;
86.4000;0.0912;-0.7316;
86.7000;0.0969;-0.7180;
87.0000;0.0944;-0.7225;
87.3000;0.0920;-0.7316;
87.6000;0.0871;-0.7542;
87.9000;0.0912;-0.7452;
88.2000;0.0904;-0.7406;
88.5000;0.0912;-0.7474;
88.8000;0.0904;-0.7474;
89.1000;0.0879;-0.7497;
89.4000;0.0936;-0.7429;
89.7000;0.0912;-0.7429;
90.0000;0.0912;-0.7384;
90.3000;0.0904;-0.7384;
90.6000;0.0912;-0.7338;
90.9000;0.0904;-0.7384;
91.2000;0.0912;-0.7474;
91.5000;0.0961;-0.7384;
91.8000;0.0928;-0.7497;
92.1000;0.0936;-0.7542;
92.4000;0.0928;-0.7633;
92.7000;0.0871;-0.7769;
93.0000;0.0822;-0.7972;
93.3000;0.0838;-0.7950;
93.6000;0.0912;-0.7769;
93.9000;0.0912;-0.7746;
94.2000;0.0855;-0.7723;
94.5000;0.0904;-0.7587;
94.8000;0.0936;-0.7565;
95.1000;0.0855;-0.7701;
95.4000;0.0912;-0.7474;
95.7000;0.0863;-0.7474;
96.0000;0.0895;-0.7497;
96.3000;0.0928;-0.7361;
96.6000;0.0895;-0.7452;
96.9000;0.0904;-0.7519;
97.2000;0.0895;-0.7565;
97.5000;0.0936;-0.7452;
97.8000;0.0895;-0.7565;
98.1000;0.0879;-0.7565;
98.4000;0.0855;-0.7519;
98.7000;0.0879;-0.7429;
99.0000;0.0887;-0.7406;
99.3000;0.0863;-0.7474;
99.6000;0.1018;-0.7157;
99.9000;0.0822;-0.7565;
100.2000;0.0928;-0.7361;
100.5000;0.0920;-0.7338;
100.8000;0.0912;-0.7384;
101.1000;0.0904;-0.7406;
101.4000;0.0928;-0.7361;
101.7000;0.0920;-0.7316;
102.0000;0.0879;-0.7361;
102.3000;0.0904;-0.7361;
102.6000;0.0895;-0.7361;
102.9000;0.0895;-0.7429;
103.2000;0.1018;-0.7157;
103.5000;0.0904;-0.7474;
103.8000;0.0855;-0.7610;
104.1000;0.0887;-0.7497;
104.4000;0.0887;-0.7497;
104.7000;0.0838;-0.7678;
105.0000;0.0863;-0.7587;
105.3000;0.0879;-0.7497;
105.6000;0.0920;-0.7406;
105.9000;0.0912;-0.7497;
106.2000;0.0895;-0.7542;
106.5000;0.0961;-0.7429;
106.8000;0.0961;-0.7406;
107.1000;0.0912;-0.7519;
107.4000;0.0904;-0.7542;
107.7000;0.0798;-0.7723;
108.0000;0.0928;-0.7452;
108.3000;0.0887;-0.7542;
108.6000;0.0904;-0.7406;
108.9000;0.0879;-0.7429;
109.2000;0.0904;-0.7429;
109.5000;0.0904;-0.7587;
109.8000;0.0912;-0.7497;
110.1000;0.0871;-0.7474;
110.4000;0.0904;-0.7452;
110.7000;0.0920;-0.7406;
111.0000;0.0920;-0.7429;
111.3000;0.0904;-0.7519;
111.6000;0.0912;-0.7497;
111.9000;0.0936;-0.7429;
112.2000;0.0904;-0.7497;
112.5000;0.0912;-0.7497;
112.8000;0.0904;-0.7587;
113.1000;0.0879;-0.7610;
113.4000;0.0895;-0.7542;
113.7000;0.0895;-0.7497;
114.0000;0.0920;-0.7429;
114.3000;0.0895;-0.7429;
114.6000;0.0904;-0.7406;
114.9000;0.0904;-0.7452;
115.2000;0.0912;-0.7452;
115.5000;0.0912;-0.7406;
115.8000;0.0920;-0.7452;
116.1000;0.0928;-0.7384;
116.4000;0.0855;-0.7610;
116.7000;0.0920;-0.7384;
117.0000;0.0912;-0.7384;
117.3000;0.0912;-0.7338;
117.6000;0.0879;-0.7429;
117.9000;0.0838;-0.7497;
118.2000;0.0904;-0.7338;
118.5000;0.0863;-0.7406;
118.8000;0.0887;-0.7338;
119.1000;0.0895;-0.7338;
119.4000;0.0920;-0.7338;
119.7000;0.0920;-0.7225;
120.0000;0.0895;-0.7270;
120.3000;0.0863;-0.7338;
120.6000;0.0895;-0.7338;
120.9000;0.0871;-0.7361;
121.2000;0.0912;-0.7293;
121.5000;0.0904;-0.7270;
121.8000;0.0879;-0.7316;
122.1000;0.0952;-0.7112;
122.4000;0.0830;-0.7406;
122.7000;0.0879;-0.7316;
123.0000;0.0904;-0.7248;
123.3000;0.0895;-0.7248;
123.6000;0.0912;-0.7157;
123.9000;0.0871;-0.7202;
124.2000;0.0920;-0.7134;
124.5000;0.0895;-0.7202;
124.8000;0.0904;-0.7157;
125.1000;0.0895;-0.7202;
125.4000;0.0895;-0.7225;
125.7000;0.0806;-0.7542;
126.0000;0.0887;-0.7338;
126.3000;0.0904;-0.7361;
126.6000;0.0895;-0.7293;
126.9000;0.0920;-0.7112;
127.2000;0.0895;-0.7134;
127.5000;0.0904;-0.7089;
127.8000;0.0912;-0.7067;
128.1000;0.0879;-0.7270;
128.4000;0.0912;-0.7202;
128.7000;0.1066;-0.6795;
129.0000;0.0895;-0.7225;
129.3000;0.0912;-0.7134;
129.6000;0.0895;-0.7180;
129.9000;0.0912;-0.7180;
130.2000;0.0895;-0.7202;
130.5000;0.0920;-0.7270;
130.8000;0.0830;-0.7474;
131.1000;0.0904;-0.7248;
131.4000;0.0912;-0.7180;
131.7000;0.0952;-0.7157;
132.0000;0.0920;-0.7270;
132.3000;0.0895;-0.7338;
132.6000;0.0904;-0.7270;
132.9000;0.0904;-0.7293;
133.2000;0.0936;-0.7157;
133.5000;0.0920;-0.7180;
133.8000;0.0904;-0.7270;
134.1000;0.0879;-0.7406;
134.4000;0.0920;-0.7452;
134.7000;0.0887;-0.7565;
135.0000;0.0928;-0.7565;
135.3000;0.0895;-0.7701;
135.6000;0.0912;-0.7610;
135.9000;0.0895;-0.7633;
136.2000;0.0904;-0.7610;
136.5000;0.0904;-0.7633;
136.8000;0.0863;-0.7678;
137.1000;0.0904;-0.7633;
137.4000;0.0895;-0.7701;
137.7000;0.0904;-0.7769;
138.0000;0.0887;-0.7723;
138.3000;0.0887;-0.7678;
138.6000;0.0887;-0.7610;
138.9000;0.0879;-0.7542;
139.2000;0.0871;-0.7565;
139.5000;0.0895;-0.7406;
139.8000;0.0993;-0.7225;
140.1000;0.0887;-0.7384;
140.4000;0.0838;-0.7542;
140.7000;0.0838;-0.7610;
141.0000;0.0928;-0.7293;
141.3000;0.0985;-0.7134;
141.6000;0.0838;-0.7406;
141.9000;0.0830;-0.7406;
142.2000;0.0855;-0.7338;
142.5000;0.0887;-0.7316;
142.8000;0.0928;-0.7225;
143.1000;0.0879;-0.7338;
143.4000;0.0944;-0.7270;
143.7000;0.0912;-0.7361;
144.0000;0.0977;-0.7225;
144.3000;0.0912;-0.7406;
144.6000;0.1026;-0.7157;
144.9000;0.0928;-0.7361;
145.2000;0.0912;-0.7429;
145.5000;0.0904;-0.7474;
145.8000;0.0847;-0.7633;
146.1000;0.0904;-0.7452;
146.4000;0.0928;-0.7293;
146.7000;0.0871;-0.7384;
147.0000;0.0912;-0.7338;
147.3000;0.0928;-0.7293;
147.6000;0.0773;-0.7746;
147.9000;0.0936;-0.7452;
148.2000;0.0887;-0.7655;
148.5000;0.0879;-0.7610;
148.8000;0.0904;-0.7497;
149.1000;0.0855;-0.7565;
149.4000;0.0871;-0.7406;
149.7000;0.0904;-0.7248;
150.0000;0.0969;-0.7112;
150.3000;0.0936;-0.7180;
150.6000;0.0871;-0.7361;
150.9000;0.0887;-0.7361;
151.2000;0.0855;-0.7565;
151.5000;0.1001;-0.7225;
151.8000;0.0904;-0.7429;
152.1000;0.0912;-0.7406;
152.4000;0.0912;-0.7406;
152.7000;0.0912;-0.7497;
153.0000;0.0887;-0.7542;
153.3000;0.0863;-0.7587;
153.6000;0.0904;-0.7497;
153.9000;0.0904;-0.7474;
154.2000;0.0928;-0.7406;
154.5000;0.0961;-0.7293;
154.8000;0.0879;-0.7452;
155.1000;0.0920;-0.7338;
155.4000;0.0895;-0.7361;
155.7000;0.0904;-0.7452;
156.0000;0.0912;-0.7361;
156.3000;0.0904;-0.7270;
156.6000;0.0887;-0.7293;
156.9000;0.0920;-0.7270;
157.2000;0.0904;-0.7338;
157.5000;0.0912;-0.7338;
157.8000;0.0871;-0.7452;
158.1000;0.0806;-0.7519;
158.4000;0.0887;-0.7338;
158.7000;0.0895;-0.7270;
159.0000;0.0912;-0.7225;
159.3000;0.0781;-0.7633;
159.6000;0.0822;-0.7519;
159.9000;0.0928;-0.7293;
160.2000;0.0895;-0.7361;
160.5000;0.0895;-0.7361;
160.8000;0.0871;-0.7519;
161.1000;0.0895;-0.7429;
161.4000;0.0928;-0.7338;
161.7000;0.0887;-0.7497;
162.0000;0.0952;-0.7338;
162.3000;0.0871;-0.7497;
162.6000;0.0847;-0.7587;
162.9000;0.0944;-0.7361;
163.2000;0.0895;-0.7406;
163.5000;0.0895;-0.7361;
163.8000;0.0912;-0.7338;
164.1000;0.0887;-0.7406;
164.4000;0.0904;-0.7338;
164.7000;0.0977;-0.7180;
165.0000;0.0920;-0.7293;
165.3000;0.0904;-0.7316;
165.6000;0.0904;-0.7270;
165.9000;0.0895;-0.7270;
166.2000;0.0871;-0.7316;
166.5000;0.0928;-0.7202;
166.8000;0.0944;-0.7180;
167.1000;0.0920;-0.7202;
167.4000;0.0904;-0.7338;
167.7000;0.0928;-0.7361;
168.0000;0.0944;-0.7248;
168.3000;0.0887;-0.7361;
168.6000;0.0887;-0.7361;
168.9000;0.0920;-0.7293;
169.2000;0.0904;-0.7338;
169.5000;0.0993;-0.7067;
169.8000;0.0887;-0.7293;
170.1000;0.0952;-0.7112;
170.4000;0.0855;-0.7384;
170.7000;0.0928;-0.7225;
171.0000;0.0993;-0.7044;
171.3000;0.0871;-0.7248;
171.6000;0.0985;-0.7021;
171.9000;0.0904;-0.7270;
172.2000;0.0904;-0.7225;
172.5000;0.0887;-0.7316;
172.8000;0.0904;-0.7293;
173.1000;0.0895;-0.7316;
173.4000;0.0871;-0.7384;
173.7000;0.0912;-0.7316;
174.0000;0.0879;-0.7384;
174.3000;0.0904;-0.7316;
174.6000;0.0887;-0.7429;
174.9000;0.0895;-0.7384;
175.2000;0.0904;-0.7316;
175.5000;0.0806;-0.7452;
175.8000;0.0920;-0.7157;
176.1000;0.0920;-0.7180;
176.4000;0.0912;-0.7248;
176.7000;0.0912;-0.7225;
177.0000;0.0904;-0.7225;
177.3000;0.0936;-0.7202;
177.6000;0.0912;-0.7202;
177.9000;0.0904;-0.7134;
178.2000;0.0879;-0.7225;
178.5000;0.0855;-0.7225;
178.8000;0.0961;-0.6931;
179.1000;0.0912;-0.7089;
179.4000;0.0871;-0.7180;
179.7000;0.0790;-0.7338;
180.0000;0.0920;-0.7089;
180.3000;0.0904;-0.7225;
180.6000;0.0920;-0.7112;
180.9000;0.0912;-0.7067;
181.2000;0.0920;-0.7067;
181.5000;0.0847;-0.7293;
181.8000;0.0879;-0.7134;
182.1000;0.0936;-0.7112;
182.4000;0.0928;-0.7134;
182.7000;0.0928;-0.7134;
183.0000;0.0895;-0.7180;
183.3000;0.0895;-0.7180;
183.6000;0.0912;-0.7180;
183.9000;0.0977;-0.7089;
184.2000;0.0871;-0.7338;
184.5000;0.0879;-0.7406;
184.8000;0.0912;-0.7361;
185.1000;0.0985;-0.7067;
185.4000;0.0895;-0.7180;
185.7000;0.0912;-0.7134;
186.0000;0.0912;-0.7112;
186.3000;0.0928;-0.7089;
186.6000;0.0936;-0.7089;
186.9000;0.0944;-0.7067;
187.2000;0.0863;-0.7338;
187.5000;0.0887;-0.7270;
187.8000;0.0985;-0.6999;
188.1000;0.0928;-0.7202;
188.4000;0.0863;-0.7384;
188.7000;0.0904;-0.7248;
189.0000;0.0895;-0.7270;
189.3000;0.0928;-0.7225;
189.6000;0.0912;-0.7338;
189.9000;0.0912;-0.7384;
190.2000;0.0904;-0.7429;
190.5000;0.0936;-0.7338;
190.8000;0.0904;-0.7406;
191.1000;0.0895;-0.7542;
191.4000;0.0912;-0.7519;
191.7000;0.0928;-0.7429;
192.0000;0.0920;-0.7406;
192.3000;0.0912;-0.7406;
192.6000;0.0904;-0.7497;
192.9000;0.1058;-0.6999;
193.2000;0.0912;-0.7429;
193.5000;0.0904;-0.7361;
193.8000;0.0895;-0.7361;
194.1000;0.0936;-0.7248;
194.4000;0.0912;-0.7270;
194.7000;0.0871;-0.7361;
195.0000;0.0904;-0.7248;
195.3000;0.0944;-0.7293;
195.6000;0.0904;-0.7406;
195.9000;0.0928;-0.7429;
196.2000;0.0920;-0.7361;
196.5000;0.0895;-0.7406;
196.8000;0.0928;-0.7361;
197.1000;0.0912;-0.7361;
197.4000;0.0895;-0.7406;
197.7000;0.0887;-0.7474;
198.0000;0.0855;-0.7542;
198.3000;0.0895;-0.7474;
198.6000;0.0895;-0.7474;
198.9000;0.0904;-0.7429;
199.2000;0.0912;-0.7452;
199.5000;0.0838;-0.7678;
199.8000;0.0969;-0.7338;
200.1000;0.0887;-0.7474;
200.4000;0.0904;-0.7429;
200.7000;0.1042;-0.7021;
201.0000;0.0920;-0.7406;
201.3000;0.0814;-0.7655;
201.6000;0.0863;-0.7452;
201.9000;0.0871;-0.7429;
202.2000;0.0895;-0.7429;
202.5000;0.0838;-0.7610;
202.8000;0.0904;-0.7406;
203.1000;0.0920;-0.7406;
203.4000;0.0871;-0.7384;
203.7000;0.0830;-0.7519;
204.0000;0.0895;-0.7316;
204.3000;0.0895;-0.7361;
204.6000;0.0920;-0.7361;
204.9000;0.0920;-0.7293;
205.2000;0.0912;-0.7338;
205.5000;0.0904;-0.7406;
205.8000;0.0912;-0.7316;
206.1000;0.0904;-0.7361;
206.4000;0.0895;-0.7361;
206.7000;0.0920;-0.7338;
207.0000;0.0920;-0.7361;
207.3000;0.0920;-0.7361;
207.6000;0.0879;-0.7452;
207.9000;0.0863;-0.7565;
208.2000;0.0887;-0.7474;
208.5000;0.0887;-0.7452;
208.8000;0.0904;-0.7497;
209.1000;0.0887;-0.7565;
209.4000;0.0904;-0.7497;
209.7000;0.0920;-0.7474;
210.0000;0.0895;-0.7565;
210.3000;0.0895;-0.7587;
210.6000;0.0928;-0.7452;
210.9000;0.0863;-0.7519;
211.2000;0.0912;-0.7406;
211.5000;0.0871;-0.7474;
211.8000;0.0895;-0.7474;
212.1000;0.0904;-0.7406;
212.4000;0.0887;-0.7293;
212.7000;0.0904;-0.7202;
213.0000;0.0879;-0.7338;
213.3000;0.0806;-0.7610;
213.6000;0.0912;-0.7406;
213.9000;0.0887;-0.7542;
214.2000;0.0895;-0.7610;
214.5000;0.0936;-0.7519;
214.8000;0.0920;-0.7497;
215.1000;0.0879;-0.7610;
215.4000;0.0961;-0.7429;
215.7000;0.0904;-0.7610;
216.0000;0.0920;-0.7519;
216.3000;0.0928;-0.7519;
216.6000;0.0928;-0.7587;
216.9000;0.0920;-0.7633;
217.2000;0.0904;-0.7723;
217.5000;0.0871;-0.7701;
217.8000;0.0912;-0.7610;
218.1000;0.0944;-0.7633;
218.4000;0.0855;-0.7837;
218.7000;0.0920;-0.7633;
219.0000;0.0904;-0.7723;
219.3000;0.0912;-0.7701;
219.6000;0.0847;-0.7882;
219.9000;0.0895;-0.7746;
220.2000;0.0912;-0.7723;
220.5000;0.0904;-0.7746;
220.8000;0.0961;-0.7633;
221.1000;0.0920;-0.7701;
221.4000;0.0847;-0.7723;
221.7000;0.0879;-0.7655;
222.0000;0.0871;-0.7610;
222.3000;0.0936;-0.7406;
222.6000;0.0895;-0.7452;
222.9000;0.0895;-0.7429;
223.2000;0.0904;-0.7338;
223.5000;0.0895;-0.7338;
223.8000;0.0920;-0.7225;
224.1000;0.0879;-0.7316;
224.4000;0.0863;-0.7361;
224.7000;0.0912;-0.7270;
225.0000;0.0822;-0.7610;
225.3000;0.0904;-0.7429;
225.6000;0.0895;-0.7429;
225.9000;0.0912;-0.7406;
226.2000;0.0920;-0.7384;
226.5000;0.0887;-0.7474;
226.8000;0.0904;-0.7452;
227.1000;0.0912;-0.7452;
227.4000;0.0904;-0.7474;
227.7000;0.0912;-0.7497;
228.0000;0.0879;-0.7565;
228.3000;0.0904;-0.7497;
228.6000;0.0879;-0.7519;
228.9000;0.0887;-0.7542;
229.2000;0.0887;-0.7565;
229.5000;0.0895;-0.7542;
229.8000;0.0912;-0.7474;
230.1000;0.0912;-0.7452;
230.4000;0.0855;-0.7565;
230.7000;0.0920;-0.7361;
231.0000;0.0904;-0.7565;
231.3000;0.0912;-0.7519;
231.6000;0.0912;-0.7497;
231.9000;0.0879;-0.7542;
232.2000;0.0912;-0.7293;
232.5000;0.0920;-0.7225;
232.8000;0.0977;-0.7067;
233.1000;0.0936;-0.7157;
233.4000;0.0904;-0.7112;
233.7000;0.0871;-0.7089;
234.0000;0.0887;-0.7067;
234.3000;0.0895;-0.7157;
234.6000;0.0912;-0.7112;
234.9000;0.0993;-0.6953;
235.2000;0.0920;-0.7134;
235.5000;0.0936;-0.7112;
235.8000;0.0904;-0.7089;
236.1000;0.0895;-0.7202;
236.4000;0.0904;-0.7248;
236.7000;0.0944;-0.7248;
237.0000;0.0904;-0.7293;
237.3000;0.0912;-0.7338;
237.6000;0.1042;-0.7134;
237.9000;0.0855;-0.7565;
238.2000;0.0904;-0.7429;
238.5000;0.0920;-0.7225;
238.8000;0.0904;-0.7270;
239.1000;0.0936;-0.7180;
239.4000;0.0969;-0.7089;
239.7000;0.0912;-0.7248;
240.0000;0.0912;-0.7316;
240.3000;0.0887;-0.7452;
240.6000;0.0904;-0.7474;
240.9000;0.0855;-0.7519;
241.2000;0.0904;-0.7429;
241.5000;0.0904;-0.7338;
241.8000;0.0912;-0.7270;
242.1000;0.0944;-0.7225;
242.4000;0.0838;-0.7406;
242.7000;0.0912;-0.7338;
243.0000;0.0895;-0.7474;
243.3000;0.0895;-0.7474;
243.6000;0.0912;-0.7497;
243.9000;0.0928;-0.7497;
244.2000;0.0920;-0.7587;
244.5000;0.0912;-0.7633;
244.8000;0.0912;-0.7746;
245.1000;0.0920;-0.7746;
245.4000;0.0879;-0.7769;
245.7000;0.0781;-0.7972;
246.0000;0.0895;-0.7746;
246.3000;0.0920;-0.7610;
246.6000;0.0936;-0.7429;
246.9000;0.0879;-0.7497;
247.2000;0.0904;-0.7406;
247.5000;0.0912;-0.7406;
247.8000;0.0904;-0.7452;
248.1000;0.0887;-0.7565;
248.4000;0.0887;-0.7542;
248.7000;0.0912;-0.7452;
249.0000;0.0887;-0.7587;
249.3000;0.0912;-0.7497;
249.6000;0.0887;-0.7587;
249.9000;0.0822;-0.7746;
250.2000;0.0887;-0.7610;
250.5000;0.0944;-0.7452;
250.8000;0.0887;-0.7565;
251.1000;0.0912;-0.7610;
251.4000;0.0920;-0.7633;
251.7000;0.0912;-0.7610;
252.0000;0.0920;-0.7587;
252.3000;0.0847;-0.7723;
252.6000;0.0936;-0.7429;
252.9000;0.0912;-0.7542;
253.2000;0.0920;-0.7497;
253.5000;0.0879;-0.7474;
253.8000;0.0887;-0.7452;
254.1000;0.0904;-0.7384;
254.4000;0.0944;-0.7270;
254.7000;0.0806;-0.7565;
255.0000;0.0920;-0.7202;
255.3000;0.0904;-0.7248;
255.6000;0.0895;-0.7225;
255.9000;0.0920;-0.7180;
256.2000;0.0920;-0.7202;
256.5000;0.0887;-0.7248;
256.8000;0.0912;-0.7202;
257.1000;0.0944;-0.7134;
257.4000;0.0912;-0.7270;
257.7000;0.0855;-0.7474;
258.0000;0.0961;-0.7248;
258.3000;0.0944;-0.7338;
258.6000;0.0912;-0.7474;
258.9000;0.0936;-0.7474;
259.2000;0.0928;-0.7497;
259.5000;0.0920;-0.7497;
259.8000;0.0928;-0.7406;
260.1000;0.0871;-0.7474;
260.4000;0.0830;-0.7519;
260.7000;0.0928;-0.7338;
261.0000;0.0928;-0.7293;
261.3000;0.0781;-0.7723;
261.6000;0.0847;-0.7519;
261.9000;0.0944;-0.7338;
262.2000;0.0912;-0.7384;
262.5000;0.1042;-0.7112;
262.8000;0.0879;-0.7497;
263.1000;0.0838;-0.7610;
263.4000;0.0830;-0.7678;
263.7000;0.0912;-0.7497;
264.0000;0.0847;-0.7678;
264.3000;0.0904;-0.7474;
264.6000;0.0904;-0.7429;
264.9000;0.0912;-0.7406;
265.2000;0.0952;-0.7316;
265.5000;0.0920;-0.7429;
265.8000;0.0912;-0.7474;
266.1000;0.0936;-0.7384;
266.4000;0.0920;-0.7429;
266.7000;0.0912;-0.7519;
267.0000;0.0912;-0.7542;
267.3000;0.0928;-0.7497;
267.6000;0.0912;-0.7542;
267.9000;0.0887;-0.7497;
268.2000;0.0944;-0.7338;
268.5000;0.0895;-0.7452;
268.8000;0.0830;-0.7452;
269.1000;0.0993;-0.7112;
269.4000;0.1001;-0.7157;
269.7000;0.0863;-0.7452;
270.0000;0.0895;-0.7452;
270.3000;0.0895;-0.7452;
270.6000;0.0928;-0.7497;
270.9000;0.0969;-0.7384;
271.2000;0.0912;-0.7519;
271.5000;0.0912;-0.7497;
271.8000;0.0904;-0.7565;
272.1000;0.0928;-0.7587;
272.4000;0.0912;-0.7678;
272.7000;0.0904;-0.7701;
273.0000;0.0912;-0.7610;
273.3000;0.0895;-0.7565;
273.6000;0.0944;-0.7361;
273.9000;0.0855;-0.7519;
274.2000;0.0887;-0.7452;
274.5000;0.0904;-0.7270;
274.8000;0.0912;-0.7270;
275.1000;0.0912;-0.7316;
275.4000;0.0895;-0.7384;
275.7000;0.0887;-0.7406;
276.0000;0.0944;-0.7202;
276.3000;0.0928;-0.7202;
276.6000;0.0887;-0.7316;
276.9000;0.0887;-0.7361;
277.2000;0.0887;-0.7316;
277.5000;0.0904;-0.7316;
277.8000;0.0895;-0.7293;
278.1000;0.0904;-0.7270;
278.4000;0.0904;-0.7248;
278.7000;0.0822;-0.7429;
279.0000;0.0838;-0.7406;
279.3000;0.0887;-0.7270;
279.6000;0.0847;-0.7406;
279.9000;0.0887;-0.7248;
280.2000;0.0895;-0.7225;
280.5000;0.0855;-0.7293;
280.8000;0.0855;-0.7338;
281.1000;0.0895;-0.7248;
281.4000;0.0781;-0.7565;
281.7000;0.0944;-0.7044;
282.0000;0.0871;-0.7248;
282.3000;0.0920;-0.7134;
282.6000;0.0887;-0.7248;
282.9000;0.0912;-0.7270;
283.2000;0.0985;-0.7089;
283.5000;0.0985;-0.7112;
283.8000;0.0904;-0.7316;
284.1000;0.0904;-0.7202;
284.4000;0.0961;-0.7112;
284.7000;0.0904;-0.7248;
285.0000;0.0904;-0.7293;
285.3000;0.0855;-0.7338;
285.6000;0.0895;-0.7270;
285.9000;0.0961;-0.7157;
286.2000;0.0871;-0.7429;
286.5000;0.0912;-0.7361;
286.8000;0.0895;-0.7361;
287.1000;0.0928;-0.7270;
287.4000;0.0985;-0.7089;
287.7000;0.0904;-0.7338;
288.0000;0.0920;-0.7293;
288.3000;0.0887;-0.7406;
288.6000;0.0895;-0.7406;
288.9000;0.0749;-0.7701;
289.2000;0.0944;-0.7270;
289.5000;0.0912;-0.7293;
289.8000;0.0920;-0.7225;
290.1000;0.0912;-0.7180;
290.4000;0.0895;-0.7225;
290.7000;0.0920;-0.7225;
291.0000;0.0952;-0.7180;
291.3000;0.0912;-0.7248;
291.6000;0.0928;-0.7157;
291.9000;0.0895;-0.7225;
292.2000;0.0838;-0.7361;
292.5000;0.0863;-0.7338;
292.8000;0.0904;-0.7293;
293.1000;0.0887;-0.7384;
293.4000;0.0904;-0.7429;
293.7000;0.0920;-0.7316;
294.0000;0.0912;-0.7270;
294.3000;0.0928;-0.7316;
294.6000;0.0847;-0.7519;
294.9000;0.0920;-0.7338;
295.2000;0.0912;-0.7338;
295.5000;0.0912;-0.7338;
295.8000;0.0863;-0.7497;
296.1000;0.0920;-0.7361;
296.4000;0.0895;-0.7406;
296.7000;0.0961;-0.7134;
297.0000;0.0920;-0.7293;
297.3000;0.0904;-0.7270;
297.6000;0.0863;-0.7452;
297.9000;0.0895;-0.7338;
298.2000;0.0920;-0.7202;
298.5000;0.0887;-0.7270;
298.8000;0.0920;-0.7270;
299.1000;0.0952;-0.7112;
299.4000;0.0863;-0.7338;
299.7000;0.0895;-0.7248;
300.0000;0.0904;-0.7202;
300.3000;0.0879;-0.7316;
300.6000;0.0855;-0.7316;
300.9000;0.0936;-0.7202;
301.2000;0.0912;-0.7316;
301.5000;0.0928;-0.7293;
301.8000;0.0920;-0.7361;
302.1000;0.0952;-0.7180;
302.4000;0.0895;-0.7270;
302.7000;0.0920;-0.7225;
303.0000;0.0928;-0.7270;
303.3000;0.0904;-0.7361;
303.6000;0.0920;-0.7361;
303.9000;0.0879;-0.7406;
304.2000;0.0863;-0.7474;
304.5000;0.0895;-0.7361;
304.8000;0.0904;-0.7384;
305.1000;0.0895;-0.7384;
305.4000;0.0961;-0.7225;
305.7000;0.0904;-0.7248;
306.0000;0.0904;-0.7316;
306.3000;0.1058;-0.7021;
306.6000;0.0855;-0.7497;
306.9000;0.0887;-0.7384;
307.2000;0.0895;-0.7474;
307.5000;0.0928;-0.7406;
307.8000;0.0904;-0.7497;
308.1000;0.0895;-0.7474;
308.4000;0.0912;-0.7519;
308.7000;0.0912;-0.7474;
309.0000;0.0895;-0.7429;
309.3000;0.0895;-0.7497;
309.6000;0.0879;-0.7519;
309.9000;0.0920;-0.7384;
310.2000;0.0895;-0.7429;
310.5000;0.0944;-0.7338;
310.8000;0.0879;-0.7497;
311.1000;0.0904;-0.7384;
311.4000;0.0887;-0.7429;
311.7000;0.0895;-0.7406;
312.0000;0.1034;-0.7157;
312.3000;0.0928;-0.7497;
312.6000;0.0912;-0.7384;
312.9000;0.0879;-0.7361;
313.2000;0.0985;-0.6999;
313.5000;0.0830;-0.7361;
313.8000;0.0895;-0.7225;
314.1000;0.0904;-0.7270;
314.4000;0.0895;-0.7293;
314.7000;0.0920;-0.7180;
315.0000;0.0920;-0.7225;
315.3000;0.0936;-0.7202;
315.6000;0.0887;-0.7316;
315.9000;0.0920;-0.7316;
316.2000;0.0879;-0.7429;
316.5000;0.0928;-0.7406;
316.8000;0.0936;-0.7452;
317.1000;0.0961;-0.7270;
317.4000;0.0920;-0.7384;
317.7000;0.0887;-0.7474;
318.0000;0.0879;-0.7384;
318.3000;0.0822;-0.7519;
318.6000;0.0920;-0.7270;
318.9000;0.0773;-0.7633;
319.2000;0.0936;-0.7248;
319.5000;0.0863;-0.7452;
319.8000;0.0887;-0.7452;
320.1000;0.0863;-0.7497;
320.4000;0.0863;-0.7429;
320.7000;0.0895;-0.7406;
321.0000;0.0895;-0.7429;
321.3000;0.0920;-0.7384;
321.6000;0.0936;-0.7293;
321.9000;0.0912;-0.7361;
322.2000;0.0936;-0.7361;
322.5000;0.0895;-0.7565;
322.8000;0.0904;-0.7610;
323.1000;0.0887;-0.7655;
323.4000;0.0904;-0.7497;
323.7000;0.0920;-0.7316;
324.0000;0.0904;-0.7316;
324.3000;0.0920;-0.7202;
324.6000;0.0895;-0.7202;
324.9000;0.0895;-0.7270;
325.2000;0.0879;-0.7293;
325.5000;0.0895;-0.7293;
325.8000;0.0904;-0.7338;
326.1000;0.0863;-0.7338;
326.4000;0.0928;-0.7180;
326.7000;0.0895;-0.7270;
327.0000;0.0871;-0.7429;
327.3000;0.0920;-0.7293;
327.6000;0.0895;-0.7270;
327.9000;0.0895;-0.7248;
328.2000;0.0912;-0.7225;
328.5000;0.0895;-0.7338;
328.8000;0.0895;-0.7338;
329.1000;0.0912;-0.7270;
329.4000;0.0985;-0.7067;
329.7000;0.0912;-0.7316;
330.0000;0.0904;-0.7406;
330.3000;0.0895;-0.7338;
330.6000;0.0904;-0.7248;
330.9000;0.0904;-0.7270;
331.2000;0.0920;-0.7338;
331.5000;0.0928;-0.7316;
331.8000;0.1034;-0.6999;
332.1000;0.0912;-0.7316;
332.4000;0.0895;-0.7316;
332.7000;0.0904;-0.7406;
333.0000;0.0912;-0.7361;
333.3000;0.0952;-0.7293;
333.6000;0.0904;-0.7542;
333.9000;0.0838;-0.7610;
334.2000;0.0912;-0.7384;
334.5000;0.0806;-0.7587;
334.8000;0.0887;-0.7384;
335.1000;0.0838;-0.7519;
335.4000;0.0871;-0.7406;
335.7000;0.0912;-0.7316;
336.0000;0.0944;-0.7248;
336.3000;0.0887;-0.7406;
336.6000;0.0847;-0.7519;
336.9000;0.0920;-0.7270;
337.2000;0.0912;-0.7248;
337.5000;0.0920;-0.7202;
337.8000;0.0920;-0.7316;
338.1000;0.0912;-0.7270;
338.4000;0.0895;-0.7270;
338.7000;0.0936;-0.7157;
339.0000;0.0887;-0.7338;
339.3000;0.0887;-0.7338;
339.6000;0.0879;-0.7316;
339.9000;0.0912;-0.7248;
340.2000;0.0904;-0.7338;
340.5000;0.0871;-0.7338;
340.8000;0.0977;-0.7157;
341.1000;0.0928;-0.7248;
341.4000;0.0912;-0.7248;
341.7000;0.0912;-0.7248;
342.0000;0.0904;-0.7248;
342.3000;0.0904;-0.7293;
342.6000;0.0895;-0.7316;
342.9000;0.0904;-0.7270;
343.2000;0.0887;-0.7293;
343.5000;0.0895;-0.7293;
343.8000;0.0920;-0.7270;
344.1000;0.0887;-0.7316;
344.4000;0.0887;-0.7270;
344.7000;0.0887;-0.7248;
345.0000;0.0879;-0.7248;
345.3000;0.0895;-0.7112;
345.6000;0.0887;-0.7134;
345.9000;0.0814;-0.7293;
346.2000;0.0895;-0.7157;
346.5000;0.0895;-0.7180;
346.8000;0.0895;-0.7134;
347.1000;0.0912;-0.7202;
347.4000;0.0912;-0.7248;
347.7000;0.0912;-0.7248;
348.0000;0.0912;-0.7316;
348.3000;0.0895;-0.7384;
348.6000;0.0920;-0.7361;
348.9000;0.0895;-0.7452;
349.2000;0.0887;-0.7519;
349.5000;0.0895;-0.7452;
349.8000;0.0904;-0.7316;
350.1000;0.0904;-0.7270;
350.4000;0.0944;-0.7180;
350.7000;0.0952;-0.7067;
351.0000;0.0920;-0.7157;
351.3000;0.0895;-0.7361;
351.6000;0.0904;-0.7384;
351.9000;0.0993;-0.7134;
352.2000;0.0895;-0.7384;
352.5000;0.0904;-0.7497;
352.8000;0.0912;-0.7474;
353.1000;0.0904;-0.7429;
353.4000;0.1026;-0.7112;
353.7000;0.0912;-0.7338;
354.0000;0.0887;-0.7338;
354.3000;0.0912;-0.7225;
354.6000;0.0928;-0.7316;
354.9000;0.0928;-0.7293;
355.2000;0.0879;-0.7406;
355.5000;0.0912;-0.7384;
355.8000;0.0904;-0.7452;
356.1000;0.0952;-0.7316;
356.4000;0.0928;-0.7384;
356.7000;0.0912;-0.7406;
357.0000;0.0920;-0.7429;
357.3000;0.0887;-0.7497;
357.6000;0.0904;-0.7452;
357.9000;0.0895;-0.7384;
358.2000;0.0904;-0.7316;
358.5000;0.0879;-0.7293;
358.8000;0.0904;-0.7180;
359.1000;0.0887;-0.7248;
359.4000;0.0912;-0.7157;
359.7000;0.0895;-0.7225;
360.0000;0.1001;-0.6976;
360.3000;0.0904;-0.7180;
360.6000;0.0904;-0.7270;
360.9000;0.0944;-0.7134;
361.2000;0.0912;-0.7293;
361.5000;0.0993;-0.7157;
361.8000;0.0928;-0.7361;
362.1000;0.0863;-0.7542;
362.4000;0.0936;-0.7361;
362.7000;0.0904;-0.7384;
363.0000;0.0879;-0.7429;
363.3000;0.0895;-0.7384;
363.6000;0.0904;-0.7248;
363.9000;0.0904;-0.7202;
364.2000;0.0887;-0.7202;
364.5000;0.0977;-0.6999;
364.8000;0.0895;-0.7270;
365.1000;0.0912;-0.7293;
365.4000;0.0895;-0.7361;
365.7000;0.0912;-0.7248;
366.0000;0.0936;-0.7225;
366.3000;0.0912;-0.7338;
366.6000;0.0904;-0.7361;
366.9000;0.0879;-0.7519;
367.2000;0.0936;-0.7361;
367.5000;0.0912;-0.7384;
367.8000;0.0895;-0.7452;
368.1000;0.0895;-0.7361;
368.4000;0.0920;-0.7180;
368.7000;0.0904;-0.7202;
369.0000;0.0912;-0.7293;
369.3000;0.0895;-0.7361;
369.6000;0.0895;-0.7429;
369.9000;0.0879;-0.7452;
370.2000;0.0944;-0.7293;
370.5000;0.0904;-0.7361;
370.8000;0.0895;-0.7338;
371.1000;0.0920;-0.7316;
371.4000;0.0879;-0.7429;
371.7000;0.0920;-0.7338;
372.0000;0.0871;-0.7474;
372.3000;0.0912;-0.7452;
372.6000;0.0912;-0.7384;
372.9000;0.1009;-0.7134;
373.2000;0.0904;-0.7338;
373.5000;0.0904;-0.7316;
373.8000;0.0912;-0.7293;
374.1000;0.0863;-0.7361;
374.4000;0.0887;-0.7338;
374.7000;0.0871;-0.7406;
375.0000;0.0847;-0.7429;
375.3000;0.0904;-0.7248;
375.6000;0.0895;-0.7225;
375.9000;0.0879;-0.7293;
376.2000;0.0895;-0.7202;
376.5000;0.0863;-0.7474;
376.8000;0.0920;-0.7316;
377.1000;0.0863;-0.7497;
377.4000;0.0904;-0.7361;
377.7000;0.0928;-0.7361;
378.0000;0.0879;-0.7452;
378.3000;0.0895;-0.7384;
378.6000;0.0904;-0.7361;
378.9000;0.0904;-0.7429;
379.2000;0.0887;-0.7452;
379.5000;0.0871;-0.7474;
379.8000;0.0912;-0.7384;
380.1000;0.0830;-0.7565;
380.4000;0.0895;-0.7293;
380.7000;0.0879;-0.7406;
381.0000;0.0920;-0.7316;
381.3000;0.0928;-0.7361;
381.6000;0.0871;-0.7452;
381.9000;0.0879;-0.7474;
382.2000;0.0912;-0.7429;
382.5000;0.0879;-0.7429;
382.8000;0.0912;-0.7361;
383.1000;0.0904;-0.7316;
383.4000;0.0912;-0.7316;
383.7000;0.0920;-0.7270;
384.0000;0.0895;-0.7361;
384.3000;0.0920;-0.7270;
384.6000;0.0936;-0.7248;
384.9000;0.0912;-0.7293;
385.2000;0.0904;-0.7361;
385.5000;0.0912;-0.7316;
385.8000;0.0887;-0.7384;
386.1000;0.0912;-0.7474;
386.4000;0.0944;-0.7497;
386.7000;0.0830;-0.7769;
387.0000;0.0904;-0.7587;
387.3000;0.0904;-0.7633;
387.6000;0.0912;-0.7587;
387.9000;0.0920;-0.7565;
388.2000;0.0895;-0.7701;
388.5000;0.0969;-0.7519;
388.8000;0.0847;-0.7769;
389.1000;0.0895;-0.7723;
389.4000;0.0920;-0.7633;
389.7000;0.0822;-0.7859;
390.0000;0.0887;-0.7633;
390.3000;0.0822;-0.7791;
390.6000;0.1042;-0.7338;
390.9000;0.0920;-0.7633;
391.2000;0.0912;-0.7565;
391.5000;0.0895;-0.7610;
391.8000;0.0887;-0.7723;
392.1000;0.0912;-0.7610;
392.4000;0.0936;-0.7429;
392.7000;0.0895;-0.7474;
393.0000;0.0920;-0.7452;
393.3000;0.0904;-0.7542;
393.6000;0.0920;-0.7474;
393.9000;0.0944;-0.7519;
394.2000;0.0887;-0.7587;
394.5000;0.0904;-0.7542;
394.8000;0.0912;-0.7452;
395.1000;0.0912;-0.7474;
395.4000;0.0920;-0.7429;
395.7000;0.0904;-0.7497;
396.0000;0.0904;-0.7452;
396.3000;0.0912;-0.7429;
396.6000;0.0920;-0.7338;
396.9000;0.0895;-0.7316;
397.2000;0.0920;-0.7361;
397.5000;0.1001;-0.7134;
397.8000;0.0912;-0.7384;
398.1000;0.1001;-0.7134;
398.4000;0.0765;-0.7701;
398.7000;0.0904;-0.7384;
399.0000;0.0920;-0.7406;
399.3000;0.0904;-0.7316;
399.6000;0.0912;-0.7202;
399.9000;0.0904;-0.7225;
400.2000;0.0920;-0.7270;
400.5000;0.0928;-0.7225;
400.8000;0.0904;-0.7384;
401.1000;0.0920;-0.7248;
401.4000;0.0904;-0.7248;
401.7000;0.0895;-0.7361;
402.0000;0.0895;-0.7361;
402.3000;0.0920;-0.7270;
402.6000;0.0879;-0.7384;
402.9000;0.0895;-0.7225;
403.2000;0.0912;-0.7225;
403.5000;0.0895;-0.7316;
403.8000;0.0855;-0.7497;
404.1000;0.0920;-0.7270;
404.4000;0.0871;-0.7361;
404.7000;0.0871;-0.7429;
405.0000;0.0871;-0.7384;
405.3000;0.0895;-0.7384;
405.6000;0.0847;-0.7384;
405.9000;0.0912;-0.7225;
406.2000;0.0904;-0.7316;
406.5000;0.0912;-0.7293;
406.8000;0.0936;-0.7157;
407.1000;0.0887;-0.7248;
407.4000;0.0904;-0.7248;
407.7000;0.0912;-0.7361;
408.0000;0.0920;-0.7270;
408.3000;0.0904;-0.7338;
408.6000;0.0928;-0.7316;
408.9000;0.0887;-0.7406;
409.2000;0.0912;-0.7384;
409.5000;0.0920;-0.7361;
409.8000;0.0920;-0.7406;
410.1000;0.0895;-0.7384;
410.4000;0.0887;-0.7474;
410.7000;0.0904;-0.7452;
411.0000;0.0895;-0.7519;
411.3000;0.0904;-0.7452;
411.6000;0.0822;-0.7565;
411.9000;0.0936;-0.7338;
412.2000;0.0920;-0.7384;
412.5000;0.0847;-0.7565;
412.8000;0.0879;-0.7452;
413.1000;0.0871;-0.7452;
413.4000;0.0887;-0.7384;
413.7000;0.0822;-0.7587;
414.0000;0.0904;-0.7429;
414.3000;0.0904;-0.7474;
414.6000;0.0904;-0.7474;
414.9000;0.0887;-0.7452;
415.2000;0.0920;-0.7452;
415.5000;0.0879;-0.7565;
415.8000;0.0855;-0.7565;
416.1000;0.0895;-0.7565;
416.4000;0.0895;-0.7565;
416.7000;0.0912;-0.7406;
417.0000;0.0912;-0.7429;
417.3000;0.0904;-0.7474;
417.6000;0.0936;-0.7497;
417.9000;0.0920;-0.7519;
418.2000;0.0920;-0.7406;
418.5000;0.0904;-0.7338;
418.8000;0.1034;-0.6999;
419.1000;0.0928;-0.7316;
419.4000;0.0928;-0.7316;
419.7000;0.0879;-0.7384;
420.0000;0.0920;-0.7316;
420.3000;0.0920;-0.7361;
420.6000;0.0887;-0.7429;
420.9000;0.0936;-0.7406;
421.2000;0.0879;-0.7519;
421.5000;0.0904;-0.7384;
421.8000;0.1001;-0.7157;
422.1000;0.0887;-0.7361;
422.4000;0.0895;-0.7316;
422.7000;0.0920;-0.7180;
423.0000;0.0920;-0.7225;
423.3000;0.0904;-0.7270;
423.6000;0.0912;-0.7316;
423.9000;0.0863;-0.7452;
424.2000;0.1058;-0.6999;
424.5000;0.0895;-0.7429;
424.8000;0.0887;-0.7384;
425.1000;0.0936;-0.7270;
425.4000;0.0855;-0.7497;
425.7000;0.0944;-0.7293;
426.0000;0.0863;-0.7406;
426.3000;0.0887;-0.7361;
426.6000;0.0912;-0.7316;
426.9000;0.0985;-0.7180;
427.2000;0.0904;-0.7338;
427.5000;0.0969;-0.7180;
427.8000;0.0895;-0.7338;
428.1000;0.0765;-0.7633;
428.4000;0.0904;-0.7225;
428.7000;0.0904;-0.7202;
429.0000;0.0895;-0.7248;
429.3000;0.0912;-0.7225;
429.6000;0.0912;-0.7225;
429.9000;0.0895;-0.7202;
430.2000;0.0879;-0.7248;
430.5000;0.0920;-0.7202;
430.8000;0.0928;-0.7180;
431.1000;0.0920;-0.7248;
431.4000;0.0912;-0.7157;
431.7000;0.0879;-0.7202;
432.0000;0.0895;-0.7225;
432.3000;0.0912;-0.7225;
432.6000;0.0920;-0.7293;
432.9000;0.0952;-0.7270;
433.2000;0.0912;-0.7293;
433.5000;0.0904;-0.7293;
433.8000;0.0895;-0.7293;
434.1000;0.0879;-0.7338;
434.4000;0.0887;-0.7293;
434.7000;0.0944;-0.7180;
435.0000;0.0920;-0.7202;
435.3000;0.0871;-0.7316;
435.6000;0.0871;-0.7293;
435.9000;0.0952;-0.7067;
436.2000;0.0912;-0.7202;
436.5000;0.0887;-0.7225;
436.8000;0.0822;-0.7361;
437.1000;0.0904;-0.7134;
437.4000;0.0920;-0.7112;
437.7000;0.0928;-0.7044;
438.0000;0.0928;-0.7089;
438.3000;0.0912;-0.7089;
438.6000;0.0936;-0.6976;
438.9000;0.0904;-0.7067;
439.2000;0.0936;-0.6908;
439.5000;0.0912;-0.7021;
439.8000;0.0887;-0.7157;
440.1000;0.0904;-0.7134;
440.4000;0.0895;-0.7134;
440.7000;0.0912;-0.7089;
441.0000;0.0928;-0.6976;
441.3000;0.0961;-0.6795;
441.6000;0.0847;-0.6999;
441.9000;0.0871;-0.6953;
442.2000;0.0895;-0.6953;
442.5000;0.0904;-0.7021;
442.8000;0.0887;-0.6999;
443.1000;0.0912;-0.6953;
443.4000;0.0936;-0.6908;
443.7000;0.0863;-0.7044;
444.0000;0.0887;-0.6953;
444.3000;0.0904;-0.6976;
444.6000;0.0928;-0.7021;
444.9000;0.0895;-0.7134;
445.2000;0.0895;-0.7180;
445.5000;0.0895;-0.7248;
445.8000;0.0814;-0.7452;
446.1000;0.0904;-0.7202;
446.4000;0.0879;-0.7202;
446.7000;0.0904;-0.7089;
447.0000;0.0912;-0.7089;
447.3000;0.0904;-0.7134;
447.6000;0.0920;-0.7180;
447.9000;0.0863;-0.7338;
448.2000;0.0920;-0.7157;
448.5000;0.0773;-0.7474;
448.8000;0.0904;-0.7270;
449.1000;0.0920;-0.7202;
449.4000;0.0920;-0.7202;
449.7000;0.0920;-0.7225;
450.0000;0.0904;-0.7270;
450.3000;0.0871;-0.7316;
450.6000;0.0855;-0.7474;
450.9000;0.0928;-0.7248;
451.2000;0.0904;-0.7361;
451.5000;0.0879;-0.7384;
451.8000;0.0920;-0.7293;
452.1000;0.0952;-0.7202;
452.4000;0.0985;-0.7089;
452.7000;0.0904;-0.7316;
453.0000;0.0928;-0.7316;
453.3000;0.0904;-0.7497;
453.6000;0.0847;-0.7497;
453.9000;0.0920;-0.7225;
454.2000;0.0912;-0.7293;
454.5000;0.0887;-0.7338;
454.8000;0.0920;-0.7202;
455.1000;0.0944;-0.7248;
455.4000;0.0895;-0.7270;
455.7000;0.0895;-0.7293;
456.0000;0.0895;-0.7316;
456.3000;0.0904;-0.7384;
456.6000;0.0887;-0.7429;
456.9000;0.0863;-0.7587;
457.2000;0.0879;-0.7452;
457.5000;0.0904;-0.7429;
457.8000;0.0936;-0.7338;
458.1000;0.0879;-0.7452;
458.4000;0.0904;-0.7361;
458.7000;0.0928;-0.7202;
459.0000;0.0895;-0.7248;
459.3000;0.0895;-0.7316;
459.6000;0.0895;-0.7338;
459.9000;0.0920;-0.7270;
460.2000;0.0912;-0.7270;
460.5000;0.0895;-0.7338;
460.8000;0.0895;-0.7270;
461.1000;0.0895;-0.7316;
461.4000;0.0961;-0.7180;
461.7000;0.0879;-0.7316;
462.0000;0.0928;-0.7248;
462.3000;0.0904;-0.7406;
462.6000;0.0904;-0.7406;
462.9000;0.0895;-0.7406;
463.2000;0.0895;-0.7361;
463.5000;0.0912;-0.7248;
463.8000;0.0895;-0.7270;
464.1000;0.0912;-0.7248;
464.4000;0.0895;-0.7248;
464.7000;0.0912;-0.7270;
465.0000;0.0879;-0.7270;
465.3000;0.0912;-0.7180;
465.6000;0.0969;-0.6976;
465.9000;0.0879;-0.7157;
466.2000;0.0912;-0.7067;
466.5000;0.0904;-0.7202;
466.8000;0.0904;-0.7180;
467.1000;0.0879;-0.7270;
467.4000;0.0887;-0.7270;
467.7000;0.0895;-0.7248;
468.0000;0.0944;-0.7044;
468.3000;0.0912;-0.7112;
468.6000;0.0895;-0.7134;
468.9000;0.0904;-0.7202;
469.2000;0.0920;-0.7180;
469.5000;0.0912;-0.7248;
469.8000;0.0928;-0.7180;
470.1000;0.0904;-0.7157;
470.4000;0.0895;-0.7157;
470.7000;0.0936;-0.7089;
471.0000;0.0887;-0.7270;
471.3000;0.0961;-0.7134;
471.6000;0.0904;-0.7338;
471.9000;0.0879;-0.7406;
472.2000;0.0895;-0.7429;
472.5000;0.0887;-0.7406;
472.8000;0.0928;-0.7361;
473.1000;0.0920;-0.7361;
473.4000;0.0912;-0.7361;
473.7000;0.0871;-0.7452;
474.0000;0.0920;-0.7270;
474.3000;0.0912;-0.7293;
474.6000;0.0895;-0.7293;
474.9000;0.0920;-0.7293;
475.2000;0.0895;-0.7338;
475.5000;0.0920;-0.7225;
475.8000;0.0895;-0.7384;
476.1000;0.0912;-0.7429;
476.4000;0.0920;-0.7429;
476.7000;0.0887;-0.7452;
477.0000;0.0904;-0.7338;
477.3000;0.0871;-0.7293;
477.6000;0.0912;-0.7157;
477.9000;0.0895;-0.7202;
478.2000;0.0895;-0.7225;
478.5000;0.0879;-0.7338;
478.8000;0.0904;-0.7270;
479.1000;0.0887;-0.7384;
479.4000;0.0912;-0.7293;
479.7000;0.0781;-0.7610;
480.0000;0.0871;-0.7452;
480.3000;0.0912;-0.7338;
480.6000;0.0904;-0.7338;
480.9000;0.0879;-0.7384;
481.2000;0.0912;-0.7338;
481.5000;0.0912;-0.7293;
481.8000;0.0912;-0.7270;
482.1000;0.0904;-0.7202;
482.4000;0.0895;-0.7112;
482.7000;0.0847;-0.7270;
483.0000;0.0879;-0.7134;
483.3000;0.0879;-0.7225;
483.6000;0.0904;-0.7248;
483.9000;0.0904;-0.7270;
484.2000;0.0912;-0.7338;
484.5000;0.0879;-0.7406;
484.8000;0.0912;-0.7338;
485.1000;0.0961;-0.7134;
485.4000;0.0936;-0.7225;
485.7000;0.0855;-0.7338;
486.0000;0.0838;-0.7338;
486.3000;0.0855;-0.7316;
486.6000;0.0912;-0.7361;
486.9000;0.0904;-0.7406;
487.2000;0.0904;-0.7384;
487.5000;0.0920;-0.7338;
487.8000;0.0847;-0.7542;
488.1000;0.0887;-0.7384;
488.4000;0.0920;-0.7338;
488.7000;0.0920;-0.7361;
489.0000;0.0847;-0.7542;
489.3000;0.0904;-0.7338;
489.6000;0.0912;-0.7316;
489.9000;0.0895;-0.7293;
490.2000;0.0904;-0.7225;
490.5000;0.0928;-0.7112;
490.8000;0.1001;-0.6976;
491.1000;0.0895;-0.7293;
491.4000;0.0887;-0.7316;
491.7000;0.0912;-0.7316;
492.0000;0.0920;-0.7338;
492.3000;0.0920;-0.7316;
492.6000;0.0879;-0.7429;
492.9000;0.0912;-0.7384;
493.2000;0.0920;-0.7361;
493.5000;0.0928;-0.7338;
493.8000;0.0920;-0.7293;
494.1000;0.0912;-0.7293;
494.4000;0.0895;-0.7429;
494.7000;0.0944;-0.7248;
495.0000;0.0895;-0.7406;
495.3000;0.0887;-0.7406;
495.6000;0.0904;-0.7293;
495.9000;0.0895;-0.7293;
496.2000;0.0887;-0.7361;
496.5000;0.0904;-0.7293;
496.8000;0.0863;-0.7474;
497.1000;0.0887;-0.7452;
497.4000;0.0912;-0.7316;
497.7000;0.0920;-0.7270;
498.0000;0.1042;-0.6953;
498.3000;0.0904;-0.7361;
498.6000;0.0887;-0.7452;
498.9000;0.0936;-0.7361;
499.2000;0.0936;-0.7270;
499.5000;0.0920;-0.7180;
499.8000;0.0895;-0.7225;
500.1000;0.0952;-0.7112;
500.4000;0.0904;-0.7293;
500.7000;0.0904;-0.7270;
501.0000;0.0895;-0.7316;
501.3000;0.0928;-0.7316;
501.6000;0.0822;-0.7542;
501.9000;0.0912;-0.7406;
502.2000;0.0904;-0.7384;
502.5000;0.0887;-0.7429;
502.8000;0.0912;-0.7316;
503.1000;0.0928;-0.7338;
503.4000;0.0928;-0.7293;
503.7000;0.0928;-0.7293;
504.0000;0.0871;-0.7384;
504.3000;0.0879;-0.7293;
504.6000;0.0863;-0.7406;
504.9000;0.0904;-0.7293;
505.2000;0.0920;-0.7248;
505.5000;0.0904;-0.7270;
505.8000;0.0912;-0.7270;
506.1000;0.0912;-0.7225;
506.4000;0.0895;-0.7248;
506.7000;0.0822;-0.7406;
507.0000;0.0912;-0.7270;
507.3000;0.0944;-0.7225;
507.6000;0.1001;-0.6953;
507.9000;0.0904;-0.7248;
508.2000;0.0895;-0.7316;
508.5000;0.0904;-0.7361;
508.8000;0.0912;-0.7361;
509.1000;0.0895;-0.7248;
509.4000;0.0904;-0.7225;
509.7000;0.0920;-0.7180;
510.0000;0.0904;-0.7225;
510.3000;0.0895;-0.7180;
510.6000;0.0895;-0.7202;
510.9000;0.0936;-0.7180;
511.2000;0.0912;-0.7316;
511.5000;0.0895;-0.7293;
511.8000;0.0904;-0.7293;
512.1000;0.0855;-0.7452;
512.4000;0.0920;-0.7202;
512.7000;0.0879;-0.7293;
513.0000;0.0936;-0.7112;
513.3000;0.0920;-0.7157;
513.6000;0.0928;-0.7202;
513.9000;0.0912;-0.7338;
514.2000;0.0879;-0.7406;
514.5000;0.0936;-0.7293;
514.8000;0.0944;-0.7180;
515.1000;0.0920;-0.7270;
515.4000;0.0895;-0.7270;
515.7000;0.0904;-0.7225;
516.0000;0.0928;-0.7134;
516.3000;0.0847;-0.7361;
516.6000;0.0904;-0.7225;
516.9000;0.0912;-0.7157;
517.2000;0.0920;-0.7112;
517.5000;0.0912;-0.7157;
517.8000;0.0895;-0.7157;
518.1000;0.0912;-0.7157;
518.4000;0.0912;-0.7248;
518.7000;0.0879;-0.7406;
519.0000;0.0912;-0.7316;
519.3000;0.0887;-0.7270;
519.6000;0.0904;-0.7293;
519.9000;0.0895;-0.7270;
520.2000;0.0879;-0.7361;
520.5000;0.0773;-0.7587;
520.8000;0.0879;-0.7384;
521.1000;0.0887;-0.7474;
521.4000;0.0912;-0.7474;
521.7000;0.0895;-0.7519;
522.0000;0.0920;-0.7565;
522.3000;0.0928;-0.7542;
522.6000;0.0928;-0.7474;
522.9000;0.0895;-0.7497;
523.2000;0.0928;-0.7406;
523.5000;0.0912;-0.7452;
523.8000;0.0936;-0.7429;
524.1000;0.0920;-0.7429;
524.4000;0.0912;-0.7429;
524.7000;0.0928;-0.7452;
525.0000;0.0912;-0.7474;
525.3000;0.0895;-0.7474;
525.6000;0.1009;-0.7225;
525.9000;0.0912;-0.7429;
526.2000;0.0895;-0.7384;
526.5000;0.0936;-0.7338;
526.8000;0.0895;-0.7452;
527.1000;0.0928;-0.7338;
527.4000;0.0920;-0.7361;
527.7000;0.0879;-0.7338;
528.0000;0.0895;-0.7316;
528.3000;0.0920;-0.7293;
528.6000;0.0887;-0.7384;
528.9000;0.0887;-0.7361;
529.2000;0.0887;-0.7338;
529.5000;0.0879;-0.7384;
529.8000;0.0912;-0.7270;
530.1000;0.0912;-0.7202;
530.4000;0.0879;-0.7293;
530.7000;0.0961;-0.7112;
531.0000;0.0912;-0.7293;
531.3000;0.0904;-0.7338;
531.6000;0.0838;-0.7474;
531.9000;0.0879;-0.7316;
532.2000;0.0904;-0.7202;
532.5000;0.0920;-0.7202;
532.8000;0.0887;-0.7180;
533.1000;0.0904;-0.7134;
533.4000;0.0920;-0.7112;
533.7000;0.0912;-0.7134;
534.0000;0.0904;-0.7270;
534.3000;0.0920;-0.7270;
534.6000;0.0912;-0.7293;
534.9000;0.0904;-0.7384;
535.2000;0.0912;-0.7316;
535.5000;0.0887;-0.7361;
535.8000;0.0912;-0.7316;
536.1000;0.0993;-0.7089;
536.4000;0.0871;-0.7452;
536.7000;0.0936;-0.7361;
537.0000;0.0871;-0.7452;
537.3000;0.0928;-0.7202;
537.6000;0.0895;-0.7293;
537.9000;0.0879;-0.7293;
538.2000;0.0895;-0.7316;
538.5000;0.0904;-0.7361;
538.8000;0.0830;-0.7610;
539.1000;0.0928;-0.7429;
539.4000;0.0920;-0.7384;
539.7000;0.0879;-0.7429;
540.0000;0.0887;-0.7429;
540.3000;0.0920;-0.7338;
540.6000;0.0904;-0.7406;
540.9000;0.0904;-0.7384;
541.2000;0.0895;-0.7565;
541.5000;0.0928;-0.7452;
541.8000;0.0920;-0.7406;
542.1000;0.0912;-0.7361;
542.4000;0.0863;-0.7565;
542.7000;0.0928;-0.7293;
543.0000;0.0912;-0.7293;
543.3000;0.0944;-0.7134;
543.6000;0.0806;-0.7587;
543.9000;0.0928;-0.7225;
544.2000;0.0912;-0.7112;
544.5000;0.0895;-0.7134;
544.8000;0.0985;-0.6908;
545.1000;0.0977;-0.6840;
545.4000;0.0895;-0.7089;
545.7000;0.0879;-0.7202;
546.0000;0.0838;-0.7406;
546.3000;0.0912;-0.7270;
546.6000;0.0977;-0.7112;
546.9000;0.0912;-0.7361;
547.2000;0.0879;-0.7384;
547.5000;0.0928;-0.7316;
547.8000;0.0879;-0.7384;
548.1000;0.0895;-0.7316;
548.4000;0.0887;-0.7316;
548.7000;0.0904;-0.7248;
549.0000;0.0871;-0.7316;
549.3000;0.0904;-0.7270;
549.6000;0.0838;-0.7406;
549.9000;0.0936;-0.7180;
550.2000;0.0895;-0.7270;
550.5000;0.0912;-0.7225;
550.8000;0.0879;-0.7338;
551.1000;0.0887;-0.7248;
551.4000;0.0895;-0.7134;
551.7000;0.0904;-0.7089;
552.0000;0.0912;-0.7134;
552.3000;0.0912;-0.7134;
552.6000;0.0904;-0.7202;
552.9000;0.0879;-0.7338;
553.2000;0.0879;-0.7225;
553.5000;0.0928;-0.7157;
553.8000;0.0847;-0.7293;
554.1000;0.0895;-0.7248;
554.4000;0.0977;-0.7112;
554.7000;0.0879;-0.7316;
555.0000;0.0879;-0.7338;
555.3000;0.0904;-0.7293;
555.6000;0.0912;-0.7202;
555.9000;0.0895;-0.7225;
556.2000;0.0904;-0.7270;
556.5000;0.0904;-0.7248;
556.8000;0.0920;-0.7225;
557.1000;0.0912;-0.7180;
557.4000;0.0887;-0.7180;
557.7000;0.0904;-0.7157;
558.0000;0.0895;-0.7067;
558.3000;0.0904;-0.7044;
558.6000;0.0904;-0.7021;
558.9000;0.1018;-0.6840;
559.2000;0.0904;-0.7089;
559.5000;0.0936;-0.7067;
559.8000;0.0920;-0.7134;
560.1000;0.0912;-0.7089;
560.4000;0.0895;-0.7157;
560.7000;0.0904;-0.7157;
561.0000;0.0936;-0.7112;
561.3000;0.0912;-0.7089;
561.6000;0.0879;-0.7134;
561.9000;0.0814;-0.7338;
562.2000;0.0912;-0.7134;
562.5000;0.0936;-0.7157;
562.8000;0.0912;-0.7202;
563.1000;0.0920;-0.7180;
563.4000;0.0904;-0.7202;
563.7000;0.0904;-0.7202;
564.0000;0.0912;-0.7202;
564.3000;0.0863;-0.7406;
564.6000;0.0944;-0.7225;
564.9000;0.0961;-0.7202;
565.2000;0.0904;-0.7406;
565.5000;0.0904;-0.7270;
565.8000;0.0822;-0.7361;
566.1000;0.0895;-0.7180;
566.4000;0.0977;-0.6885;
566.7000;0.0904;-0.6976;
567.0000;0.0887;-0.7067;
567.3000;0.0912;-0.7044;
567.6000;0.0855;-0.7157;
567.9000;0.0879;-0.7067;
568.2000;0.0920;-0.6953;
568.5000;0.0928;-0.6908;
568.8000;0.0969;-0.6795;
569.1000;0.0895;-0.6976;
569.4000;0.0887;-0.7067;
569.7000;0.0904;-0.7067;
570.0000;0.0904;-0.7180;
570.3000;0.0904;-0.7180;
570.6000;0.0895;-0.7248;
570.9000;0.0920;-0.7202;
571.2000;0.0895;-0.7338;
571.5000;0.0912;-0.7338;
571.8000;0.0912;-0.7248;
572.1000;0.0912;-0.7225;
572.4000;0.0912;-0.7225;
572.7000;0.0944;-0.7248;
573.0000;0.0928;-0.7293;
573.3000;0.0920;-0.7180;
573.6000;0.0895;-0.7202;
573.9000;0.0928;-0.7112;
574.2000;0.0912;-0.7134;
574.5000;0.0912;-0.7157;
574.8000;0.0904;-0.7134;
575.1000;0.0904;-0.7089;
575.4000;0.0904;-0.7089;
575.7000;0.0887;-0.7021;
576.0000;0.0920;-0.6931;
576.3000;0.0887;-0.7089;
576.6000;0.0920;-0.7067;
576.9000;0.0993;-0.6908;
577.2000;0.0920;-0.7067;
577.5000;0.1001;-0.6840;
577.8000;0.0969;-0.7044;
578.1000;0.0904;-0.7134;
578.4000;0.1001;-0.6976;
578.7000;0.0912;-0.7157;
579.0000;0.1034;-0.6817;
579.3000;0.0855;-0.7338;
579.6000;0.0920;-0.7112;
579.9000;0.0895;-0.7112;
580.2000;0.0904;-0.7180;
580.5000;0.0895;-0.7157;
580.8000;0.0904;-0.7089;
581.1000;0.0895;-0.7089;
581.4000;0.0895;-0.7134;
581.7000;0.0904;-0.7180;
582.0000;0.0952;-0.7225;
582.3000;0.0895;-0.7406;
582.6000;0.0944;-0.7338;
582.9000;0.0936;-0.7248;
583.2000;0.0904;-0.7361;
583.5000;0.0904;-0.7293;
583.8000;0.0822;-0.7452;
584.1000;0.0871;-0.7248;
584.4000;0.0936;-0.7112;
584.7000;0.0912;-0.7202;
585.0000;0.0895;-0.7180;
585.3000;0.0904;-0.7180;
585.6000;0.0920;-0.7112;
585.9000;0.1009;-0.6931;
586.2000;0.0928;-0.7134;
586.5000;0.0920;-0.7202;
586.8000;0.0871;-0.7338;
587.1000;0.0912;-0.7316;
587.4000;0.0904;-0.7361;
587.7000;0.0895;-0.7316;
588.0000;0.0904;-0.7248;
588.3000;0.0920;-0.7248;
588.6000;0.0912;-0.7248;
588.9000;0.0895;-0.7225;
589.2000;0.0912;-0.7202;
589.5000;0.0895;-0.7112;
589.8000;0.0871;-0.7157;
590.1000;0.0895;-0.7089;
590.4000;0.0904;-0.7112;
590.7000;0.0912;-0.7112;
591.0000;0.0887;-0.7112;
591.3000;0.0920;-0.7134;
591.6000;0.0904;-0.7157;
591.9000;0.0904;-0.7248;
592.2000;0.0912;-0.7225;
592.5000;0.0904;-0.7270;
592.8000;0.1034;-0.6931;
593.1000;0.0912;-0.7225;
593.4000;0.0912;-0.7202;
593.7000;0.0928;-0.7134;
594.0000;0.0887;-0.7270;
594.3000;0.0895;-0.7202;
594.6000;0.0912;-0.7089;
594.9000;0.0920;-0.7067;
595.2000;0.0904;-0.7112;
595.5000;0.0863;-0.7157;
595.8000;0.0904;-0.7089;
596.1000;0.0887;-0.7067;
596.4000;0.0912;-0.7021;
596.7000;0.0855;-0.7202;
597.0000;0.0920;-0.7112;
597.3000;0.0904;-0.7225;
597.6000;0.0838;-0.7406;
597.9000;0.0871;-0.7248;
598.2000;0.0920;-0.7157;
598.5000;0.0855;-0.7338;
598.8000;0.0847;-0.7316;
599.1000;0.0912;-0.7316;
599.4000;0.0895;-0.7293;
599.7000;0.0952;-0.7180;
600.0000;0.0879;-0.7293;
600.3000;0.0912;-0.7157;
600.6000;0.0887;-0.7293;
600.9000;0.0887;-0.7406;
601.2000;0.0895;-0.7519;
601.5000;0.0798;-0.7837;
601.8000;0.0961;-0.7610;
602.1000;0.0936;-0.7791;
602.4000;0.0887;-0.7950;
602.7000;0.0871;-0.8086;
603.0000;0.0871;-0.8154;
603.3000;0.0863;-0.8199;
603.6000;0.0847;-0.8199;
603.9000;0.0847;-0.8267;
604.2000;0.0920;-0.8199;
604.5000;0.0847;-0.8561;
604.8000;0.0879;-0.8607;
605.1000;0.0838;-0.8675;
605.4000;0.0855;-0.8607;
605.7000;0.0871;-0.8629;
606.0000;0.0838;-0.8675;
606.3000;0.0838;-0.8720;
606.6000;0.0830;-0.8584;
606.9000;0.0830;-0.8539;
607.2000;0.0814;-0.8516;
607.5000;0.0814;-0.8539;
607.8000;0.0838;-0.8493;
608.1000;0.0912;-0.8358;
608.4000;0.0822;-0.8561;
608.7000;0.0855;-0.8448;
609.0000;0.0814;-0.8493;
609.3000;0.0757;-0.8607;
609.6000;0.0814;-0.8448;
609.9000;0.0790;-0.8561;
610.2000;0.0895;-0.8335;
610.5000;0.0822;-0.8539;
610.8000;0.0838;-0.8539;
611.1000;0.0676;-0.8901;
611.4000;0.0814;-0.8539;
611.7000;0.0798;-0.8607;
612.0000;0.0790;-0.8743;
612.3000;0.0847;-0.8607;
612.6000;0.0790;-0.8629;
612.9000;0.0806;-0.8629;
613.2000;0.0806;-0.8652;
613.5000;0.0814;-0.8607;
613.8000;0.0822;-0.8539;
614.1000;0.0814;-0.8584;
614.4000;0.0781;-0.8607;
614.7000;0.0822;-0.8516;
615.0000;0.0781;-0.8675;
615.3000;0.0806;-0.8652;
615.6000;0.0887;-0.8471;
615.9000;0.0814;-0.8516;
616.2000;0.0822;-0.8448;
616.5000;0.0814;-0.8539;
616.8000;0.0838;-0.8493;
617.1000;0.0798;-0.8607;
617.4000;0.0594;-0.9105;
617.7000;0.0765;-0.8697;
618.0000;0.0773;-0.8652;
618.3000;0.0798;-0.8607;
618.6000;0.0798;-0.8516;
618.9000;0.0798;-0.8471;
619.2000;0.0806;-0.8448;
619.5000;0.0790;-0.8539;
619.8000;0.0806;-0.8471;
620.1000;0.0790;-0.8584;
620.4000;0.0806;-0.8539;
620.7000;0.0790;-0.8448;
621.0000;0.0790;-0.8471;
621.3000;0.0781;-0.8471;
621.6000;0.0773;-0.8448;
621.9000;0.0765;-0.8493;
622.2000;0.0773;-0.8493;
622.5000;0.0749;-0.8516;
622.8000;0.0781;-0.8403;
623.1000;0.0790;-0.8403;
623.4000;0.0806;-0.8312;
623.7000;0.0733;-0.8539;
624.0000;0.0814;-0.8312;
624.3000;0.0806;-0.8403;
624.6000;0.0895;-0.8086;
624.9000;0.0773;-0.8403;
625.2000;0.0790;-0.8448;
625.5000;0.0724;-0.8675;
625.8000;0.0798;-0.8471;
626.1000;0.0773;-0.8607;
626.4000;0.0790;-0.8516;
626.7000;0.0830;-0.8335;
627.0000;0.0781;-0.8516;
627.3000;0.0790;-0.8516;
627.6000;0.0790;-0.8448;
627.9000;0.0765;-0.8561;
628.2000;0.0798;-0.8516;
628.5000;0.0765;-0.8629;
628.8000;0.0773;-0.8675;
629.1000;0.0773;-0.8697;
629.4000;0.0781;-0.8675;
629.7000;0.0790;-0.8697;
630.0000;0.0749;-0.8765;
630.3000;0.0781;-0.8743;
630.6000;0.0765;-0.8720;
630.9000;0.0790;-0.8720;
631.2000;0.0790;-0.8720;
631.5000;0.0790;-0.8607;
631.8000;0.0790;-0.8607;
632.1000;0.0773;-0.8743;
632.4000;0.0749;-0.8765;
632.7000;0.0830;-0.8471;
633.0000;0.0773;-0.8516;
633.3000;0.0822;-0.8358;
633.6000;0.0724;-0.8629;
633.9000;0.0692;-0.8833;
634.2000;0.0781;-0.8675;
634.5000;0.0798;-0.8584;
634.8000;0.0765;-0.8720;
635.1000;0.0790;-0.8584;
635.4000;0.0806;-0.8539;
635.7000;0.0765;-0.8607;
636.0000;0.0757;-0.8539;
636.3000;0.0838;-0.8312;
636.6000;0.0757;-0.8425;
636.9000;0.0741;-0.8516;
637.2000;0.0830;-0.8312;
637.5000;0.0741;-0.8561;
637.8000;0.0757;-0.8561;
638.1000;0.0773;-0.8493;
638.4000;0.0765;-0.8493;
638.7000;0.0798;-0.8380;
639.0000;0.0733;-0.8539;
639.3000;0.0773;-0.8493;
639.6000;0.0798;-0.8403;
639.9000;0.0749;-0.8539;
640.2000;0.0757;-0.8403;
640.5000;0.0814;-0.8380;
640.8000;0.0773;-0.8493;
641.1000;0.0781;-0.8471;
641.4000;0.0733;-0.8607;
641.7000;0.0773;-0.8448;
642.0000;0.0749;-0.8358;
642.3000;0.0814;-0.8176;
642.6000;0.0757;-0.8425;
642.9000;0.0814;-0.8448;
643.2000;0.0765;-0.8561;
643.5000;0.0806;-0.8471;
643.8000;0.0733;-0.8720;
644.1000;0.0773;-0.8652;
644.4000;0.0798;-0.8607;
644.7000;0.0765;-0.8720;
645.0000;0.0790;-0.8675;
645.3000;0.0757;-0.8629;
645.6000;0.0781;-0.8561;
645.9000;0.0781;-0.8539;
646.2000;0.0757;-0.8561;
646.5000;0.0765;-0.8584;
646.8000;0.0773;-0.8629;
647.1000;0.0765;-0.8584;
647.4000;0.0757;-0.8561;
647.7000;0.0700;-0.8675;
648.0000;0.0781;-0.8584;
648.3000;0.0765;-0.8607;
648.6000;0.0749;-0.8584;
648.9000;0.0765;-0.8584;
649.2000;0.0765;-0.8607;
649.5000;0.0790;-0.8516;
649.8000;0.0733;-0.8539;
650.1000;0.0749;-0.8516;
650.4000;0.0749;-0.8493;
650.7000;0.0765;-0.8403;
651.0000;0.0700;-0.8584;
651.3000;0.0781;-0.8425;
651.6000;0.0741;-0.8584;
651.9000;0.0765;-0.8584;
652.2000;0.0790;-0.8493;
652.5000;0.0757;-0.8584;
652.8000;0.0749;-0.8675;
653.1000;0.0773;-0.8584;
653.4000;0.0757;-0.8720;
653.7000;0.0741;-0.8810;
654.0000;0.0798;-0.8607;
654.3000;0.0757;-0.8720;
654.6000;0.0798;-0.8675;
654.9000;0.0724;-0.8856;
655.2000;0.0749;-0.8810;
655.5000;0.0757;-0.8765;
655.8000;0.0765;-0.8743;
656.1000;0.0741;-0.8743;
656.4000;0.0798;-0.8675;
656.7000;0.0757;-0.8675;
657.0000;0.0781;-0.8493;
657.3000;0.0757;-0.8516;
657.6000;0.0765;-0.8403;
657.9000;0.0643;-0.8743;
658.2000;0.0765;-0.8425;
658.5000;0.0676;-0.8584;
658.8000;0.0724;-0.8471;
659.1000;0.0781;-0.8380;
659.4000;0.0700;-0.8629;
659.7000;0.0814;-0.8358;
660.0000;0.0798;-0.8448;
660.3000;0.0749;-0.8493;
660.6000;0.0700;-0.8561;
660.9000;0.0733;-0.8448;
661.2000;0.0676;-0.8561;
661.5000;0.0757;-0.8380;
661.8000;0.0757;-0.8471;
662.1000;0.0790;-0.8267;
662.4000;0.0847;-0.8176;
662.7000;0.0659;-0.8629;
663.0000;0.0733;-0.8448;
663.3000;0.0757;-0.8425;
663.6000;0.0765;-0.8403;
663.9000;0.0749;-0.8471;
664.2000;0.0822;-0.8335;
664.5000;0.0765;-0.8493;
664.8000;0.0749;-0.8652;
665.1000;0.0765;-0.8607;
665.4000;0.0749;-0.8629;
665.7000;0.0765;-0.8607;
666.0000;0.0741;-0.8675;
666.3000;0.0773;-0.8493;
666.6000;0.0765;-0.8448;
666.9000;0.0765;-0.8448;
667.2000;0.0757;-0.8516;
667.5000;0.0757;-0.8561;
667.8000;0.0749;-0.8584;
668.1000;0.0757;-0.8561;
668.4000;0.0684;-0.8743;
668.7000;0.0773;-0.8471;
669.0000;0.0692;-0.8652;
669.3000;0.0765;-0.8425;
669.6000;0.0765;-0.8425;
669.9000;0.0733;-0.8471;
670.2000;0.0749;-0.8448;
670.5000;0.0757;-0.8493;
670.8000;0.0765;-0.8471;
671.1000;0.0749;-0.8471;
671.4000;0.0749;-0.8607;
671.7000;0.0749;-0.8561;
672.0000;0.0667;-0.8765;
672.3000;0.0773;-0.8584;
672.6000;0.0781;-0.8584;
672.9000;0.0895;-0.8335;
673.2000;0.0781;-0.8697;
673.5000;0.0765;-0.8765;
673.8000;0.0773;-0.8652;
674.1000;0.0741;-0.8765;
674.4000;0.0619;-0.9082;
674.7000;0.0773;-0.8675;
675.0000;0.0757;-0.8810;
675.3000;0.0741;-0.8878;
675.6000;0.0822;-0.8697;
675.9000;0.0806;-0.8675;
676.2000;0.0773;-0.8743;
676.5000;0.0741;-0.8743;
676.8000;0.0659;-0.8856;
677.1000;0.0757;-0.8584;
677.4000;0.0781;-0.8539;
677.7000;0.0749;-0.8629;
678.0000;0.0749;-0.8629;
678.3000;0.0757;-0.8652;
678.6000;0.0781;-0.8561;
678.9000;0.0749;-0.8675;
679.2000;0.0757;-0.8629;
679.5000;0.0790;-0.8425;
679.8000;0.0749;-0.8584;
680.1000;0.0749;-0.8607;
680.4000;0.0798;-0.8561;
680.7000;0.0716;-0.8765;
681.0000;0.0749;-0.8584;
681.3000;0.0773;-0.8471;
681.6000;0.0757;-0.8448;
681.9000;0.0749;-0.8471;
682.2000;0.0765;-0.8425;
682.5000;0.0765;-0.8448;
682.8000;0.0757;-0.8471;
683.1000;0.0757;-0.8425;
683.4000;0.0757;-0.8425;
683.7000;0.0765;-0.8448;
684.0000;0.0765;-0.8471;
684.3000;0.0741;-0.8539;
684.6000;0.0733;-0.8584;
684.9000;0.0757;-0.8561;
685.2000;0.0733;-0.8561;
685.5000;0.0733;-0.8584;
685.8000;0.0716;-0.8584;
686.1000;0.0749;-0.8471;
686.4000;0.0765;-0.8493;
686.7000;0.0749;-0.8652;
687.0000;0.0757;-0.8765;
687.3000;0.0879;-0.8493;
687.6000;0.0757;-0.8652;
687.9000;0.0749;-0.8697;
688.2000;0.0749;-0.8652;
688.5000;0.0757;-0.8675;
688.8000;0.0765;-0.8697;
689.1000;0.0684;-0.8878;
689.4000;0.0611;-0.9150;
689.7000;0.0838;-0.8697;
690.0000;0.0765;-0.8878;
690.3000;0.0659;-0.9128;
690.6000;0.0741;-0.8833;
690.9000;0.0733;-0.8765;
691.2000;0.0684;-0.8788;
691.5000;0.0724;-0.8675;
691.8000;0.0765;-0.8607;
692.1000;0.0741;-0.8675;
692.4000;0.0790;-0.8652;
692.7000;0.0741;-0.8743;
693.0000;0.0757;-0.8652;
693.3000;0.0724;-0.8675;
693.6000;0.0765;-0.8448;
693.9000;0.0814;-0.8222;
694.2000;0.0749;-0.8358;
694.5000;0.0781;-0.8335;
694.8000;0.0757;-0.8403;
695.1000;0.0757;-0.8380;
695.4000;0.0773;-0.8380;
695.7000;0.0700;-0.8607;
696.0000;0.0692;-0.8561;
696.3000;0.0765;-0.8471;
696.6000;0.0798;-0.8403;
696.9000;0.0749;-0.8471;
697.2000;0.0733;-0.8561;
697.5000;0.0790;-0.8471;
697.8000;0.0733;-0.8629;
698.1000;0.0667;-0.8810;
698.4000;0.0757;-0.8493;
698.7000;0.0773;-0.8471;
699.0000;0.0749;-0.8584;
699.3000;0.0765;-0.8629;
699.6000;0.0741;-0.8743;
699.9000;0.0765;-0.8720;
700.2000;0.0733;-0.8765;
700.5000;0.0724;-0.8810;
700.8000;0.0724;-0.8788;
701.1000;0.0749;-0.8697;
701.4000;0.0700;-0.8833;
701.7000;0.0733;-0.8720;
702.0000;0.0741;-0.8810;
702.3000;0.0757;-0.8788;
702.6000;0.0741;-0.8743;
702.9000;0.0781;-0.8607;
703.2000;0.0733;-0.8652;
703.5000;0.0741;-0.8652;
703.8000;0.0773;-0.8629;
704.1000;0.0757;-0.8607;
704.4000;0.0692;-0.8788;
704.7000;0.0733;-0.8675;
705.0000;0.0757;-0.8629;
705.3000;0.0749;-0.8720;
705.6000;0.0684;-0.8878;
705.9000;0.0765;-0.8697;
706.2000;0.0724;-0.8856;
706.5000;0.0749;-0.8788;
706.8000;0.0757;-0.8878;
707.1000;0.0749;-0.8924;
707.4000;0.0741;-0.8992;
707.7000;0.0733;-0.8969;
708.0000;0.0757;-0.8901;
708.3000;0.0741;-0.8833;
708.6000;0.0773;-0.8765;
708.9000;0.0733;-0.8901;
709.2000;0.0611;-0.9150;
709.5000;0.0847;-0.8607;
709.8000;0.0643;-0.9128;
710.1000;0.0749;-0.8856;
710.4000;0.0757;-0.8833;
710.7000;0.0733;-0.8810;
711.0000;0.0659;-0.8992;
711.3000;0.0749;-0.8810;
711.6000;0.0765;-0.8810;
711.9000;0.0749;-0.8833;
712.2000;0.0765;-0.8720;
712.5000;0.0765;-0.8788;
712.8000;0.0757;-0.8743;
713.1000;0.0733;-0.8743;
713.4000;0.0749;-0.8652;
713.7000;0.0749;-0.8697;
714.0000;0.0749;-0.8743;
714.3000;0.0749;-0.8743;
714.6000;0.0741;-0.8743;
714.9000;0.0749;-0.8720;
715.2000;0.0765;-0.8584;
715.5000;0.0773;-0.8584;
715.8000;0.0757;-0.8584;
716.1000;0.0741;-0.8493;
716.4000;0.0765;-0.8403;
716.7000;0.0781;-0.8335;
717.0000;0.0765;-0.8335;
717.3000;0.0741;-0.8448;
717.6000;0.0757;-0.8448;
717.9000;0.0822;-0.8358;
718.2000;0.0765;-0.8652;
718.5000;0.0749;-0.8607;
718.8000;0.0708;-0.8697;
719.1000;0.0765;-0.8539;
719.4000;0.0830;-0.8335;
719.7000;0.0773;-0.8516;
720.0000;0.0716;-0.8516;
720.3000;0.0757;-0.8403;
720.6000;0.0749;-0.8425;
720.9000;0.0765;-0.8380;
721.2000;0.0741;-0.8403;
721.5000;0.0765;-0.8358;
721.8000;0.0757;-0.8425;
722.1000;0.0749;-0.8448;
722.4000;0.0741;-0.8516;
722.7000;0.0765;-0.8493;
723.0000;0.0716;-0.8539;
723.3000;0.0741;-0.8403;
723.6000;0.0757;-0.8380;
723.9000;0.0765;-0.8290;
724.2000;0.0757;-0.8290;
724.5000;0.0757;-0.8312;
724.8000;0.0765;-0.8380;
725.1000;0.0749;-0.8448;
725.4000;0.0684;-0.8652;
725.7000;0.0659;-0.8765;
726.0000;0.0871;-0.8131;
726.3000;0.0659;-0.8584;
726.6000;0.0733;-0.8358;
726.9000;0.0781;-0.8290;
727.2000;0.0741;-0.8312;
727.5000;0.0602;-0.8675;
727.8000;0.0757;-0.8244;
728.1000;0.0749;-0.8358;
728.4000;0.0733;-0.8358;
728.7000;0.0733;-0.8312;
729.0000;0.0749;-0.8290;
729.3000;0.0733;-0.8335;
729.6000;0.0757;-0.8380;
729.9000;0.0733;-0.8493;
730.2000;0.0749;-0.8539;
730.5000;0.0643;-0.8788;
730.8000;0.0643;-0.8856;
731.1000;0.0741;-0.8607;
731.4000;0.0692;-0.8697;
731.7000;0.0741;-0.8539;
732.0000;0.0757;-0.8584;
732.3000;0.0733;-0.8675;
732.6000;0.0676;-0.8856;
732.9000;0.0749;-0.8652;
733.2000;0.0765;-0.8607;
733.5000;0.0781;-0.8516;
733.8000;0.0757;-0.8607;
734.1000;0.0733;-0.8629;
734.4000;0.0757;-0.8539;
734.7000;0.0749;-0.8493;
735.0000;0.0757;-0.8607;
735.3000;0.0741;-0.8652;
735.6000;0.0724;-0.8788;
735.9000;0.0733;-0.8743;
736.2000;0.0847;-0.8448;
736.5000;0.0749;-0.8561;
736.8000;0.0765;-0.8493;
737.1000;0.0708;-0.8516;
737.4000;0.0741;-0.8448;
737.7000;0.0716;-0.8448;
738.0000;0.0724;-0.8425;
738.3000;0.0724;-0.8425;
738.6000;0.0733;-0.8425;
738.9000;0.0741;-0.8425;
739.2000;0.0757;-0.8403;
739.5000;0.0749;-0.8516;
739.8000;0.0822;-0.8290;
740.1000;0.0651;-0.8697;
740.4000;0.0741;-0.8516;
740.7000;0.0724;-0.8561;
741.0000;0.0749;-0.8539;
741.3000;0.0716;-0.8652;
741.6000;0.0749;-0.8584;
741.9000;0.0733;-0.8607;
742.2000;0.0741;-0.8584;
742.5000;0.0716;-0.8607;
742.8000;0.0741;-0.8539;
743.1000;0.0749;-0.8425;
743.4000;0.0733;-0.8516;
743.7000;0.0749;-0.8425;
744.0000;0.0830;-0.8131;
744.3000;0.0733;-0.8335;
744.6000;0.0822;-0.8086;
744.9000;0.0773;-0.8312;
745.2000;0.0749;-0.8358;
745.5000;0.0741;-0.8471;
745.8000;0.0692;-0.8697;
746.1000;0.0741;-0.8516;
746.4000;0.0724;-0.8539;
746.7000;0.0830;-0.8290;
747.0000;0.0741;-0.8471;
747.3000;0.0765;-0.8448;
747.6000;0.0822;-0.8199;
747.9000;0.0749;-0.8222;
748.2000;0.0741;-0.8312;
748.5000;0.0741;-0.8335;
748.8000;0.0773;-0.8199;
749.1000;0.0749;-0.8290;
749.4000;0.0895;-0.7927;
749.7000;0.0733;-0.8335;
750.0000;0.0741;-0.8425;
750.3000;0.0692;-0.8493;
750.6000;0.0708;-0.8380;
750.9000;0.0741;-0.8222;
751.2000;0.0733;-0.8244;
751.5000;0.0765;-0.8244;
751.8000;0.0749;-0.8290;
752.1000;0.0741;-0.8425;
752.4000;0.0733;-0.8403;
752.7000;0.0790;-0.8244;
753.0000;0.0757;-0.8335;
753.3000;0.0790;-0.8290;
753.6000;0.0790;-0.8290;
753.9000;0.0741;-0.8335;
754.2000;0.0700;-0.8403;
754.5000;0.0830;-0.8154;
754.8000;0.0741;-0.8267;
755.1000;0.0749;-0.8380;
755.4000;0.0684;-0.8539;
755.7000;0.0643;-0.8765;
756.0000;0.0733;-0.8493;
756.3000;0.0741;-0.8516;
756.6000;0.0716;-0.8471;
756.9000;0.0749;-0.8358;
757.2000;0.0757;-0.8312;
757.5000;0.0733;-0.8403;
757.8000;0.0814;-0.8222;
758.1000;0.0757;-0.8380;
758.4000;0.0855;-0.8131;
758.7000;0.0773;-0.8425;
759.0000;0.0757;-0.8471;
759.3000;0.0733;-0.8493;
759.6000;0.0749;-0.8425;
759.9000;0.0741;-0.8493;
760.2000;0.0749;-0.8493;
760.5000;0.0741;-0.8448;
760.8000;0.0749;-0.8493;
761.1000;0.0733;-0.8539;
761.4000;0.0765;-0.8471;
761.7000;0.0724;-0.8607;
762.0000;0.0716;-0.8561;
762.3000;0.0724;-0.8425;
762.6000;0.0749;-0.8380;
762.9000;0.0798;-0.8176;
763.2000;0.0724;-0.8290;
763.5000;0.0765;-0.8108;
763.8000;0.0757;-0.8018;
764.1000;0.0716;-0.8176;
764.4000;0.0790;-0.7950;
764.7000;0.0749;-0.8154;
765.0000;0.0716;-0.8267;
765.3000;0.0749;-0.8176;
765.6000;0.0749;-0.8176;
765.9000;0.0724;-0.8244;
766.2000;0.0749;-0.8176;
766.5000;0.0700;-0.8222;
766.8000;0.0733;-0.8154;
767.1000;0.0741;-0.8244;
767.4000;0.0749;-0.8222;
767.7000;0.0773;-0.8154;
768.0000;0.0765;-0.8154;
768.3000;0.0741;-0.8199;
768.6000;0.0700;-0.8312;
768.9000;0.0741;-0.8290;
769.2000;0.0781;-0.8131;
769.5000;0.0724;-0.8335;
769.8000;0.0733;-0.8244;
770.1000;0.0733;-0.8267;
770.4000;0.0765;-0.8244;
770.7000;0.0798;-0.8154;
771.0000;0.0716;-0.8403;
771.3000;0.0716;-0.8380;
771.6000;0.0733;-0.8425;
771.9000;0.0822;-0.8290;
772.2000;0.0733;-0.8561;
772.5000;0.0814;-0.8425;
772.8000;0.0716;-0.8697;
773.1000;0.0765;-0.8607;
773.4000;0.0773;-0.8493;
773.7000;0.0716;-0.8629;
774.0000;0.0838;-0.8312;
774.3000;0.0676;-0.8652;
774.6000;0.0724;-0.8539;
774.9000;0.0879;-0.8199;
775.2000;0.0757;-0.8516;
775.5000;0.0659;-0.8720;
775.8000;0.0757;-0.8539;
776.1000;0.0724;-0.8675;
776.4000;0.0757;-0.8584;
776.7000;0.0749;-0.8607;
777.0000;0.0757;-0.8516;
777.3000;0.0855;-0.8222;
777.6000;0.0733;-0.8516;
777.9000;0.0781;-0.8448;
778.2000;0.0749;-0.8607;
778.5000;0.0724;-0.8743;
778.8000;0.0749;-0.8652;
779.1000;0.0741;-0.8539;
779.4000;0.0773;-0.8561;
779.7000;0.0741;-0.8493;
780.0000;0.0733;-0.8471;
780.3000;0.0757;-0.8380;
780.6000;0.0700;-0.8584;
780.9000;0.0733;-0.8403;
781.2000;0.0773;-0.8267;
781.5000;0.0757;-0.8358;
781.8000;0.0765;-0.8358;
782.1000;0.0724;-0.8471;
782.4000;0.0757;-0.8448;
782.7000;0.0749;-0.8493;
783.0000;0.0724;-0.8539;
783.3000;0.0724;-0.8493;
783.6000;0.0757;-0.8448;
783.9000;0.0716;-0.8584;
784.2000;0.0765;-0.8448;
784.5000;0.0749;-0.8425;
784.8000;0.0838;-0.8244;
785.1000;0.0749;-0.8403;
785.4000;0.0749;-0.8493;
785.7000;0.0733;-0.8539;
786.0000;0.0733;-0.8448;
786.3000;0.0733;-0.8471;
786.6000;0.0757;-0.8448;
786.9000;0.0847;-0.8244;
787.2000;0.0733;-0.8629;
787.5000;0.0773;-0.8448;
787.8000;0.0757;-0.8380;
788.1000;0.0749;-0.8403;
788.4000;0.0757;-0.8380;
788.7000;0.0724;-0.8425;
789.0000;0.0757;-0.8448;
789.3000;0.0765;-0.8516;
789.6000;0.0765;-0.8425;
789.9000;0.0798;-0.8335;
790.2000;0.0724;-0.8561;
790.5000;0.0798;-0.8448;
790.8000;0.0798;-0.8516;
791.1000;0.0749;-0.8697;
791.4000;0.0724;-0.8697;
791.7000;0.0741;-0.8607;
792.0000;0.0806;-0.8425;
792.3000;0.0724;-0.8561;
792.6000;0.0741;-0.8607;
792.9000;0.0757;-0.8607;
793.2000;0.0741;-0.8652;
793.5000;0.0749;-0.8561;
793.8000;0.0724;-0.8652;
794.1000;0.0749;-0.8629;
794.4000;0.0765;-0.8561;
794.7000;0.0781;-0.8539;
795.0000;0.0708;-0.8720;
795.3000;0.0700;-0.8720;
795.6000;0.0749;-0.8629;
795.9000;0.0741;-0.8607;
796.2000;0.0708;-0.8697;
796.5000;0.0757;-0.8629;
796.8000;0.0790;-0.8539;
797.1000;0.0757;-0.8561;
797.4000;0.0741;-0.8584;
797.7000;0.0757;-0.8493;
798.0000;0.0765;-0.8493;
798.3000;0.0781;-0.8471;
798.6000;0.0765;-0.8493;
798.9000;0.0741;-0.8584;
799.2000;0.0765;-0.8584;
799.5000;0.0757;-0.8584;
799.8000;0.0773;-0.8584;
800.1000;0.0708;-0.8697;
800.4000;0.0749;-0.8584;
800.7000;0.0790;-0.8539;
801.0000;0.0749;-0.8629;
801.3000;0.0741;-0.8675;
801.6000;0.0749;-0.8607;
801.9000;0.0749;-0.8584;
802.2000;0.0773;-0.8561;
802.5000;0.0741;-0.8607;
802.8000;0.0757;-0.8493;
803.1000;0.0741;-0.8493;
803.4000;0.0741;-0.8516;
803.7000;0.0757;-0.8539;
804.0000;0.0741;-0.8539;
804.3000;0.0749;-0.8584;
804.6000;0.0765;-0.8561;
804.9000;0.0741;-0.8607;
805.2000;0.0733;-0.8493;
805.5000;0.0741;-0.8380;
805.8000;0.0733;-0.8267;
806.1000;0.0733;-0.8267;
806.4000;0.0781;-0.8131;
806.7000;0.0667;-0.8335;
807.0000;0.0708;-0.8380;
807.3000;0.0741;-0.8380;
807.6000;0.0733;-0.8425;
807.9000;0.0733;-0.8448;
808.2000;0.0749;-0.8380;
808.5000;0.0781;-0.8267;
808.8000;0.0708;-0.8493;
809.1000;0.0757;-0.8425;
809.4000;0.0749;-0.8358;
809.7000;0.0773;-0.8222;
810.0000;0.0773;-0.8222;
810.3000;0.0814;-0.8154;
810.6000;0.0733;-0.8380;
810.9000;0.0757;-0.8312;
811.2000;0.0765;-0.8380;
811.5000;0.0757;-0.8403;
811.8000;0.0749;-0.8380;
812.1000;0.0749;-0.8403;
812.4000;0.0659;-0.8539;
812.7000;0.0700;-0.8267;
813.0000;0.0741;-0.8199;
813.3000;0.0765;-0.8176;
813.6000;0.0749;-0.8222;
813.9000;0.0692;-0.8425;
814.2000;0.0749;-0.8267;
814.5000;0.0781;-0.8244;
814.8000;0.0733;-0.8290;
815.1000;0.0765;-0.8267;
815.4000;0.0765;-0.8290;
815.7000;0.0757;-0.8358;
816.0000;0.0741;-0.8403;
816.3000;0.0749;-0.8425;
816.6000;0.0684;-0.8539;
816.9000;0.0643;-0.8652;
817.2000;0.0708;-0.8493;
817.5000;0.0741;-0.8471;
817.8000;0.0741;-0.8471;
818.1000;0.0806;-0.8312;
818.4000;0.0749;-0.8448;
818.7000;0.0781;-0.8425;
819.0000;0.0773;-0.8448;
819.3000;0.0741;-0.8584;
819.6000;0.0773;-0.8607;
819.9000;0.0741;-0.8720;
820.2000;0.0741;-0.8652;
820.5000;0.0798;-0.8471;
820.8000;0.0773;-0.8584;
821.1000;0.0741;-0.8629;
821.4000;0.0749;-0.8607;
821.7000;0.0773;-0.8539;
822.0000;0.0830;-0.8335;
822.3000;0.0724;-0.8493;
822.6000;0.0708;-0.8607;
822.9000;0.0708;-0.8629;
823.2000;0.0749;-0.8471;
823.5000;0.0847;-0.8312;
823.8000;0.0749;-0.8584;
824.1000;0.0765;-0.8561;
824.4000;0.0765;-0.8516;
824.7000;0.0733;-0.8539;
825.0000;0.0749;-0.8584;
825.3000;0.0806;-0.8493;
825.6000;0.0798;-0.8539;
825.9000;0.0765;-0.8584;
826.2000;0.0733;-0.8629;
826.5000;0.0594;-0.8992;
826.8000;0.0733;-0.8607;
827.1000;0.0741;-0.8493;
827.4000;0.0741;-0.8539;
827.7000;0.0749;-0.8516;
828.0000;0.0749;-0.8448;
828.3000;0.0765;-0.8358;
828.6000;0.0741;-0.8380;
828.9000;0.0741;-0.8425;
829.2000;0.0773;-0.8267;
829.5000;0.0830;-0.8131;
829.8000;0.0724;-0.8493;
830.1000;0.0741;-0.8584;
830.4000;0.0814;-0.8425;
830.7000;0.0773;-0.8607;
831.0000;0.0765;-0.8607;
831.3000;0.0749;-0.8584;
831.6000;0.0741;-0.8516;
831.9000;0.0790;-0.8403;
832.2000;0.0741;-0.8652;
832.5000;0.0733;-0.8675;
832.8000;0.0781;-0.8539;
833.1000;0.0757;-0.8675;
833.4000;0.0749;-0.8743;
833.7000;0.0757;-0.8697;
834.0000;0.0724;-0.8765;
834.3000;0.0741;-0.8675;
834.6000;0.0773;-0.8629;
834.9000;0.0773;-0.8539;
835.2000;0.0790;-0.8471;
835.5000;0.0749;-0.8539;
835.8000;0.0733;-0.8493;
836.1000;0.0749;-0.8403;
836.4000;0.0716;-0.8471;
836.7000;0.0765;-0.8335;
837.0000;0.0773;-0.8312;
837.3000;0.0684;-0.8471;
837.6000;0.0757;-0.8312;
837.9000;0.0651;-0.8516;
838.2000;0.0773;-0.8267;
838.5000;0.0741;-0.8380;
838.8000;0.0765;-0.8312;
839.1000;0.0724;-0.8403;
839.4000;0.0741;-0.8358;
839.7000;0.0757;-0.8199;
840.0000;0.0773;-0.8290;
840.3000;0.0757;-0.8403;
840.6000;0.0741;-0.8471;
840.9000;0.0724;-0.8516;
841.2000;0.0781;-0.8448;
841.5000;0.0741;-0.8539;
841.8000;0.0741;-0.8425;
842.1000;0.0757;-0.8358;
842.4000;0.0773;-0.8312;
842.7000;0.0757;-0.8358;
843.0000;0.0749;-0.8380;
843.3000;0.0749;-0.8358;
843.6000;0.0749;-0.8516;
843.9000;0.0749;-0.8448;
844.2000;0.0781;-0.8403;
844.5000;0.0749;-0.8516;
844.8000;0.0749;-0.8471;
845.1000;0.0733;-0.8493;
845.4000;0.0716;-0.8516;
845.7000;0.0741;-0.8584;
846.0000;0.0806;-0.8425;
846.3000;0.0724;-0.8584;
846.6000;0.0757;-0.8493;
846.9000;0.0765;-0.8448;
847.2000;0.0741;-0.8516;
847.5000;0.0765;-0.8471;
847.8000;0.0749;-0.8448;
848.1000;0.0733;-0.8493;
848.4000;0.0700;-0.8516;
848.7000;0.0708;-0.8493;
849.0000;0.0765;-0.8244;
849.3000;0.0765;-0.8290;
849.6000;0.0733;-0.8335;
849.9000;0.0773;-0.8290;
850.2000;0.0741;-0.8267;
850.5000;0.0708;-0.8425;
850.8000;0.0716;-0.8425;
851.1000;0.0765;-0.8380;
851.4000;0.0741;-0.8380;
851.7000;0.0741;-0.8448;
852.0000;0.0757;-0.8380;
852.3000;0.0741;-0.8425;
852.6000;0.0773;-0.8335;
852.9000;0.0814;-0.8222;
853.2000;0.0749;-0.8267;
853.5000;0.0830;-0.8018;
853.8000;0.0692;-0.8335;
854.1000;0.0806;-0.8108;
854.4000;0.0781;-0.8176;
854.7000;0.0773;-0.8176;
855.0000;0.0749;-0.8312;
855.3000;0.0757;-0.8312;
855.6000;0.0733;-0.8425;
855.9000;0.0716;-0.8471;
856.2000;0.0749;-0.8425;
856.5000;0.0716;-0.8448;
856.8000;0.0724;-0.8403;
857.1000;0.0733;-0.8380;
857.4000;0.0773;-0.8312;
857.7000;0.0838;-0.8176;
858.0000;0.0716;-0.8471;
858.3000;0.0741;-0.8403;
858.6000;0.0741;-0.8358;
858.9000;0.0733;-0.8267;
859.2000;0.0757;-0.8199;
859.5000;0.0773;-0.8222;
859.8000;0.0724;-0.8403;
860.1000;0.0765;-0.8312;
860.4000;0.0765;-0.8244;
860.7000;0.0733;-0.8222;
861.0000;0.0708;-0.8312;
861.3000;0.0790;-0.8222;
861.6000;0.0749;-0.8267;
861.9000;0.0733;-0.8471;
862.2000;0.0749;-0.8448;
862.5000;0.0790;-0.8267;
862.8000;0.0838;-0.8199;
863.1000;0.0749;-0.8335;
863.4000;0.0733;-0.8380;
863.7000;0.0724;-0.8471;
864.0000;0.0749;-0.8448;
864.3000;0.0733;-0.8448;
864.6000;0.0773;-0.8403;
864.9000;0.0749;-0.8471;
865.2000;0.0749;-0.8471;
865.5000;0.0781;-0.8403;
865.8000;0.0692;-0.8539;
866.1000;0.0716;-0.8471;
866.4000;0.0838;-0.8176;
866.7000;0.0773;-0.8312;
867.0000;0.0749;-0.8380;
867.3000;0.0635;-0.8720;
867.6000;0.0757;-0.8425;
867.9000;0.0724;-0.8471;
868.2000;0.0741;-0.8471;
868.5000;0.0667;-0.8675;
868.8000;0.0765;-0.8493;
869.1000;0.0773;-0.8380;
869.4000;0.0773;-0.8403;
869.7000;0.0749;-0.8493;
870.0000;0.0757;-0.8539;
870.3000;0.0765;-0.8493;
870.6000;0.0879;-0.8108;
870.9000;0.0765;-0.8425;
871.2000;0.0749;-0.8380;
871.5000;0.0790;-0.8244;
871.8000;0.0741;-0.8425;
872.1000;0.0733;-0.8403;
872.4000;0.0741;-0.8471;
872.7000;0.0757;-0.8493;
873.0000;0.0741;-0.8561;
873.3000;0.0749;-0.8516;
873.6000;0.0757;-0.8471;
873.9000;0.0741;-0.8561;
874.2000;0.0757;-0.8471;
874.5000;0.0757;-0.8448;
874.8000;0.0741;-0.8403;
875.1000;0.0741;-0.8312;
875.4000;0.0724;-0.8380;
875.7000;0.0749;-0.8290;
876.0000;0.0757;-0.8244;
876.3000;0.0773;-0.8267;
876.6000;0.0708;-0.8403;
876.9000;0.0733;-0.8335;
877.2000;0.0733;-0.8516;
877.5000;0.0749;-0.8607;
877.8000;0.0733;-0.8675;
878.1000;0.0708;-0.8720;
878.4000;0.0765;-0.8584;
878.7000;0.0741;-0.8561;
879.0000;0.0741;-0.8493;
879.3000;0.0765;-0.8403;
879.6000;0.0749;-0.8403;
879.9000;0.0741;-0.8493;
880.2000;0.0749;-0.8493;
880.5000;0.0741;-0.8493;
880.8000;0.0806;-0.8335;
881.1000;0.0757;-0.8516;
881.4000;0.0700;-0.8584;
881.7000;0.0757;-0.8471;
882.0000;0.0765;-0.8516;
882.3000;0.0741;-0.8493;
882.6000;0.0708;-0.8539;
882.9000;0.0741;-0.8425;
883.2000;0.0733;-0.8471;
883.5000;0.0790;-0.8403;
883.8000;0.0741;-0.8539;
884.1000;0.0700;-0.8629;
884.4000;0.0757;-0.8471;
884.7000;0.0724;-0.8561;
885.0000;0.0749;-0.8403;
885.3000;0.0749;-0.8380;
885.6000;0.0724;-0.8425;
885.9000;0.0667;-0.8629;
886.2000;0.0733;-0.8493;
886.5000;0.0659;-0.8652;
886.8000;0.0806;-0.8244;
887.1000;0.0716;-0.8539;
887.4000;0.0773;-0.8403;
887.7000;0.0765;-0.8448;
888.0000;0.0757;-0.8425;
888.3000;0.0733;-0.8448;
888.6000;0.0765;-0.8312;
888.9000;0.0741;-0.8290;
889.2000;0.0765;-0.8244;
889.5000;0.0798;-0.8154;
889.8000;0.0757;-0.8244;
890.1000;0.0765;-0.8176;
890.4000;0.0749;-0.8176;
890.7000;0.0749;-0.8199;
891.0000;0.0708;-0.8335;
891.3000;0.0749;-0.8244;
891.6000;0.0749;-0.8244;
891.9000;0.0773;-0.8199;
892.2000;0.0757;-0.8244;
892.5000;0.0757;-0.8290;
892.8000;0.0765;-0.8244;
893.1000;0.0765;-0.8199;
893.4000;0.0781;-0.8176;
893.7000;0.0741;-0.8335;
894.0000;0.0749;-0.8358;
894.3000;0.0724;-0.8403;
894.6000;0.0757;-0.8358;
894.9000;0.0741;-0.8358;
895.2000;0.0741;-0.8358;
895.5000;0.0700;-0.8448;
895.8000;0.0765;-0.8290;
896.1000;0.0724;-0.8380;
896.4000;0.0700;-0.8561;
896.7000;0.0838;-0.8244;
897.0000;0.0773;-0.8403;
897.3000;0.0765;-0.8403;
897.6000;0.0741;-0.8516;
897.9000;0.0741;-0.8471;
898.2000;0.0757;-0.8380;
898.5000;0.0806;-0.8267;
898.8000;0.0749;-0.8403;
899.1000;0.0733;-0.8425;
899.4000;0.0749;-0.8403;
899.7000;0.0798;-0.8244;
900.0000;0.0724;-0.8471;
900.3000;0.0716;-0.8516;
900.6000;0.0757;-0.8448;
900.9000;0.0781;-0.8380;
901.2000;0.0749;-0.8448;
901.5000;0.0749;-0.8380;
901.8000;0.0749;-0.8425;
902.1000;0.0733;-0.8448;
902.4000;0.0806;-0.8244;
902.7000;0.0724;-0.8448;
903.0000;0.0708;-0.8471;
903.3000;0.0749;-0.8358;
903.6000;0.0757;-0.8380;
903.9000;0.0838;-0.8131;
904.2000;0.0692;-0.8448;
904.5000;0.0749;-0.8380;
904.8000;0.0724;-0.8471;
905.1000;0.0757;-0.8358;
905.4000;0.0741;-0.8493;
905.7000;0.0749;-0.8471;
906.0000;0.0724;-0.8561;
906.3000;0.0733;-0.8629;
906.6000;0.0765;-0.8539;
906.9000;0.0741;-0.8516;
907.2000;0.0749;-0.8539;
907.5000;0.0855;-0.8222;
907.8000;0.0749;-0.8493;
908.1000;0.0733;-0.8539;
908.4000;0.0724;-0.8516;
908.7000;0.0773;-0.8425;
909.0000;0.0781;-0.8358;
909.3000;0.0741;-0.8516;
909.6000;0.0708;-0.8561;
909.9000;0.0749;-0.8493;
910.2000;0.0757;-0.8448;
910.5000;0.0749;-0.8471;
910.8000;0.0733;-0.8561;
911.1000;0.0765;-0.8471;
911.4000;0.0741;-0.8493;
911.7000;0.0757;-0.8493;
912.0000;0.0684;-0.8675;
912.3000;0.0765;-0.8561;
912.6000;0.0749;-0.8629;
912.9000;0.0741;-0.8652;
913.2000;0.0749;-0.8561;
913.5000;0.0733;-0.8584;
913.8000;0.0765;-0.8471;
914.1000;0.0765;-0.8516;
914.4000;0.0708;-0.8561;
914.7000;0.0757;-0.8448;
915.0000;0.0741;-0.8493;
915.3000;0.0749;-0.8516;
915.6000;0.0757;-0.8471;
915.9000;0.0708;-0.8561;
916.2000;0.0741;-0.8425;
916.5000;0.0765;-0.8380;
916.8000;0.0700;-0.8561;
917.1000;0.0700;-0.8539;
917.4000;0.0765;-0.8403;
917.7000;0.0733;-0.8471;
918.0000;0.0790;-0.8425;
918.3000;0.0700;-0.8539;
918.6000;0.0790;-0.8358;
918.9000;0.0635;-0.8720;
919.2000;0.0765;-0.8380;
919.5000;0.0749;-0.8493;
919.8000;0.0684;-0.8652;
920.1000;0.0733;-0.8471;
920.4000;0.0765;-0.8448;
920.7000;0.0757;-0.8471;
921.0000;0.0741;-0.8493;
921.3000;0.0749;-0.8358;
921.6000;0.0806;-0.8267;
921.9000;0.0708;-0.8471;
922.2000;0.0724;-0.8539;
922.5000;0.0741;-0.8561;
922.8000;0.0798;-0.8471;
923.1000;0.0749;-0.8539;
923.4000;0.0733;-0.8493;
923.7000;0.0847;-0.8335;
924.0000;0.0667;-0.8697;
924.3000;0.0765;-0.8471;
924.6000;0.0741;-0.8471;
924.9000;0.0765;-0.8425;
925.2000;0.0757;-0.8403;
925.5000;0.0741;-0.8403;
925.8000;0.0781;-0.8358;
926.1000;0.0749;-0.8539;
926.4000;0.0667;-0.8743;
926.7000;0.0773;-0.8448;
927.0000;0.0741;-0.8516;
927.3000;0.0822;-0.8267;
927.6000;0.0757;-0.8335;
927.9000;0.0806;-0.8176;
928.2000;0.0757;-0.8244;
928.5000;0.0757;-0.8222;
928.8000;0.0757;-0.8290;
929.1000;0.0741;-0.8448;
929.4000;0.0733;-0.8493;
929.7000;0.0659;-0.8743;
930.0000;0.0757;-0.8493;
930.3000;0.0765;-0.8516;
930.6000;0.0724;-0.8584;
930.9000;0.0757;-0.8471;
931.2000;0.0757;-0.8471;
931.5000;0.0822;-0.8380;
931.8000;0.0757;-0.8380;
932.1000;0.0741;-0.8403;
932.4000;0.0749;-0.8448;
932.7000;0.0757;-0.8425;
933.0000;0.0806;-0.8222;
933.3000;0.0741;-0.8312;
933.6000;0.0773;-0.8222;
933.9000;0.0708;-0.8425;
934.2000;0.0741;-0.8403;
934.5000;0.0757;-0.8425;
934.8000;0.0708;-0.8607;
935.1000;0.0757;-0.8448;
935.4000;0.0773;-0.8380;
935.7000;0.0716;-0.8561;
936.0000;0.0855;-0.8290;
936.3000;0.0733;-0.8561;
936.6000;0.0749;-0.8493;
936.9000;0.0749;-0.8539;
937.2000;0.0749;-0.8607;
937.5000;0.0749;-0.8652;
937.8000;0.0741;-0.8743;
938.1000;0.0733;-0.8765;
938.4000;0.0749;-0.8720;
938.7000;0.0749;-0.8607;
939.0000;0.0773;-0.8561;
939.3000;0.0765;-0.8652;
939.6000;0.0659;-0.8878;
939.9000;0.0757;-0.8516;
940.2000;0.0733;-0.8561;
940.5000;0.0798;-0.8516;
940.8000;0.0765;-0.8584;
941.1000;0.0724;-0.8539;
941.4000;0.0749;-0.8403;
941.7000;0.0741;-0.8403;
942.0000;0.0724;-0.8358;
942.3000;0.0733;-0.8380;
942.6000;0.0602;-0.8675;
942.9000;0.0651;-0.8584;
943.2000;0.0749;-0.8448;
943.5000;0.0749;-0.8448;
943.8000;0.0692;-0.8584;
944.1000;0.0757;-0.8335;
944.4000;0.0741;-0.8358;
944.7000;0.0814;-0.8312;
945.0000;0.0733;-0.8403;
945.3000;0.0757;-0.8335;
945.6000;0.0749;-0.8312;
945.9000;0.0749;-0.8335;
946.2000;0.0749;-0.8335;
946.5000;0.0741;-0.8380;
946.8000;0.0716;-0.8471;
947.1000;0.0724;-0.8380;
947.4000;0.0708;-0.8380;
947.7000;0.0765;-0.8244;
948.0000;0.0749;-0.8312;
948.3000;0.0790;-0.8222;
948.6000;0.0733;-0.8380;
948.9000;0.0757;-0.8312;
949.2000;0.0798;-0.8176;
949.5000;0.0741;-0.8290;
949.8000;0.0806;-0.8131;
950.1000;0.0773;-0.8267;
950.4000;0.0749;-0.8403;
950.7000;0.0757;-0.8358;
951.0000;0.0765;-0.8335;
951.3000;0.0749;-0.8493;
951.6000;0.0741;-0.8403;
951.9000;0.0749;-0.8425;
952.2000;0.0749;-0.8358;
952.5000;0.0765;-0.8358;
952.8000;0.0757;-0.8312;
953.1000;0.0749;-0.8267;
953.4000;0.0741;-0.8335;
953.7000;0.0749;-0.8403;
954.0000;0.0741;-0.8380;
954.3000;0.0781;-0.8290;
954.6000;0.0757;-0.8425;
954.9000;0.0741;-0.8403;
955.2000;0.0757;-0.8335;
955.5000;0.0757;-0.8199;
955.8000;0.0741;-0.8222;
956.1000;0.0741;-0.8176;
956.4000;0.0757;-0.8199;
956.7000;0.0822;-0.8108;
957.0000;0.0757;-0.8267;
957.3000;0.0847;-0.8018;
957.6000;0.0733;-0.8131;
957.9000;0.0749;-0.8018;
958.2000;0.0741;-0.7995;
958.5000;0.0781;-0.7882;
958.8000;0.0724;-0.8018;
959.1000;0.0741;-0.8018;
959.4000;0.0749;-0.8086;
959.7000;0.0733;-0.8199;
960.0000;0.0822;-0.7972;
960.3000;0.0708;-0.8244;
960.6000;0.0741;-0.8131;
960.9000;0.0765;-0.8063;
961.2000;0.0749;-0.8018;
961.5000;0.0765;-0.7950;
961.8000;0.0724;-0.8131;
962.1000;0.0765;-0.8086;
962.4000;0.0765;-0.8108;
962.7000;0.0741;-0.8063;
963.0000;0.0798;-0.8040;
963.3000;0.0790;-0.8063;
963.6000;0.0887;-0.7791;
963.9000;0.0781;-0.7995;
964.2000;0.0741;-0.8108;
964.5000;0.0806;-0.7995;
964.8000;0.0733;-0.8086;
965.1000;0.0741;-0.8154;
965.4000;0.0790;-0.8018;
965.7000;0.0749;-0.8108;
966.0000;0.0765;-0.8063;
966.3000;0.0741;-0.8086;
966.6000;0.0912;-0.7723;
966.9000;0.0733;-0.8154;
967.2000;0.0741;-0.8131;
967.5000;0.0798;-0.8040;
967.8000;0.0749;-0.8154;
968.1000;0.0733;-0.8086;
968.4000;0.0765;-0.7972;
968.7000;0.0765;-0.7995;
969.0000;0.0741;-0.8063;
969.3000;0.0765;-0.7972;
969.6000;0.0749;-0.8063;
969.9000;0.0765;-0.8086;
970.2000;0.0781;-0.8063;
970.5000;0.0765;-0.8176;
970.8000;0.0765;-0.8176;
971.1000;0.0757;-0.8290;
971.4000;0.0757;-0.8312;
971.7000;0.0724;-0.8403;
972.0000;0.0724;-0.8312;
972.3000;0.0741;-0.8290;
972.6000;0.0741;-0.8199;
972.9000;0.0733;-0.8267;
973.2000;0.0773;-0.8222;
973.5000;0.0765;-0.8222;
973.8000;0.0757;-0.8176;
974.1000;0.0741;-0.8108;
974.4000;0.0733;-0.8154;
974.7000;0.0765;-0.8154;
975.0000;0.0765;-0.8063;
975.3000;0.0733;-0.8199;
975.6000;0.0708;-0.8244;
975.9000;0.0749;-0.8154;
976.2000;0.0749;-0.8222;
976.5000;0.0724;-0.8244;
976.8000;0.0741;-0.8267;
977.1000;0.0741;-0.8267;
977.4000;0.0765;-0.8267;
977.7000;0.0749;-0.8335;
978.0000;0.0757;-0.8335;
978.3000;0.0749;-0.8335;
978.6000;0.0733;-0.8358;
978.9000;0.0830;-0.8222;
979.2000;0.0749;-0.8448;
979.5000;0.0838;-0.8312;
979.8000;0.0773;-0.8403;
980.1000;0.0733;-0.8493;
980.4000;0.0773;-0.8335;
980.7000;0.0733;-0.8358;
981.0000;0.0692;-0.8403;
981.3000;0.0716;-0.8380;
981.6000;0.0733;-0.8471;
981.9000;0.0733;-0.8471;
982.2000;0.0741;-0.8493;
982.5000;0.0757;-0.8493;
982.8000;0.0741;-0.8493;
983.1000;0.0724;-0.8471;
983.4000;0.0692;-0.8561;
983.7000;0.0781;-0.8222;
984.0000;0.0741;-0.8290;
984.3000;0.0773;-0.8176;
984.6000;0.0733;-0.8290;
984.9000;0.0773;-0.8176;
985.2000;0.0708;-0.8267;
985.5000;0.0814;-0.8063;
985.8000;0.0716;-0.8358;
986.1000;0.0749;-0.8290;
986.4000;0.0749;-0.8403;
986.7000;0.0757;-0.8425;
987.0000;0.0741;-0.8471;
987.3000;0.0741;-0.8425;
987.6000;0.0847;-0.8267;
987.9000;0.0757;-0.8471;
988.2000;0.0741;-0.8493;
988.5000;0.0757;-0.8539;
988.8000;0.0765;-0.8493;
989.1000;0.0749;-0.8539;
989.4000;0.0749;-0.8493;
989.7000;0.0733;-0.8561;
990.0000;0.0724;-0.8448;
990.3000;0.0724;-0.8312;
990.6000;0.0757;-0.8267;
990.9000;0.0749;-0.8312;
991.2000;0.0741;-0.8380;
991.5000;0.0716;-0.8471;
991.8000;0.0773;-0.8380;
992.1000;0.0741;-0.8403;
992.4000;0.0741;-0.8380;
992.7000;0.0757;-0.8267;
993.0000;0.0741;-0.8358;
993.3000;0.0765;-0.8335;
993.6000;0.0757;-0.8290;
993.9000;0.0765;-0.8335;
994.2000;0.0733;-0.8493;
994.5000;0.0733;-0.8471;
994.8000;0.0757;-0.8516;
995.1000;0.0757;-0.8493;
995.4000;0.0643;-0.8856;
995.7000;0.0667;-0.8833;
996.0000;0.0733;-0.8607;
996.3000;0.0765;-0.8471;
996.6000;0.0700;-0.8561;
996.9000;0.0659;-0.8697;
997.2000;0.0733;-0.8516;
997.5000;0.0724;-0.8516;
997.8000;0.0741;-0.8493;
998.1000;0.0749;-0.8516;
998.4000;0.0741;-0.8493;
998.7000;0.0749;-0.8493;
999.0000;0.0757;-0.8425;
999.3000;0.0749;-0.8380;
999.6000;0.0765;-0.8267;
999.9000;0.0765;-0.8222;
1000.2000;0.0749;-0.8290;
1000.5000;0.0708;-0.8380;
1000.8000;0.0781;-0.8176;
1001.1000;0.0757;-0.8222;
1001.4000;0.0741;-0.8267;
1001.7000;0.0749;-0.8222;
1002.0000;0.0765;-0.8267;
1002.3000;0.0741;-0.8312;
1002.6000;0.0749;-0.8267;
1002.9000;0.0749;-0.8244;
1003.2000;0.0741;-0.8335;
1003.5000;0.0773;-0.8244;
1003.8000;0.0611;-0.8561;
1004.1000;0.0733;-0.8290;
1004.4000;0.0708;-0.8312;
1004.7000;0.0773;-0.8108;
1005.0000;0.0757;-0.8154;
1005.3000;0.0724;-0.8244;
1005.6000;0.0741;-0.8244;
1005.9000;0.0741;-0.8312;
1006.2000;0.0749;-0.8290;
1006.5000;0.0684;-0.8244;
1006.8000;0.0749;-0.8108;
1007.1000;0.0741;-0.8131;
1007.4000;0.0741;-0.8086;
1007.7000;0.0757;-0.8154;
1008.0000;0.0700;-0.8244;
1008.3000;0.0741;-0.8108;
1008.6000;0.0757;-0.8108;
1008.9000;0.0741;-0.8267;
1009.2000;0.0692;-0.8380;
1009.5000;0.0765;-0.8222;
1009.8000;0.0741;-0.8290;
1010.1000;0.0749;-0.8290;
1010.4000;0.0724;-0.8380;
1010.7000;0.0692;-0.8425;
1011.0000;0.0749;-0.8380;
1011.3000;0.0724;-0.8358;
1011.6000;0.0904;-0.7950;
1011.9000;0.0708;-0.8403;
1012.2000;0.0741;-0.8448;
1012.5000;0.0724;-0.8561;
1012.8000;0.0749;-0.8403;
1013.1000;0.0757;-0.8358;
1013.4000;0.0733;-0.8358;
1013.7000;0.0757;-0.8244;
1014.0000;0.0765;-0.8222;
1014.3000;0.0749;-0.8222;
1014.6000;0.0733;-0.8290;
1014.9000;0.0765;-0.8244;
1015.2000;0.0716;-0.8448;
1015.5000;0.0757;-0.8471;
1015.8000;0.0716;-0.8539;
1016.1000;0.0757;-0.8380;
1016.4000;0.0741;-0.8403;
1016.7000;0.0741;-0.8471;
1017.0000;0.0741;-0.8380;
1017.3000;0.0741;-0.8290;
1017.6000;0.0741;-0.8244;
1017.9000;0.0749;-0.8244;
1018.2000;0.0757;-0.8222;
1018.5000;0.0708;-0.8335;
1018.8000;0.0798;-0.8176;
1019.1000;0.0765;-0.8267;
1019.4000;0.0904;-0.7950;
1019.7000;0.0814;-0.8199;
1020.0000;0.0765;-0.8267;
1020.3000;0.0757;-0.8312;
1020.6000;0.0757;-0.8335;
1020.9000;0.0741;-0.8358;
1021.2000;0.0716;-0.8380;
1021.5000;0.0733;-0.8312;
1021.8000;0.0773;-0.8335;
1022.1000;0.0733;-0.8448;
1022.4000;0.0708;-0.8584;
1022.7000;0.0741;-0.8335;
1023.0000;0.0765;-0.8244;
1023.3000;0.0741;-0.8290;
1023.6000;0.0733;-0.8358;
1023.9000;0.0773;-0.8244;
1024.2000;0.0716;-0.8471;
1024.5000;0.0724;-0.8539;
1024.8000;0.0773;-0.8358;
1025.1000;0.0741;-0.8403;
1025.4000;0.0757;-0.8403;
1025.7000;0.0765;-0.8448;
1026.0000;0.0741;-0.8561;
1026.3000;0.0741;-0.8516;
1026.6000;0.0684;-0.8561;
1026.9000;0.0724;-0.8425;
1027.2000;0.0733;-0.8403;
1027.5000;0.0716;-0.8493;
1027.8000;0.0708;-0.8539;
1028.1000;0.0765;-0.8358;
1028.4000;0.0765;-0.8312;
1028.7000;0.0724;-0.8403;
1029.0000;0.0830;-0.8176;
1029.3000;0.0757;-0.8312;
1029.6000;0.0733;-0.8335;
1029.9000;0.0627;-0.8561;
1030.2000;0.0733;-0.8358;
1030.5000;0.0757;-0.8290;
1030.8000;0.0749;-0.8290;
1031.1000;0.0749;-0.8244;
1031.4000;0.0798;-0.8108;
1031.7000;0.0773;-0.8267;
1032.0000;0.0733;-0.8335;
1032.3000;0.0741;-0.8267;
1032.6000;0.0749;-0.8267;
1032.9000;0.0733;-0.8290;
1033.2000;0.0741;-0.8244;
1033.5000;0.0733;-0.8199;
1033.8000;0.0741;-0.8176;
1034.1000;0.0757;-0.8199;
1034.4000;0.0855;-0.7950;
1034.7000;0.0773;-0.8176;
1035.0000;0.0749;-0.8312;
1035.3000;0.0765;-0.8358;
1035.6000;0.0765;-0.8312;
1035.9000;0.0716;-0.8358;
1036.2000;0.0871;-0.7927;
1036.5000;0.0757;-0.8199;
1036.8000;0.0741;-0.8222;
1037.1000;0.0749;-0.8244;
1037.4000;0.0716;-0.8290;
1037.7000;0.0798;-0.8108;
1038.0000;0.0733;-0.8335;
1038.3000;0.0741;-0.8380;
1038.6000;0.0741;-0.8425;
1038.9000;0.0741;-0.8471;
1039.2000;0.0765;-0.8425;
1039.5000;0.0741;-0.8493;
1039.8000;0.0773;-0.8403;
1040.1000;0.0749;-0.8448;
1040.4000;0.0716;-0.8471;
1040.7000;0.0700;-0.8561;
1041.0000;0.0716;-0.8493;
1041.3000;0.0749;-0.8403;
1041.6000;0.0716;-0.8516;
1041.9000;0.0724;-0.8471;
1042.2000;0.0781;-0.8335;
1042.5000;0.0741;-0.8448;
1042.8000;0.0741;-0.8493;
1043.1000;0.0765;-0.8493;
1043.4000;0.0741;-0.8607;
1043.7000;0.0773;-0.8493;
1044.0000;0.0733;-0.8584;
1044.3000;0.0724;-0.8607;
1044.6000;0.0781;-0.8471;
1044.9000;0.0724;-0.8561;
1045.2000;0.0733;-0.8493;
1045.5000;0.0765;-0.8312;
1045.8000;0.0749;-0.8312;
1046.1000;0.0741;-0.8312;
1046.4000;0.0716;-0.8358;
1046.7000;0.0757;-0.8290;
1047.0000;0.0741;-0.8380;
1047.3000;0.0716;-0.8380;
1047.6000;0.0741;-0.8312;
1047.9000;0.0733;-0.8403;
1048.2000;0.0741;-0.8448;
1048.5000;0.0700;-0.8539;
1048.8000;0.0749;-0.8403;
1049.1000;0.0765;-0.8290;
1049.4000;0.0741;-0.8335;
1049.7000;0.0765;-0.8380;
1050.0000;0.0741;-0.8425;
1050.3000;0.0724;-0.8425;
1050.6000;0.0757;-0.8335;
1050.9000;0.0773;-0.8222;
1051.2000;0.0741;-0.8358;
1051.5000;0.0724;-0.8403;
1051.8000;0.0733;-0.8312;
1052.1000;0.0749;-0.8267;
1052.4000;0.0724;-0.8290;
1052.7000;0.0741;-0.8267;
1053.0000;0.0749;-0.8267;
1053.3000;0.0806;-0.8086;
1053.6000;0.0741;-0.8199;
1053.9000;0.0790;-0.8086;
1054.2000;0.0741;-0.8199;
1054.5000;0.0757;-0.8154;
1054.8000;0.0741;-0.8199;
1055.1000;0.0757;-0.8199;
1055.4000;0.0822;-0.8063;
1055.7000;0.0790;-0.8154;
1056.0000;0.0741;-0.8290;
1056.3000;0.0611;-0.8584;
1056.6000;0.0749;-0.8267;
1056.9000;0.0724;-0.8290;
1057.2000;0.0757;-0.8199;
1057.5000;0.0749;-0.8176;
1057.8000;0.0741;-0.8222;
1058.1000;0.0733;-0.8244;
1058.4000;0.0773;-0.8063;
1058.7000;0.0765;-0.8040;
1059.0000;0.0741;-0.8086;
1059.3000;0.0724;-0.8176;
1059.6000;0.0733;-0.8108;
1059.9000;0.0741;-0.8131;
1060.2000;0.0757;-0.8154;
1060.5000;0.0733;-0.8244;
1060.8000;0.0863;-0.7972;
1061.1000;0.0749;-0.8244;
1061.4000;0.0716;-0.8403;
1061.7000;0.0757;-0.8290;
1062.0000;0.0749;-0.8222;
1062.3000;0.0749;-0.8244;
1062.6000;0.0749;-0.8290;
1062.9000;0.0749;-0.8335;
1063.2000;0.0749;-0.8335;
1063.5000;0.0757;-0.8290;
1063.8000;0.0733;-0.8312;
1064.1000;0.0757;-0.8290;
1064.4000;0.0757;-0.8358;
1064.7000;0.0765;-0.8448;
1065.0000;0.0733;-0.8652;
1065.3000;0.0757;-0.8516;
1065.6000;0.0741;-0.8539;
1065.9000;0.0741;-0.8584;
1066.2000;0.0757;-0.8516;
1066.5000;0.0741;-0.8516;
1066.8000;0.0741;-0.8403;
1067.1000;0.0741;-0.8425;
1067.4000;0.0733;-0.8448;
1067.7000;0.0733;-0.8335;
1068.0000;0.0724;-0.8403;
1068.3000;0.0724;-0.8403;
1068.6000;0.0749;-0.8290;
1068.9000;0.0757;-0.8290;
1069.2000;0.0724;-0.8312;
1069.5000;0.0562;-0.8765;
1069.8000;0.0790;-0.8222;
1070.1000;0.0765;-0.8380;
1070.4000;0.0806;-0.8244;
1070.7000;0.0741;-0.8335;
1071.0000;0.0749;-0.8425;
1071.3000;0.0749;-0.8380;
1071.6000;0.0733;-0.8403;
1071.9000;0.0749;-0.8425;
1072.2000;0.0765;-0.8380;
1072.5000;0.0749;-0.8335;
1072.8000;0.0741;-0.8244;
1073.1000;0.0733;-0.8267;
1073.4000;0.0765;-0.8176;
1073.7000;0.0798;-0.8040;
1074.0000;0.0757;-0.8244;
1074.3000;0.0741;-0.8290;
1074.6000;0.0847;-0.8131;
1074.9000;0.0757;-0.8358;
1075.2000;0.0749;-0.8358;
1075.5000;0.0757;-0.8312;
1075.8000;0.0733;-0.8290;
1076.1000;0.0749;-0.8244;
1076.4000;0.0659;-0.8471;
1076.7000;0.0765;-0.8199;
1077.0000;0.0757;-0.8290;
1077.3000;0.0700;-0.8471;
1077.6000;0.0790;-0.8244;
1077.9000;0.0724;-0.8312;
1078.2000;0.0708;-0.8358;
1078.5000;0.0765;-0.8290;
1078.8000;0.0773;-0.8290;
1079.1000;0.0749;-0.8312;
1079.4000;0.0781;-0.8176;
1079.7000;0.0912;-0.7814;
1080.0000;0.0765;-0.8222;
1080.3000;0.0822;-0.8244;
1080.6000;0.0798;-0.8199;
1080.9000;0.0749;-0.8312;
1081.2000;0.0814;-0.8131;
1081.5000;0.0773;-0.8131;
1081.8000;0.0749;-0.8176;
1082.1000;0.0602;-0.8516;
1082.4000;0.0757;-0.8108;
1082.7000;0.0879;-0.7950;
1083.0000;0.0724;-0.8358;
1083.3000;0.0724;-0.8312;
1083.6000;0.0733;-0.8335;
1083.9000;0.0741;-0.8312;
1084.2000;0.0741;-0.8335;
1084.5000;0.0757;-0.8267;
1084.8000;0.0757;-0.8176;
1085.1000;0.0692;-0.8403;
1085.4000;0.0781;-0.8222;
1085.7000;0.0716;-0.8335;
1086.0000;0.0684;-0.8471;
1086.3000;0.0741;-0.8380;
1086.6000;0.0733;-0.8335;
1086.9000;0.0741;-0.8358;
1087.2000;0.0716;-0.8403;
1087.5000;0.0757;-0.8358;
1087.8000;0.0741;-0.8403;
1088.1000;0.0741;-0.8312;
1088.4000;0.0741;-0.8335;
1088.7000;0.0749;-0.8358;
1089.0000;0.0724;-0.8403;
1089.3000;0.0716;-0.8358;
1089.6000;0.0765;-0.8176;
1089.9000;0.0773;-0.8176;
1090.2000;0.0757;-0.8222;
1090.5000;0.0700;-0.8267;
1090.8000;0.0773;-0.7995;
1091.1000;0.0749;-0.8154;
1091.4000;0.0765;-0.8086;
1091.7000;0.0814;-0.7995;
1092.0000;0.0757;-0.8131;
1092.3000;0.0716;-0.8199;
1092.6000;0.0773;-0.8108;
1092.9000;0.0790;-0.8086;
1093.2000;0.0741;-0.8222;
1093.5000;0.0724;-0.8290;
1093.8000;0.0781;-0.8222;
1094.1000;0.0765;-0.8380;
1094.4000;0.0741;-0.8380;
1094.7000;0.0765;-0.8290;
1095.0000;0.0741;-0.8312;
1095.3000;0.0733;-0.8335;
1095.6000;0.0757;-0.8267;
1095.9000;0.0749;-0.8176;
1096.2000;0.0733;-0.8154;
1096.5000;0.0749;-0.8176;
1096.8000;0.0798;-0.8086;
1097.1000;0.0814;-0.8108;
1097.4000;0.0773;-0.8176;
1097.7000;0.0708;-0.8290;
1098.0000;0.0757;-0.8244;
1098.3000;0.0724;-0.8222;
1098.6000;0.0684;-0.8335;
1098.9000;0.0708;-0.8290;
1099.2000;0.0765;-0.8154;
1099.5000;0.0733;-0.8290;
1099.8000;0.0733;-0.8312;
1100.1000;0.0724;-0.8312;
1100.4000;0.0757;-0.8267;
1100.7000;0.0741;-0.8290;
1101.0000;0.0757;-0.8312;
1101.3000;0.0741;-0.8425;
1101.6000;0.0749;-0.8403;
1101.9000;0.0724;-0.8493;
1102.2000;0.0741;-0.8539;
1102.5000;0.0733;-0.8607;
1102.8000;0.0716;-0.8697;
1103.1000;0.0749;-0.8539;
1103.4000;0.0822;-0.8312;
1103.7000;0.0781;-0.8290;
1104.0000;0.0692;-0.8516;
1104.3000;0.0773;-0.8290;
1104.6000;0.0741;-0.8312;
1104.9000;0.0733;-0.8358;
1105.2000;0.0765;-0.8244;
1105.5000;0.0741;-0.8312;
1105.8000;0.0659;-0.8448;
1106.1000;0.0773;-0.8131;
1106.4000;0.0733;-0.8154;
1106.7000;0.0627;-0.8312;
1107.0000;0.0765;-0.7950;
1107.3000;0.0741;-0.8018;
1107.6000;0.0708;-0.8063;
1107.9000;0.0733;-0.7905;
1108.2000;0.0741;-0.7972;
1108.5000;0.0773;-0.7972;
1108.8000;0.0724;-0.8086;
1109.1000;0.0741;-0.8063;
1109.4000;0.0733;-0.7995;
1109.7000;0.0676;-0.8154;
1110.0000;0.0741;-0.8063;
1110.3000;0.0733;-0.8154;
1110.6000;0.0757;-0.8154;
1110.9000;0.0724;-0.8312;
1111.2000;0.0724;-0.8290;
1111.5000;0.0749;-0.8222;
1111.8000;0.0863;-0.7905;
1112.1000;0.0749;-0.8244;
1112.4000;0.0708;-0.8380;
1112.7000;0.0724;-0.8267;
1113.0000;0.0684;-0.8403;
1113.3000;0.0757;-0.8244;
1113.6000;0.0749;-0.8290;
1113.9000;0.0790;-0.8290;
1114.2000;0.0757;-0.8312;
1114.5000;0.0749;-0.8358;
1114.8000;0.0790;-0.8267;
1115.1000;0.0733;-0.8448;
1115.4000;0.0659;-0.8629;
1115.7000;0.0838;-0.8176;
1116.0000;0.0741;-0.8358;
1116.3000;0.0733;-0.8493;
1116.6000;0.0724;-0.8493;
1116.9000;0.0757;-0.8425;
1117.2000;0.0741;-0.8471;
1117.5000;0.0749;-0.8403;
1117.8000;0.0676;-0.8539;
1118.1000;0.0741;-0.8471;
1118.4000;0.0733;-0.8561;
1118.7000;0.0733;-0.8584;
1119.0000;0.0700;-0.8607;
1119.3000;0.0749;-0.8539;
1119.6000;0.0749;-0.8471;
1119.9000;0.0790;-0.8312;
1120.2000;0.0790;-0.8290;
1120.5000;0.0741;-0.8380;
1120.8000;0.0765;-0.8312;
1121.1000;0.0749;-0.8358;
1121.4000;0.0733;-0.8380;
1121.7000;0.0741;-0.8267;
1122.0000;0.0749;-0.8267;
1122.3000;0.0733;-0.8380;
1122.6000;0.0733;-0.8290;
1122.9000;0.0741;-0.8290;
1123.2000;0.0741;-0.8267;
1123.5000;0.0773;-0.8222;
1123.8000;0.0757;-0.8267;
1124.1000;0.0733;-0.8267;
1124.4000;0.0716;-0.8290;
1124.7000;0.0749;-0.8199;
1125.0000;0.0716;-0.8290;
1125.3000;0.0765;-0.8131;
1125.6000;0.0765;-0.8108;
1125.9000;0.0733;-0.8222;
1126.2000;0.0741;-0.8222;
1126.5000;0.0741;-0.8244;
1126.8000;0.0757;-0.8176;
1127.1000;0.0676;-0.8290;
1127.4000;0.0765;-0.8086;
1127.7000;0.0749;-0.8108;
1128.0000;0.0733;-0.8131;
1128.3000;0.0749;-0.8176;
1128.6000;0.0708;-0.8244;
1128.9000;0.0773;-0.8222;
1129.2000;0.0659;-0.8493;
1129.5000;0.0757;-0.8335;
1129.8000;0.0749;-0.8335;
1130.1000;0.0765;-0.8244;
1130.4000;0.0700;-0.8403;
1130.7000;0.0708;-0.8403;
1131.0000;0.0757;-0.8222;
1131.3000;0.0749;-0.8312;
1131.6000;0.0741;-0.8267;
1131.9000;0.0757;-0.8267;
1132.2000;0.0716;-0.8358;
1132.5000;0.0741;-0.8312;
1132.8000;0.0716;-0.8267;
1133.1000;0.0684;-0.8312;
1133.4000;0.0749;-0.8108;
1133.7000;0.0765;-0.8063;
1134.0000;0.0733;-0.8154;
1134.3000;0.0692;-0.8222;
1134.6000;0.0757;-0.8108;
1134.9000;0.0700;-0.8267;
1135.2000;0.0790;-0.8063;
1135.5000;0.0733;-0.8176;
1135.8000;0.0676;-0.8335;
1136.1000;0.0773;-0.8063;
1136.4000;0.0733;-0.8086;
1136.7000;0.0814;-0.7927;
1137.0000;0.0749;-0.8222;
1137.3000;0.0749;-0.8131;
1137.6000;0.0741;-0.8131;
1137.9000;0.0708;-0.8154;
1138.2000;0.0749;-0.7995;
1138.5000;0.0822;-0.7837;
1138.8000;0.0773;-0.8040;
1139.1000;0.0676;-0.8199;
1139.4000;0.0773;-0.7927;
1139.7000;0.0741;-0.8018;
1140.0000;0.0741;-0.8018;
1140.3000;0.0749;-0.7995;
1140.6000;0.0667;-0.8312;
1140.9000;0.0733;-0.8222;
1141.2000;0.0757;-0.8176;
1141.5000;0.0733;-0.8154;
1141.8000;0.0716;-0.8108;
1142.1000;0.0733;-0.8063;
1142.4000;0.0790;-0.7927;
1142.7000;0.0733;-0.8086;
1143.0000;0.0863;-0.7859;
1143.3000;0.0741;-0.8131;
1143.6000;0.0619;-0.8539;
1143.9000;0.0724;-0.8222;
1144.2000;0.0757;-0.7972;
1144.5000;0.0798;-0.7814;
1144.8000;0.0757;-0.7882;
1145.1000;0.0733;-0.7905;
1145.4000;0.0798;-0.7837;
1145.7000;0.0733;-0.8040;
1146.0000;0.0749;-0.7995;
1146.3000;0.0724;-0.8086;
1146.6000;0.0741;-0.8086;
1146.9000;0.0765;-0.8040;
1147.2000;0.0749;-0.8086;
1147.5000;0.0855;-0.7814;
1147.8000;0.0741;-0.8154;
1148.1000;0.0667;-0.8312;
1148.4000;0.0749;-0.8154;
1148.7000;0.0741;-0.8290;
1149.0000;0.0733;-0.8290;
1149.3000;0.0830;-0.8018;
1149.6000;0.0741;-0.8267;
1149.9000;0.0781;-0.8335;
1150.2000;0.0765;-0.8403;
1150.5000;0.0733;-0.8493;
1150.8000;0.0651;-0.8697;
1151.1000;0.0757;-0.8403;
1151.4000;0.0733;-0.8403;
1151.7000;0.0765;-0.8267;
1152.0000;0.0733;-0.8312;
1152.3000;0.0724;-0.8403;
1152.6000;0.0700;-0.8539;
1152.9000;0.0733;-0.8403;
1153.2000;0.0741;-0.8312;
1153.5000;0.0741;-0.8380;
1153.8000;0.0659;-0.8697;
1154.1000;0.0724;-0.8584;
1154.4000;0.0741;-0.8584;
1154.7000;0.0757;-0.8493;
1155.0000;0.0716;-0.8561;
1155.3000;0.0749;-0.8380;
1155.6000;0.0757;-0.8267;
1155.9000;0.0757;-0.8290;
1156.2000;0.0733;-0.8176;
1156.5000;0.0749;-0.8108;
1156.8000;0.0798;-0.8040;
1157.1000;0.0716;-0.8222;
1157.4000;0.0733;-0.8086;
1157.7000;0.0667;-0.8290;
1158.0000;0.0733;-0.8176;
1158.3000;0.0749;-0.8154;
1158.6000;0.0741;-0.8244;
1158.9000;0.0798;-0.8222;
1159.2000;0.0814;-0.8131;
1159.5000;0.0724;-0.8267;
1159.8000;0.0692;-0.8290;
1160.1000;0.0749;-0.8154;
1160.4000;0.0765;-0.8131;
1160.7000;0.0741;-0.8176;
1161.0000;0.0773;-0.8154;
1161.3000;0.0741;-0.8290;
1161.6000;0.0781;-0.8244;
1161.9000;0.0798;-0.8154;
1162.2000;0.0716;-0.8312;
1162.5000;0.0716;-0.8290;
1162.8000;0.0765;-0.8199;
1163.1000;0.0749;-0.8312;
1163.4000;0.0749;-0.8267;
1163.7000;0.0733;-0.8290;
1164.0000;0.0716;-0.8335;
1164.3000;0.0765;-0.8290;
1164.6000;0.0765;-0.8244;
1164.9000;0.0749;-0.8380;
1165.2000;0.0765;-0.8267;
1165.5000;0.0757;-0.8335;
1165.8000;0.0733;-0.8380;
1166.1000;0.0708;-0.8403;
1166.4000;0.0749;-0.8290;
1166.7000;0.0741;-0.8312;
1167.0000;0.0733;-0.8335;
1167.3000;0.0741;-0.8335;
1167.6000;0.0749;-0.8380;
1167.9000;0.0749;-0.8312;
1168.2000;0.0724;-0.8312;
1168.5000;0.0724;-0.8312;
1168.8000;0.0781;-0.8131;
1169.1000;0.0749;-0.8267;
1169.4000;0.0773;-0.8199;
1169.7000;0.0684;-0.8493;
1170.0000;0.0847;-0.8063;
1170.3000;0.0757;-0.8380;
1170.6000;0.0757;-0.8425;
1170.9000;0.0724;-0.8607;
1171.2000;0.0724;-0.8652;
1171.5000;0.0871;-0.8290;
1171.8000;0.0741;-0.8607;
1172.1000;0.0749;-0.8516;
1172.4000;0.0659;-0.8629;
1172.7000;0.0659;-0.8516;
1173.0000;0.0724;-0.8358;
1173.3000;0.0749;-0.8222;
1173.6000;0.0749;-0.8176;
1173.9000;0.0757;-0.8199;
1174.2000;0.0741;-0.8154;
1174.5000;0.0741;-0.8199;
1174.8000;0.0757;-0.8199;
1175.1000;0.0659;-0.8358;
1175.4000;0.0692;-0.8222;
1175.7000;0.0749;-0.8086;
1176.0000;0.0716;-0.8176;
1176.3000;0.0773;-0.8040;
1176.6000;0.0773;-0.7995;
1176.9000;0.0757;-0.7972;
1177.2000;0.0716;-0.8131;
1177.5000;0.0765;-0.8131;
1177.8000;0.0602;-0.8539;
1178.1000;0.0741;-0.8244;
1178.4000;0.0749;-0.8312;
1178.7000;0.0724;-0.8380;
1179.0000;0.0798;-0.8267;
1179.3000;0.0757;-0.8335;
1179.6000;0.0741;-0.8403;
1179.9000;0.0749;-0.8335;
1180.2000;0.0863;-0.8063;
1180.5000;0.0749;-0.8358;
1180.8000;0.0790;-0.8222;
1181.1000;0.0749;-0.8358;
1181.4000;0.0733;-0.8335;
1181.7000;0.0781;-0.8176;
1182.0000;0.0790;-0.8244;
1182.3000;0.0724;-0.8290;
1182.6000;0.0733;-0.8267;
1182.9000;0.0749;-0.8244;
1183.2000;0.0838;-0.7972;
1183.5000;0.0741;-0.8176;
1183.8000;0.0733;-0.8222;
1184.1000;0.0757;-0.8086;
1184.4000;0.0749;-0.8108;
1184.7000;0.0757;-0.8063;
1185.0000;0.0749;-0.8108;
1185.3000;0.0716;-0.8267;
1185.6000;0.0749;-0.8176;
1185.9000;0.0724;-0.8267;
1186.2000;0.0749;-0.8154;
1186.5000;0.0838;-0.7950;
1186.8000;0.0757;-0.8108;
1187.1000;0.0749;-0.8154;
1187.4000;0.0741;-0.8154;
1187.7000;0.0716;-0.8290;
1188.0000;0.0741;-0.8222;
1188.3000;0.0757;-0.8199;
1188.6000;0.0733;-0.8199;
1188.9000;0.0749;-0.8154;
1189.2000;0.0733;-0.8222;
1189.5000;0.0749;-0.8358;
1189.8000;0.0749;-0.8335;
1190.1000;0.0741;-0.8290;
1190.4000;0.0724;-0.8425;
1190.7000;0.0708;-0.8471;
1191.0000;0.0684;-0.8629;
1191.3000;0.0741;-0.8425;
1191.6000;0.0749;-0.8425;
1191.9000;0.0741;-0.8471;
1192.2000;0.0741;-0.8471;
1192.5000;0.0724;-0.8493;
1192.8000;0.0765;-0.8290;
1193.1000;0.0749;-0.8290;
1193.4000;0.0741;-0.8290;
1193.7000;0.0798;-0.8199;
1194.0000;0.0757;-0.8335;
1194.3000;0.0790;-0.8222;
1194.6000;0.0757;-0.8290;
1194.9000;0.0757;-0.8312;
1195.2000;0.0708;-0.8516;
1195.5000;0.0667;-0.8607;
1195.8000;0.0741;-0.8380;
1196.1000;0.0733;-0.8403;
1196.4000;0.0749;-0.8403;
1196.7000;0.0749;-0.8448;
1197.0000;0.0765;-0.8448;
1197.3000;0.0724;-0.8493;
1197.6000;0.0749;-0.8403;
1197.9000;0.0724;-0.8493;
1198.2000;0.0765;-0.8425;
1198.5000;0.0757;-0.8471;
1198.8000;0.0765;-0.8380;
1199.1000;0.0749;-0.8358;
1199.4000;0.0724;-0.8448;
1199.7000;0.0757;-0.8448;
1200.0000;0.0765;-0.8448;
1200.3000;0.0749;-0.8561;
1200.6000;0.0757;-0.8516;
1200.9000;0.0733;-0.8471;
1201.2000;0.0708;-0.8561;
1201.5000;0.0749;-0.8335;
1201.8000;0.0724;-0.8448;
1202.1000;0.0757;-0.8380;
1202.4000;0.0741;-0.8425;
1202.7000;0.0724;-0.8425;
1203.0000;0.0765;-0.8312;
1203.3000;0.0741;-0.8312;
1203.6000;0.0749;-0.8154;
1203.9000;0.0651;-0.8335;
1204.2000;0.0757;-0.8222;
1204.5000;0.0749;-0.8154;
1204.8000;0.0814;-0.7950;
1205.1000;0.0757;-0.8063;
1205.4000;0.0741;-0.8131;
1205.7000;0.0765;-0.8040;
1206.0000;0.0781;-0.8063;
1206.3000;0.0887;-0.7791;
1206.6000;0.0741;-0.8040;
1206.9000;0.0773;-0.7927;
1207.2000;0.0822;-0.7814;
1207.5000;0.0749;-0.8040;
1207.8000;0.0733;-0.8063;
1208.1000;0.0708;-0.8290;
1208.4000;0.0773;-0.8131;
1208.7000;0.0692;-0.8380;
1209.0000;0.0700;-0.8380;
1209.3000;0.0749;-0.8199;
1209.6000;0.0643;-0.8493;
1209.9000;0.0765;-0.8335;
1210.2000;0.0773;-0.8380;
1210.5000;0.0733;-0.8539;
1210.8000;0.0781;-0.8493;
1211.1000;0.0741;-0.8584;
1211.4000;0.0708;-0.8629;
1211.7000;0.0749;-0.8471;
1212.0000;0.0741;-0.8403;
1212.3000;0.0741;-0.8380;
1212.6000;0.0667;-0.8584;
1212.9000;0.0724;-0.8380;
1213.2000;0.0871;-0.7972;
1213.5000;0.0724;-0.8312;
1213.8000;0.0749;-0.8290;
1214.1000;0.0765;-0.8267;
1214.4000;0.0741;-0.8335;
1214.7000;0.0667;-0.8584;
1215.0000;0.0741;-0.8358;
1215.3000;0.0724;-0.8358;
1215.6000;0.0814;-0.8108;
1215.9000;0.0765;-0.8199;
1216.2000;0.0757;-0.8222;
1216.5000;0.0781;-0.8199;
1216.8000;0.0724;-0.8267;
1217.1000;0.0757;-0.8244;
1217.4000;0.0749;-0.8222;
1217.7000;0.0757;-0.8131;
1218.0000;0.0749;-0.8108;
1218.3000;0.0749;-0.8176;
1218.6000;0.0749;-0.8131;
1218.9000;0.0716;-0.8335;
1219.2000;0.0749;-0.8244;
1219.5000;0.0757;-0.8222;
1219.8000;0.0757;-0.8312;
1220.1000;0.0741;-0.8380;
1220.4000;0.0741;-0.8380;
1220.7000;0.0757;-0.8312;
1221.0000;0.0741;-0.8290;
1221.3000;0.0741;-0.8222;
1221.6000;0.0757;-0.8199;
1221.9000;0.0724;-0.8244;
1222.2000;0.0733;-0.8244;
1222.5000;0.0757;-0.8199;
1222.8000;0.0716;-0.8199;
1223.1000;0.0749;-0.8108;
1223.4000;0.0724;-0.8244;
1223.7000;0.0741;-0.8222;
1224.0000;0.0757;-0.8222;
1224.3000;0.0757;-0.8176;
1224.6000;0.0733;-0.8222;
1224.9000;0.0741;-0.8222;
1225.2000;0.0757;-0.8176;
1225.5000;0.0757;-0.8222;
1225.8000;0.0798;-0.8108;
1226.1000;0.0765;-0.8290;
1226.4000;0.0724;-0.8403;
1226.7000;0.0773;-0.8335;
1227.0000;0.0733;-0.8380;
1227.3000;0.0749;-0.8358;
1227.6000;0.0773;-0.8222;
1227.9000;0.0749;-0.8176;
1228.2000;0.0773;-0.8222;
1228.5000;0.0757;-0.8244;
1228.8000;0.0781;-0.8199;
1229.1000;0.0724;-0.8335;
1229.4000;0.0757;-0.8290;
1229.7000;0.0773;-0.8222;
1230.0000;0.0757;-0.8267;
1230.3000;0.0741;-0.8267;
1230.6000;0.0733;-0.8290;
1230.9000;0.0814;-0.8086;
1231.2000;0.0806;-0.8176;
1231.5000;0.0627;-0.8561;
1231.8000;0.0757;-0.8267;
1232.1000;0.0692;-0.8380;
1232.4000;0.0741;-0.8290;
1232.7000;0.0708;-0.8425;
1233.0000;0.0594;-0.8652;
1233.3000;0.0651;-0.8539;
1233.6000;0.0765;-0.8244;
1233.9000;0.0627;-0.8607;
1234.2000;0.0749;-0.8312;
1234.5000;0.0757;-0.8222;
1234.8000;0.0749;-0.8267;
1235.1000;0.0798;-0.8176;
1235.4000;0.0790;-0.8199;
1235.7000;0.0765;-0.8154;
1236.0000;0.0773;-0.8108;
1236.3000;0.0765;-0.8244;
1236.6000;0.0684;-0.8448;
1236.9000;0.0700;-0.8471;
1237.2000;0.0733;-0.8448;
1237.5000;0.0741;-0.8403;
1237.8000;0.0781;-0.8358;
1238.1000;0.0757;-0.8448;
1238.4000;0.0741;-0.8471;
1238.7000;0.0659;-0.8675;
1239.0000;0.0741;-0.8335;
1239.3000;0.0741;-0.8222;
1239.6000;0.0830;-0.7972;
1239.9000;0.0757;-0.8108;
1240.2000;0.0757;-0.8086;
1240.5000;0.0749;-0.8086;
1240.8000;0.0765;-0.8018;
1241.1000;0.0757;-0.8063;
1241.4000;0.0635;-0.8380;
1241.7000;0.0724;-0.8176;
1242.0000;0.0716;-0.8176;
1242.3000;0.0716;-0.8176;
1242.6000;0.0749;-0.8108;
1242.9000;0.0749;-0.8131;
1243.2000;0.0724;-0.8176;
1243.5000;0.0749;-0.8176;
1243.8000;0.0733;-0.8335;
1244.1000;0.0741;-0.8403;
1244.4000;0.0741;-0.8425;
1244.7000;0.0749;-0.8403;
1245.0000;0.0798;-0.8290;
1245.3000;0.0749;-0.8448;
1245.6000;0.0757;-0.8448;
1245.9000;0.0741;-0.8471;
1246.2000;0.0749;-0.8425;
1246.5000;0.0773;-0.8358;
1246.8000;0.0733;-0.8471;
1247.1000;0.0765;-0.8358;
1247.4000;0.0781;-0.8222;
1247.7000;0.0733;-0.8267;
1248.0000;0.0716;-0.8403;
1248.3000;0.0741;-0.8358;
1248.6000;0.0757;-0.8358;
1248.9000;0.0781;-0.8358;
1249.2000;0.0749;-0.8380;
1249.5000;0.0757;-0.8493;
1249.8000;0.0724;-0.8448;
1250.1000;0.0765;-0.8312;
1250.4000;0.0741;-0.8312;
1250.7000;0.0798;-0.8131;
1251.0000;0.0733;-0.8290;
1251.3000;0.0773;-0.8244;
1251.6000;0.0733;-0.8244;
1251.9000;0.0741;-0.8267;
1252.2000;0.0733;-0.8403;
1252.5000;0.0741;-0.8335;
1252.8000;0.0724;-0.8403;
1253.1000;0.0765;-0.8312;
1253.4000;0.0716;-0.8335;
1253.7000;0.0733;-0.8267;
1254.0000;0.0814;-0.8108;
1254.3000;0.0757;-0.8244;
1254.6000;0.0757;-0.8199;
1254.9000;0.0781;-0.8131;
1255.2000;0.0733;-0.8222;
1255.5000;0.0741;-0.8154;
1255.8000;0.0757;-0.8154;
1256.1000;0.0814;-0.8063;
1256.4000;0.0757;-0.8290;
1256.7000;0.0733;-0.8380;
1257.0000;0.0724;-0.8290;
1257.3000;0.0692;-0.8358;
1257.6000;0.0773;-0.8199;
1257.9000;0.0733;-0.8290;
1258.2000;0.0643;-0.8539;
1258.5000;0.0757;-0.8222;
1258.8000;0.0741;-0.8267;
1259.1000;0.0716;-0.8244;
1259.4000;0.0757;-0.8131;
1259.7000;0.0708;-0.8222;
1260.0000;0.0790;-0.7972;
1260.3000;0.0749;-0.8131;
1260.6000;0.0798;-0.8040;
1260.9000;0.0700;-0.8222;
1261.2000;0.0765;-0.8131;
1261.5000;0.0830;-0.7972;
1261.8000;0.0749;-0.8290;
1262.1000;0.0716;-0.8312;
1262.4000;0.0741;-0.8176;
1262.7000;0.0741;-0.8176;
1263.0000;0.0765;-0.8086;
1263.3000;0.0781;-0.8063;
1263.6000;0.0733;-0.8154;
1263.9000;0.0741;-0.8154;
1264.2000;0.0757;-0.8199;
1264.5000;0.0749;-0.8199;
1264.8000;0.0741;-0.8312;
1265.1000;0.0716;-0.8290;
1265.4000;0.0741;-0.8267;
1265.7000;0.0749;-0.8312;
1266.0000;0.0765;-0.8244;
1266.3000;0.0708;-0.8335;
1266.6000;0.0790;-0.8154;
1266.9000;0.0749;-0.8176;
1267.2000;0.0790;-0.8131;
1267.5000;0.0781;-0.8108;
1267.8000;0.0733;-0.8154;
1268.1000;0.0724;-0.8244;
1268.4000;0.0765;-0.8154;
1268.7000;0.0806;-0.8040;
1269.0000;0.0724;-0.8244;
1269.3000;0.0798;-0.8018;
1269.6000;0.0749;-0.8108;
1269.9000;0.0757;-0.8199;
1270.2000;0.0781;-0.8199;
1270.5000;0.0765;-0.8312;
1270.8000;0.0855;-0.8154;
1271.1000;0.0741;-0.8380;
1271.4000;0.0741;-0.8358;
1271.7000;0.0765;-0.8335;
1272.0000;0.0749;-0.8358;
1272.3000;0.0757;-0.8403;
1272.6000;0.0733;-0.8448;
1272.9000;0.0741;-0.8380;
1273.2000;0.0741;-0.8290;
1273.5000;0.0741;-0.8244;
1273.8000;0.0814;-0.8063;
1274.1000;0.0757;-0.8063;
1274.4000;0.0765;-0.8176;
1274.7000;0.0724;-0.8267;
1275.0000;0.0749;-0.8267;
1275.3000;0.0757;-0.8244;
1275.6000;0.0741;-0.8335;
1275.9000;0.0757;-0.8267;
1276.2000;0.0667;-0.8471;
1276.5000;0.0724;-0.8290;
1276.8000;0.0733;-0.8267;
1277.1000;0.0700;-0.8335;
1277.4000;0.0757;-0.8176;
1277.7000;0.0708;-0.8312;
1278.0000;0.0806;-0.8063;
1278.3000;0.0724;-0.8290;
1278.6000;0.0692;-0.8380;
1278.9000;0.0741;-0.8335;
1279.2000;0.0749;-0.8222;
1279.5000;0.0635;-0.8516;
1279.8000;0.0724;-0.8290;
1280.1000;0.0741;-0.8222;
1280.4000;0.0765;-0.8086;
1280.7000;0.0749;-0.8086;
1281.0000;0.0765;-0.8154;
1281.3000;0.0757;-0.8176;
1281.6000;0.0733;-0.8176;
1281.9000;0.0741;-0.8154;
1282.2000;0.0733;-0.8222;
1282.5000;0.0627;-0.8493;
1282.8000;0.0741;-0.8154;
1283.1000;0.0708;-0.8244;
1283.4000;0.0749;-0.8154;
1283.7000;0.0781;-0.8063;
1284.0000;0.0733;-0.8199;
1284.3000;0.0749;-0.8222;
1284.6000;0.0757;-0.8244;
1284.9000;0.0724;-0.8312;
1285.2000;0.0757;-0.8244;
1285.5000;0.0790;-0.8222;
1285.8000;0.0667;-0.8471;
1286.1000;0.0790;-0.8267;
1286.4000;0.0781;-0.8335;
1286.7000;0.0724;-0.8516;
1287.0000;0.0781;-0.8358;
1287.3000;0.0790;-0.8290;
1287.6000;0.0757;-0.8448;
1287.9000;0.0667;-0.8584;
1288.2000;0.0757;-0.8290;
1288.5000;0.0708;-0.8403;
1288.8000;0.0765;-0.8244;
1289.1000;0.0716;-0.8403;
1289.4000;0.0741;-0.8403;
1289.7000;0.0773;-0.8335;
1290.0000;0.0798;-0.8380;
1290.3000;0.0781;-0.8425;
1290.6000;0.0749;-0.8425;
1290.9000;0.0741;-0.8471;
1291.2000;0.0651;-0.8697;
1291.5000;0.0716;-0.8471;
1291.8000;0.0733;-0.8358;
1292.1000;0.0724;-0.8335;
1292.4000;0.0741;-0.8335;
1292.7000;0.0651;-0.8561;
1293.0000;0.0757;-0.8290;
1293.3000;0.0765;-0.8290;
1293.6000;0.0765;-0.8335;
1293.9000;0.0749;-0.8448;
1294.2000;0.0741;-0.8335;
1294.5000;0.0724;-0.8471;
1294.8000;0.0741;-0.8448;
1295.1000;0.0749;-0.8493;
1295.4000;0.0765;-0.8493;
1295.7000;0.0708;-0.8607;
1296.0000;0.0765;-0.8448;
1296.3000;0.0765;-0.8425;
1296.6000;0.0741;-0.8358;
1296.9000;0.0724;-0.8312;
1297.2000;0.0749;-0.8312;
1297.5000;0.0716;-0.8290;
1297.8000;0.0733;-0.8403;
1298.1000;0.0741;-0.8358;
1298.4000;0.0749;-0.8312;
1298.7000;0.0904;-0.7927;
1299.0000;0.0749;-0.8335;
1299.3000;0.0806;-0.8154;
1299.6000;0.0757;-0.8244;
1299.9000;0.0781;-0.8244;
1300.2000;0.0757;-0.8380;
1300.5000;0.0749;-0.8425;
1300.8000;0.0814;-0.8244;
1301.1000;0.0741;-0.8448;
1301.4000;0.0773;-0.8335;
1301.7000;0.0724;-0.8493;
1302.0000;0.0798;-0.8222;
1302.3000;0.0602;-0.8675;
1302.6000;0.0806;-0.8108;
1302.9000;0.0765;-0.8244;
1303.2000;0.0635;-0.8561;
1303.5000;0.0757;-0.8335;
1303.8000;0.0741;-0.8335;
1304.1000;0.0724;-0.8335;
1304.4000;0.0741;-0.8267;
1304.7000;0.0781;-0.8267;
1305.0000;0.0749;-0.8267;
1305.3000;0.0773;-0.8154;
1305.6000;0.0741;-0.8222;
1305.9000;0.0781;-0.8086;
1306.2000;0.0749;-0.8199;
1306.5000;0.0733;-0.8267;
1306.8000;0.0724;-0.8380;
1307.1000;0.0741;-0.8403;
1307.4000;0.0749;-0.8358;
1307.7000;0.0757;-0.8290;
1308.0000;0.0749;-0.8312;
1308.3000;0.0757;-0.8290;
1308.6000;0.0724;-0.8358;
1308.9000;0.0757;-0.8244;
1309.2000;0.0724;-0.8335;
1309.5000;0.0773;-0.8267;
1309.8000;0.0749;-0.8312;
1310.1000;0.0733;-0.8335;
1310.4000;0.0741;-0.8267;
1310.7000;0.0733;-0.8312;
1311.0000;0.0741;-0.8312;
1311.3000;0.0814;-0.8131;
1311.6000;0.0757;-0.8267;
1311.9000;0.0765;-0.8290;
1312.2000;0.0716;-0.8403;
1312.5000;0.0773;-0.8267;
1312.8000;0.0741;-0.8380;
1313.1000;0.0733;-0.8290;
1313.4000;0.0757;-0.8290;
1313.7000;0.0773;-0.8290;
1314.0000;0.0692;-0.8403;
1314.3000;0.0716;-0.8312;
1314.6000;0.0749;-0.8244;
1314.9000;0.0724;-0.8267;
1315.2000;0.0757;-0.8176;
1315.5000;0.0741;-0.8290;
1315.8000;0.0765;-0.8267;
1316.1000;0.0757;-0.8244;
1316.4000;0.0781;-0.8154;
1316.7000;0.0757;-0.8131;
1317.0000;0.0724;-0.8244;
1317.3000;0.0749;-0.8154;
1317.6000;0.0798;-0.7995;
1317.9000;0.0749;-0.8154;
1318.2000;0.0733;-0.8267;
1318.5000;0.0749;-0.8222;
1318.8000;0.0708;-0.8312;
1319.1000;0.0741;-0.8086;
1319.4000;0.0741;-0.8199;
1319.7000;0.0733;-0.8267;
1320.0000;0.0790;-0.8244;
1320.3000;0.0781;-0.8267;
1320.6000;0.0733;-0.8267;
1320.9000;0.0700;-0.8267;
1321.2000;0.0749;-0.8222;
1321.5000;0.0749;-0.8176;
1321.8000;0.0708;-0.8267;
1322.1000;0.0749;-0.8154;
1322.4000;0.0708;-0.8290;
1322.7000;0.0757;-0.8267;
1323.0000;0.0757;-0.8267;
1323.3000;0.0716;-0.8358;
1323.6000;0.0708;-0.8448;
1323.9000;0.0741;-0.8380;
1324.2000;0.0765;-0.8448;
1324.5000;0.0749;-0.8425;
1324.8000;0.0757;-0.8335;
1325.1000;0.0741;-0.8380;
1325.4000;0.0733;-0.8312;
1325.7000;0.0733;-0.8290;
1326.0000;0.0749;-0.8335;
1326.3000;0.0749;-0.8290;
1326.6000;0.0716;-0.8290;
1326.9000;0.0708;-0.8290;
1327.2000;0.0733;-0.8154;
1327.5000;0.0757;-0.8086;
1327.8000;0.0716;-0.8154;
1328.1000;0.0643;-0.8358;
1328.4000;0.0757;-0.8086;
1328.7000;0.0749;-0.8086;
1329.0000;0.0741;-0.8108;
1329.3000;0.0741;-0.8086;
1329.6000;0.0773;-0.7995;
1329.9000;0.0733;-0.8199;
1330.2000;0.0749;-0.8290;
1330.5000;0.0749;-0.8380;
1330.8000;0.0733;-0.8380;
1331.1000;0.0741;-0.8290;
1331.4000;0.0781;-0.8267;
1331.7000;0.0749;-0.8380;
1332.0000;0.0741;-0.8380;
1332.3000;0.0749;-0.8380;
1332.6000;0.0733;-0.8448;
1332.9000;0.0749;-0.8335;
1333.2000;0.0765;-0.8335;
1333.5000;0.0741;-0.8358;
1333.8000;0.0741;-0.8335;
1334.1000;0.0733;-0.8335;
1334.4000;0.0733;-0.8312;
1334.7000;0.0741;-0.8267;
1335.0000;0.0838;-0.8018;
1335.3000;0.0765;-0.8108;
1335.6000;0.0724;-0.8154;
1335.9000;0.0757;-0.8108;
1336.2000;0.0724;-0.8199;
1336.5000;0.0757;-0.8108;
1336.8000;0.0741;-0.8176;
1337.1000;0.0716;-0.8244;
1337.4000;0.0733;-0.8199;
1337.7000;0.0757;-0.8176;
1338.0000;0.0765;-0.8176;
1338.3000;0.0733;-0.8244;
1338.6000;0.0814;-0.8131;
1338.9000;0.0724;-0.8312;
1339.2000;0.0716;-0.8290;
1339.5000;0.0708;-0.8358;
1339.8000;0.0733;-0.8290;
1340.1000;0.0765;-0.8244;
1340.4000;0.0741;-0.8312;
1340.7000;0.0733;-0.8358;
1341.0000;0.0749;-0.8290;
1341.3000;0.0733;-0.8290;
1341.6000;0.0700;-0.8380;
1341.9000;0.0790;-0.8176;
1342.2000;0.0716;-0.8312;
1342.5000;0.0741;-0.8176;
1342.8000;0.0749;-0.8176;
1343.1000;0.0781;-0.8018;
1343.4000;0.0700;-0.8176;
1343.7000;0.0757;-0.8086;
1344.0000;0.0733;-0.8199;
1344.3000;0.0724;-0.8222;
1344.6000;0.0757;-0.8154;
1344.9000;0.0716;-0.8244;
1345.2000;0.0741;-0.8244;
1345.5000;0.0749;-0.8222;
1345.8000;0.0757;-0.8267;
1346.1000;0.0773;-0.8267;
1346.4000;0.0741;-0.8335;
1346.7000;0.0749;-0.8176;
1347.0000;0.0765;-0.8063;
1347.3000;0.0773;-0.7995;
1347.6000;0.0733;-0.8244;
1347.9000;0.0790;-0.8131;
1348.2000;0.0749;-0.8222;
1348.5000;0.0757;-0.8222;
1348.8000;0.0749;-0.8267;
1349.1000;0.0806;-0.8176;
1349.4000;0.0749;-0.8244;
1349.7000;0.0741;-0.8335;
1350.0000;0.0757;-0.8335;
1350.3000;0.0733;-0.8335;
1350.6000;0.0684;-0.8425;
1350.9000;0.0749;-0.8176;
1351.2000;0.0920;-0.7814;
1351.5000;0.0741;-0.8244;
1351.8000;0.0749;-0.8222;
1352.1000;0.0765;-0.8199;
1352.4000;0.0757;-0.8176;
1352.7000;0.0676;-0.8380;
1353.0000;0.0749;-0.8176;
1353.3000;0.0733;-0.8199;
1353.6000;0.0757;-0.8222;
1353.9000;0.0765;-0.8199;
1354.2000;0.0659;-0.8425;
1354.5000;0.0733;-0.8222;
1354.8000;0.0749;-0.8176;
1355.1000;0.0684;-0.8380;
1355.4000;0.0733;-0.8244;
1355.7000;0.0749;-0.8176;
1356.0000;0.0724;-0.8267;
1356.3000;0.0733;-0.8267;
1356.6000;0.0733;-0.8290;
1356.9000;0.0741;-0.8380;
1357.2000;0.0724;-0.8448;
1357.5000;0.0733;-0.8403;
1357.8000;0.0684;-0.8471;
1358.1000;0.0716;-0.8312;
1358.4000;0.0733;-0.8244;
1358.7000;0.0749;-0.8222;
1359.0000;0.0716;-0.8312;
1359.3000;0.0741;-0.8199;
1359.6000;0.0757;-0.8222;
1359.9000;0.0733;-0.8335;
1360.2000;0.0757;-0.8244;
1360.5000;0.0757;-0.8199;
1360.8000;0.0773;-0.8199;
1361.1000;0.0651;-0.8561;
1361.4000;0.0716;-0.8403;
1361.7000;0.0757;-0.8335;
1362.0000;0.0741;-0.8290;
1362.3000;0.0757;-0.8222;
1362.6000;0.0741;-0.8222;
1362.9000;0.0765;-0.8131;
1363.2000;0.0806;-0.7950;
1363.5000;0.0741;-0.8040;
1363.8000;0.0822;-0.7950;
1364.1000;0.0757;-0.8063;
1364.4000;0.0749;-0.8108;
1364.7000;0.0741;-0.8131;
1365.0000;0.0749;-0.8199;
1365.3000;0.0749;-0.8176;
1365.6000;0.0700;-0.8290;
1365.9000;0.0757;-0.8108;
1366.2000;0.0749;-0.8086;
1366.5000;0.0773;-0.7927;
1366.8000;0.0757;-0.8018;
1367.1000;0.0757;-0.8108;
1367.4000;0.0765;-0.8154;
1367.7000;0.0741;-0.8222;
1368.0000;0.0757;-0.8108;
1368.3000;0.0733;-0.8290;
1368.6000;0.0749;-0.8290;
1368.9000;0.0765;-0.8312;
1369.2000;0.0741;-0.8380;
1369.5000;0.0773;-0.8312;
1369.8000;0.0773;-0.8244;
1370.1000;0.0790;-0.8176;
1370.4000;0.0757;-0.8244;
1370.7000;0.0781;-0.8199;
1371.0000;0.0790;-0.8199;
1371.3000;0.0830;-0.7995;
1371.6000;0.0757;-0.8131;
1371.9000;0.0741;-0.8222;
1372.2000;0.0749;-0.8290;
1372.5000;0.0749;-0.8244;
1372.8000;0.0741;-0.8380;
1373.1000;0.0749;-0.8335;
1373.4000;0.0749;-0.8290;
1373.7000;0.0749;-0.8222;
1374.0000;0.0749;-0.8244;
1374.3000;0.0659;-0.8471;
1374.6000;0.0765;-0.8199;
1374.9000;0.0659;-0.8403;
1375.2000;0.0773;-0.8108;
1375.5000;0.0724;-0.8154;
1375.8000;0.0724;-0.8154;
1376.1000;0.0733;-0.8176;
1376.4000;0.0757;-0.8176;
1376.7000;0.0757;-0.8244;
1377.0000;0.0757;-0.8290;
1377.3000;0.0757;-0.8312;
1377.6000;0.0749;-0.8403;
1377.9000;0.0741;-0.8471;
1378.2000;0.0733;-0.8358;
1378.5000;0.0724;-0.8335;
1378.8000;0.0716;-0.8358;
1379.1000;0.0724;-0.8403;
1379.4000;0.0733;-0.8380;
1379.7000;0.0741;-0.8358;
1380.0000;0.0749;-0.8335;
1380.3000;0.0741;-0.8267;
1380.6000;0.0749;-0.8335;
1380.9000;0.0749;-0.8312;
1381.2000;0.0765;-0.8199;
1381.5000;0.0757;-0.8199;
1381.8000;0.0749;-0.8244;
1382.1000;0.0667;-0.8358;
1382.4000;0.0741;-0.8131;
1382.7000;0.0724;-0.8154;
1383.0000;0.0733;-0.8131;
1383.3000;0.0741;-0.8086;
1383.6000;0.0749;-0.8063;
1383.9000;0.0749;-0.8086;
1384.2000;0.0757;-0.8108;
1384.5000;0.0765;-0.8108;
1384.8000;0.0814;-0.7927;
1385.1000;0.0749;-0.8131;
1385.4000;0.0773;-0.8154;
1385.7000;0.0724;-0.8267;
1386.0000;0.0757;-0.8176;
1386.3000;0.0749;-0.8108;
1386.6000;0.0749;-0.8108;
1386.9000;0.0733;-0.8086;
1387.2000;0.0733;-0.8131;
1387.5000;0.0733;-0.8154;
1387.8000;0.0741;-0.8176;
1388.1000;0.0724;-0.8176;
1388.4000;0.0757;-0.8063;
1388.7000;0.0733;-0.8176;
1389.0000;0.0749;-0.8018;
1389.3000;0.0749;-0.8018;
1389.6000;0.0749;-0.7995;
1389.9000;0.0741;-0.7995;
1390.2000;0.0757;-0.7995;
1390.5000;0.0749;-0.8086;
1390.8000;0.0757;-0.8018;
1391.1000;0.0716;-0.8086;
1391.4000;0.0741;-0.7972;
1391.7000;0.0757;-0.8018;
1392.0000;0.0700;-0.8244;
1392.3000;0.0741;-0.8063;
1392.6000;0.0724;-0.8040;
1392.9000;0.0741;-0.8040;
1393.2000;0.0765;-0.7950;
1393.5000;0.0773;-0.7950;
1393.8000;0.0757;-0.8040;
1394.1000;0.0765;-0.8018;
1394.4000;0.0741;-0.8018;
1394.7000;0.0724;-0.8086;
1395.0000;0.0724;-0.8131;
1395.3000;0.0757;-0.8086;
1395.6000;0.0676;-0.8222;
1395.9000;0.0757;-0.8018;
1396.2000;0.0757;-0.8063;
1396.5000;0.0708;-0.8244;
1396.8000;0.0749;-0.8244;
1397.1000;0.0733;-0.8312;
1397.4000;0.0757;-0.8267;
1397.7000;0.0733;-0.8312;
1398.0000;0.0790;-0.8131;
1398.3000;0.0741;-0.8244;
1398.6000;0.0773;-0.8222;
1398.9000;0.0700;-0.8425;
1399.2000;0.0716;-0.8358;
1399.5000;0.0733;-0.8312;
1399.8000;0.0643;-0.8471;
