time/ms;Fluo/V;P700 deltaI/I x10³;
-199.8000;0.0741;-0.8561;
-199.5000;0.0741;-0.8539;
-199.2000;0.0733;-0.8629;
-198.9000;0.0724;-0.8720;
-198.6000;0.0749;-0.8629;
-198.3000;0.0765;-0.8584;
-198.0000;0.0781;-0.8380;
-197.7000;0.0749;-0.8471;
-197.4000;0.0733;-0.8561;
-197.1000;0.0749;-0.8448;
-196.8000;0.0773;-0.8403;
-196.5000;0.0716;-0.8471;
-196.2000;0.0724;-0.8493;
-195.9000;0.0724;-0.8516;
-195.6000;0.0757;-0.8493;
-195.3000;0.0765;-0.8403;
-195.0000;0.0733;-0.8448;
-194.7000;0.0724;-0.8493;
-194.4000;0.0757;-0.8471;
-194.1000;0.0765;-0.8471;
-193.8000;0.0773;-0.8493;
-193.5000;0.0741;-0.8516;
-193.2000;0.0741;-0.8584;
-192.9000;0.0757;-0.8584;
-192.6000;0.0773;-0.8629;
-192.3000;0.0733;-0.8607;
-192.0000;0.0741;-0.8652;
-191.7000;0.0733;-0.8652;
-191.4000;0.0749;-0.8516;
-191.1000;0.0822;-0.8312;
-190.8000;0.0733;-0.8629;
-190.5000;0.0733;-0.8607;
-190.2000;0.0765;-0.8629;
-189.9000;0.0757;-0.8629;
-189.6000;0.0741;-0.8697;
-189.3000;0.0749;-0.8675;
-189.0000;0.0724;-0.8697;
-188.7000;0.0741;-0.8720;
-188.4000;0.0724;-0.8720;
-188.1000;0.0733;-0.8720;
-187.8000;0.0798;-0.8516;
-187.5000;0.0749;-0.8652;
-187.2000;0.0724;-0.8697;
-186.9000;0.0716;-0.8675;
-186.6000;0.0749;-0.8561;
-186.3000;0.0741;-0.8607;
-186.0000;0.0749;-0.8561;
-185.7000;0.0749;-0.8516;
-185.4000;0.0741;-0.8493;
-185.1000;0.0733;-0.8516;
-184.8000;0.0716;-0.8493;
-184.5000;0.0781;-0.8403;
-184.2000;0.0790;-0.8290;
-183.9000;0.0765;-0.8380;
-183.6000;0.0757;-0.8471;
-183.3000;0.0749;-0.8539;
-183.0000;0.0716;-0.8584;
-182.7000;0.0757;-0.8584;
-182.4000;0.0741;-0.8697;
-182.1000;0.0773;-0.8629;
-181.8000;0.0749;-0.8675;
-181.5000;0.0733;-0.8697;
-181.2000;0.0757;-0.8675;
-180.9000;0.0733;-0.8765;
-180.6000;0.0724;-0.8810;
-180.3000;0.0765;-0.8675;
-180.0000;0.0741;-0.8675;
-179.7000;0.0765;-0.8629;
-179.4000;0.0749;-0.8561;
-179.1000;0.0798;-0.8539;
-178.8000;0.0757;-0.8675;
-178.5000;0.0773;-0.8652;
-178.2000;0.0757;-0.8561;
-177.9000;0.0765;-0.8493;
-177.6000;0.0749;-0.8539;
-177.3000;0.0733;-0.8652;
-177.0000;0.0741;-0.8607;
-176.7000;0.0757;-0.8629;
-176.4000;0.0741;-0.8629;
-176.1000;0.0749;-0.8607;
-175.8000;0.0733;-0.8675;
-175.5000;0.0741;-0.8675;
-175.2000;0.0733;-0.8629;
-174.9000;0.0757;-0.8539;
-174.6000;0.0741;-0.8561;
-174.3000;0.0724;-0.8561;
-174.0000;0.0757;-0.8561;
-173.7000;0.0757;-0.8539;
-173.4000;0.0749;-0.8539;
-173.1000;0.0749;-0.8516;
-172.8000;0.0773;-0.8380;
-172.5000;0.0716;-0.8516;
-172.2000;0.0749;-0.8403;
-171.9000;0.0741;-0.8380;
-171.6000;0.0741;-0.8335;
-171.3000;0.0749;-0.8335;
-171.0000;0.0749;-0.8358;
-170.7000;0.0724;-0.8471;
-170.4000;0.0741;-0.8380;
-170.1000;0.0708;-0.8539;
-169.8000;0.0741;-0.8471;
-169.5000;0.0741;-0.8358;
-169.2000;0.0749;-0.8358;
-168.9000;0.0724;-0.8471;
-168.6000;0.0757;-0.8425;
-168.3000;0.0798;-0.8335;
-168.0000;0.0741;-0.8471;
-167.7000;0.0684;-0.8697;
-167.4000;0.0749;-0.8539;
-167.1000;0.0749;-0.8561;
-166.8000;0.0741;-0.8675;
-166.5000;0.0741;-0.8652;
-166.2000;0.0724;-0.8697;
-165.9000;0.0733;-0.8675;
-165.6000;0.0724;-0.8765;
-165.3000;0.0822;-0.8607;
-165.0000;0.0749;-0.8720;
-164.7000;0.0716;-0.8675;
-164.4000;0.0749;-0.8607;
-164.1000;0.0659;-0.8856;
-163.8000;0.0757;-0.8584;
-163.5000;0.0708;-0.8675;
-163.2000;0.0741;-0.8675;
-162.9000;0.0594;-0.8924;
-162.6000;0.0757;-0.8584;
-162.3000;0.0749;-0.8584;
-162.0000;0.0741;-0.8607;
-161.7000;0.0724;-0.8561;
-161.4000;0.0757;-0.8403;
-161.1000;0.0741;-0.8448;
-160.8000;0.0708;-0.8403;
-160.5000;0.0716;-0.8380;
-160.2000;0.0716;-0.8425;
-159.9000;0.0757;-0.8425;
-159.6000;0.0733;-0.8493;
-159.3000;0.0757;-0.8448;
-159.0000;0.0733;-0.8561;
-158.7000;0.0692;-0.8652;
-158.4000;0.0627;-0.8833;
-158.1000;0.0667;-0.8652;
-157.8000;0.0773;-0.8358;
-157.5000;0.0757;-0.8403;
-157.2000;0.0781;-0.8335;
-156.9000;0.0749;-0.8403;
-156.6000;0.0716;-0.8380;
-156.3000;0.0757;-0.8358;
-156.0000;0.0757;-0.8425;
-155.7000;0.0741;-0.8493;
-155.4000;0.0814;-0.8403;
-155.1000;0.0749;-0.8561;
-154.8000;0.0765;-0.8516;
-154.5000;0.0773;-0.8493;
-154.2000;0.0741;-0.8561;
-153.9000;0.0724;-0.8629;
-153.6000;0.0733;-0.8607;
-153.3000;0.0733;-0.8607;
-153.0000;0.0716;-0.8652;
-152.7000;0.0724;-0.8652;
-152.4000;0.0741;-0.8516;
-152.1000;0.0749;-0.8448;
-151.8000;0.0724;-0.8516;
-151.5000;0.0733;-0.8539;
-151.2000;0.0724;-0.8561;
-150.9000;0.0741;-0.8448;
-150.6000;0.0733;-0.8403;
-150.3000;0.0716;-0.8493;
-150.0000;0.0741;-0.8471;
-149.7000;0.0741;-0.8539;
-149.4000;0.0716;-0.8607;
-149.1000;0.0627;-0.8810;
-148.8000;0.0724;-0.8516;
-148.5000;0.0757;-0.8493;
-148.2000;0.0724;-0.8584;
-147.9000;0.0822;-0.8312;
-147.6000;0.0757;-0.8493;
-147.3000;0.0741;-0.8403;
-147.0000;0.0765;-0.8403;
-146.7000;0.0765;-0.8403;
-146.4000;0.0733;-0.8448;
-146.1000;0.0676;-0.8675;
-145.8000;0.0741;-0.8493;
-145.5000;0.0806;-0.8335;
-145.2000;0.0733;-0.8493;
-144.9000;0.0733;-0.8471;
-144.6000;0.0749;-0.8493;
-144.3000;0.0733;-0.8561;
-144.0000;0.0716;-0.8675;
-143.7000;0.0757;-0.8652;
-143.4000;0.0757;-0.8652;
-143.1000;0.0798;-0.8493;
-142.8000;0.0757;-0.8561;
-142.5000;0.0716;-0.8697;
-142.2000;0.0765;-0.8516;
-141.9000;0.0733;-0.8539;
-141.6000;0.0733;-0.8539;
-141.3000;0.0667;-0.8652;
-141.0000;0.0749;-0.8403;
-140.7000;0.0733;-0.8403;
-140.4000;0.0716;-0.8425;
-140.1000;0.0708;-0.8539;
-139.8000;0.0773;-0.8425;
-139.5000;0.0822;-0.8244;
-139.2000;0.0765;-0.8312;
-138.9000;0.0749;-0.8358;
-138.6000;0.0708;-0.8403;
-138.3000;0.0822;-0.8244;
-138.0000;0.0733;-0.8471;
-137.7000;0.0741;-0.8471;
-137.4000;0.0692;-0.8652;
-137.1000;0.0879;-0.8108;
-136.8000;0.0733;-0.8425;
-136.5000;0.0684;-0.8675;
-136.2000;0.0741;-0.8516;
-135.9000;0.0749;-0.8448;
-135.6000;0.0700;-0.8516;
-135.3000;0.0684;-0.8629;
-135.0000;0.0741;-0.8539;
-134.7000;0.0790;-0.8448;
-134.4000;0.0724;-0.8493;
-134.1000;0.0676;-0.8561;
-133.8000;0.0749;-0.8425;
-133.5000;0.0749;-0.8335;
-133.2000;0.0749;-0.8380;
-132.9000;0.0757;-0.8380;
-132.6000;0.0724;-0.8448;
-132.3000;0.0757;-0.8335;
-132.0000;0.0765;-0.8267;
-131.7000;0.0814;-0.8176;
-131.4000;0.0749;-0.8358;
-131.1000;0.0790;-0.8358;
-130.8000;0.0749;-0.8425;
-130.5000;0.0806;-0.8358;
-130.2000;0.0741;-0.8584;
-129.9000;0.0741;-0.8516;
-129.6000;0.0765;-0.8425;
-129.3000;0.0733;-0.8539;
-129.0000;0.0724;-0.8584;
-128.7000;0.0749;-0.8493;
-128.4000;0.0724;-0.8516;
-128.1000;0.0749;-0.8539;
-127.8000;0.0790;-0.8403;
-127.5000;0.0708;-0.8697;
-127.2000;0.0749;-0.8607;
-126.9000;0.0741;-0.8539;
-126.6000;0.0749;-0.8448;
-126.3000;0.0733;-0.8425;
-126.0000;0.0724;-0.8471;
-125.7000;0.0741;-0.8403;
-125.4000;0.0708;-0.8448;
-125.1000;0.0741;-0.8358;
-124.8000;0.0684;-0.8561;
-124.5000;0.0741;-0.8403;
-124.2000;0.0765;-0.8380;
-123.9000;0.0757;-0.8358;
-123.6000;0.0798;-0.8290;
-123.3000;0.0659;-0.8584;
-123.0000;0.0716;-0.8493;
-122.7000;0.0741;-0.8403;
-122.4000;0.0765;-0.8335;
-122.1000;0.0749;-0.8312;
-121.8000;0.0724;-0.8380;
-121.5000;0.0741;-0.8425;
-121.2000;0.0724;-0.8403;
-120.9000;0.0749;-0.8335;
-120.6000;0.0700;-0.8471;
-120.3000;0.0741;-0.8403;
-120.0000;0.0684;-0.8584;
-119.7000;0.0716;-0.8607;
-119.4000;0.0741;-0.8675;
-119.1000;0.0733;-0.8675;
-118.8000;0.0741;-0.8743;
-118.5000;0.0716;-0.8720;
-118.2000;0.0741;-0.8539;
-117.9000;0.0733;-0.8516;
-117.6000;0.0724;-0.8584;
-117.3000;0.0757;-0.8516;
-117.0000;0.0749;-0.8561;
-116.7000;0.0741;-0.8607;
-116.4000;0.0733;-0.8561;
-116.1000;0.0716;-0.8675;
-115.8000;0.0765;-0.8471;
-115.5000;0.0847;-0.8312;
-115.2000;0.0765;-0.8516;
-114.9000;0.0733;-0.8607;
-114.6000;0.0716;-0.8607;
-114.3000;0.0741;-0.8561;
-114.0000;0.0757;-0.8493;
-113.7000;0.0733;-0.8493;
-113.4000;0.0741;-0.8335;
-113.1000;0.0757;-0.8403;
-112.8000;0.0757;-0.8425;
-112.5000;0.0741;-0.8493;
-112.2000;0.0749;-0.8516;
-111.9000;0.0838;-0.8335;
-111.6000;0.0765;-0.8584;
-111.3000;0.0708;-0.8652;
-111.0000;0.0733;-0.8561;
-110.7000;0.0724;-0.8539;
-110.4000;0.0798;-0.8448;
-110.1000;0.0757;-0.8539;
-109.8000;0.0708;-0.8675;
-109.5000;0.0708;-0.8720;
-109.2000;0.0741;-0.8720;
-108.9000;0.0741;-0.8675;
-108.6000;0.0741;-0.8629;
-108.3000;0.0757;-0.8561;
-108.0000;0.0676;-0.8833;
-107.7000;0.0724;-0.8652;
-107.4000;0.0733;-0.8584;
-107.1000;0.0749;-0.8561;
-106.8000;0.0757;-0.8561;
-106.5000;0.0643;-0.8743;
-106.2000;0.0741;-0.8403;
-105.9000;0.0757;-0.8290;
-105.6000;0.0733;-0.8244;
-105.3000;0.0741;-0.8267;
-105.0000;0.0716;-0.8358;
-104.7000;0.0716;-0.8290;
-104.4000;0.0578;-0.8584;
-104.1000;0.0749;-0.8290;
-103.8000;0.0757;-0.8335;
-103.5000;0.0684;-0.8471;
-103.2000;0.0822;-0.8335;
-102.9000;0.0765;-0.8448;
-102.6000;0.0773;-0.8493;
-102.3000;0.0798;-0.8403;
-102.0000;0.0684;-0.8743;
-101.7000;0.0749;-0.8652;
-101.4000;0.0781;-0.8720;
-101.1000;0.0733;-0.8833;
-100.8000;0.0708;-0.8924;
-100.5000;0.0749;-0.8810;
-100.2000;0.0757;-0.8833;
-99.9000;0.0749;-0.8901;
-99.6000;0.0765;-0.8856;
-99.3000;0.0716;-0.8878;
-99.0000;0.0773;-0.8584;
-98.7000;0.0757;-0.8539;
-98.4000;0.0741;-0.8561;
-98.1000;0.0724;-0.8539;
-97.8000;0.0790;-0.8335;
-97.5000;0.0757;-0.8425;
-97.2000;0.0733;-0.8425;
-96.9000;0.0733;-0.8493;
-96.6000;0.0741;-0.8539;
-96.3000;0.0741;-0.8516;
-96.0000;0.0716;-0.8652;
-95.7000;0.0741;-0.8584;
-95.4000;0.0749;-0.8561;
-95.1000;0.0716;-0.8629;
-94.8000;0.0741;-0.8607;
-94.5000;0.0741;-0.8607;
-94.2000;0.0749;-0.8493;
-93.9000;0.0757;-0.8403;
-93.6000;0.0724;-0.8448;
-93.3000;0.0733;-0.8493;
-93.0000;0.0798;-0.8380;
-92.7000;0.0716;-0.8425;
-92.4000;0.0781;-0.8267;
-92.1000;0.0733;-0.8425;
-91.8000;0.0716;-0.8380;
-91.5000;0.0741;-0.8290;
-91.2000;0.0741;-0.8335;
-90.9000;0.0895;-0.8108;
-90.6000;0.0741;-0.8471;
-90.3000;0.0879;-0.8108;
-90.0000;0.0749;-0.8493;
-89.7000;0.0708;-0.8493;
-89.4000;0.0667;-0.8561;
-89.1000;0.0765;-0.8471;
-88.8000;0.0749;-0.8425;
-88.5000;0.0716;-0.8561;
-88.2000;0.0822;-0.8335;
-87.9000;0.0716;-0.8539;
-87.6000;0.0692;-0.8607;
-87.3000;0.0822;-0.8267;
-87.0000;0.0741;-0.8539;
-86.7000;0.0741;-0.8629;
-86.4000;0.0676;-0.8833;
-86.1000;0.0830;-0.8516;
-85.8000;0.0716;-0.8765;
-85.5000;0.0724;-0.8675;
-85.2000;0.0733;-0.8629;
-84.9000;0.0790;-0.8539;
-84.6000;0.0757;-0.8629;
-84.3000;0.0724;-0.8697;
-84.0000;0.0708;-0.8765;
-83.7000;0.0684;-0.8833;
-83.4000;0.0773;-0.8516;
-83.1000;0.0733;-0.8561;
-82.8000;0.0765;-0.8584;
-82.5000;0.0708;-0.8652;
-82.2000;0.0716;-0.8697;
-81.9000;0.0741;-0.8675;
-81.6000;0.0741;-0.8720;
-81.3000;0.0765;-0.8788;
-81.0000;0.0716;-0.8878;
-80.7000;0.0692;-0.8946;
-80.4000;0.0724;-0.8856;
-80.1000;0.0741;-0.8810;
-79.8000;0.0757;-0.8743;
-79.5000;0.0716;-0.8810;
-79.2000;0.0741;-0.8720;
-78.9000;0.0757;-0.8675;
-78.6000;0.0741;-0.8697;
-78.3000;0.0724;-0.8697;
-78.0000;0.0733;-0.8697;
-77.7000;0.0757;-0.8697;
-77.4000;0.0790;-0.8652;
-77.1000;0.0749;-0.8652;
-76.8000;0.0765;-0.8607;
-76.5000;0.0781;-0.8516;
-76.2000;0.0773;-0.8516;
-75.9000;0.0765;-0.8471;
-75.6000;0.0708;-0.8561;
-75.3000;0.0659;-0.8720;
-75.0000;0.0692;-0.8652;
-74.7000;0.0741;-0.8652;
-74.4000;0.0724;-0.8720;
-74.1000;0.0773;-0.8584;
-73.8000;0.0724;-0.8697;
-73.5000;0.0773;-0.8652;
-73.2000;0.0765;-0.8675;
-72.9000;0.0724;-0.8743;
-72.6000;0.0741;-0.8720;
-72.3000;0.0757;-0.8697;
-72.0000;0.0757;-0.8629;
-71.7000;0.0855;-0.8448;
-71.4000;0.0749;-0.8743;
-71.1000;0.0822;-0.8561;
-70.8000;0.0765;-0.8743;
-70.5000;0.0749;-0.8652;
-70.2000;0.0765;-0.8539;
-69.9000;0.0749;-0.8607;
-69.6000;0.0749;-0.8675;
-69.3000;0.0708;-0.8743;
-69.0000;0.0757;-0.8493;
-68.7000;0.0773;-0.8425;
-68.4000;0.0733;-0.8516;
-68.1000;0.0741;-0.8403;
-67.8000;0.0741;-0.8448;
-67.5000;0.0741;-0.8380;
-67.2000;0.0724;-0.8493;
-66.9000;0.0757;-0.8516;
-66.6000;0.0716;-0.8652;
-66.3000;0.0749;-0.8652;
-66.0000;0.0724;-0.8652;
-65.7000;0.0757;-0.8516;
-65.4000;0.0692;-0.8607;
-65.1000;0.0741;-0.8312;
-64.8000;0.0741;-0.8222;
-64.5000;0.0733;-0.8267;
-64.2000;0.0716;-0.8312;
-63.9000;0.0806;-0.8108;
-63.6000;0.0741;-0.8335;
-63.3000;0.0773;-0.8380;
-63.0000;0.0733;-0.8380;
-62.7000;0.0716;-0.8448;
-62.4000;0.0790;-0.8199;
-62.1000;0.0773;-0.8312;
-61.8000;0.0790;-0.8267;
-61.5000;0.0765;-0.8380;
-61.2000;0.0716;-0.8516;
-60.9000;0.0741;-0.8471;
-60.6000;0.0765;-0.8561;
-60.3000;0.0716;-0.8629;
-60.0000;0.0733;-0.8584;
-59.7000;0.0724;-0.8675;
-59.4000;0.0733;-0.8607;
-59.1000;0.0733;-0.8607;
-58.8000;0.0700;-0.8720;
-58.5000;0.0757;-0.8516;
-58.2000;0.0773;-0.8471;
-57.9000;0.0773;-0.8448;
-57.6000;0.0676;-0.8675;
-57.3000;0.0765;-0.8493;
-57.0000;0.0757;-0.8471;
-56.7000;0.0806;-0.8312;
-56.4000;0.0733;-0.8539;
-56.1000;0.0724;-0.8561;
-55.8000;0.0757;-0.8516;
-55.5000;0.0749;-0.8516;
-55.2000;0.0749;-0.8561;
-54.9000;0.0765;-0.8561;
-54.6000;0.0757;-0.8493;
-54.3000;0.0733;-0.8561;
-54.0000;0.0741;-0.8584;
-53.7000;0.0733;-0.8607;
-53.4000;0.0757;-0.8539;
-53.1000;0.0757;-0.8516;
-52.8000;0.0749;-0.8516;
-52.5000;0.0659;-0.8720;
-52.2000;0.0741;-0.8448;
-51.9000;0.0757;-0.8335;
-51.6000;0.0716;-0.8471;
-51.3000;0.0757;-0.8358;
-51.0000;0.0749;-0.8403;
-50.7000;0.0724;-0.8380;
-50.4000;0.0757;-0.8312;
-50.1000;0.0741;-0.8358;
-49.8000;0.0708;-0.8312;
-49.5000;0.0716;-0.8290;
-49.2000;0.0741;-0.8335;
-48.9000;0.0781;-0.8199;
-48.6000;0.0741;-0.8448;
-48.3000;0.0749;-0.8493;
-48.0000;0.0757;-0.8493;
-47.7000;0.0749;-0.8471;
-47.4000;0.0749;-0.8425;
-47.1000;0.0741;-0.8448;
-46.8000;0.0765;-0.8380;
-46.5000;0.0790;-0.8222;
-46.2000;0.0724;-0.8358;
-45.9000;0.0733;-0.8358;
-45.6000;0.0700;-0.8471;
-45.3000;0.0749;-0.8516;
-45.0000;0.0724;-0.8516;
-44.7000;0.0733;-0.8561;
-44.4000;0.0741;-0.8629;
-44.1000;0.0733;-0.8652;
-43.8000;0.0733;-0.8697;
-43.5000;0.0749;-0.8629;
-43.2000;0.0757;-0.8584;
-42.9000;0.0757;-0.8561;
-42.6000;0.0749;-0.8561;
-42.3000;0.0749;-0.8493;
-42.0000;0.0749;-0.8471;
-41.7000;0.0781;-0.8358;
-41.4000;0.0749;-0.8335;
-41.1000;0.0749;-0.8312;
-40.8000;0.0716;-0.8425;
-40.5000;0.0724;-0.8358;
-40.2000;0.0733;-0.8335;
-39.9000;0.0741;-0.8335;
-39.6000;0.0692;-0.8448;
-39.3000;0.0798;-0.8312;
-39.0000;0.0741;-0.8448;
-38.7000;0.0733;-0.8471;
-38.4000;0.0749;-0.8493;
-38.1000;0.0724;-0.8539;
-37.8000;0.0676;-0.8697;
-37.5000;0.0749;-0.8652;
-37.2000;0.0733;-0.8584;
-36.9000;0.0733;-0.8629;
-36.6000;0.0749;-0.8584;
-36.3000;0.0733;-0.8697;
-36.0000;0.0741;-0.8697;
-35.7000;0.0773;-0.8629;
-35.4000;0.0716;-0.8765;
-35.1000;0.0741;-0.8720;
-34.8000;0.0741;-0.8675;
-34.5000;0.0724;-0.8652;
-34.2000;0.0741;-0.8584;
-33.9000;0.0724;-0.8584;
-33.6000;0.0676;-0.8629;
-33.3000;0.0757;-0.8493;
-33.0000;0.0773;-0.8516;
-32.7000;0.0749;-0.8607;
-32.4000;0.0749;-0.8607;
-32.1000;0.0741;-0.8652;
-31.8000;0.0741;-0.8629;
-31.5000;0.0724;-0.8607;
-31.2000;0.0716;-0.8607;
-30.9000;0.0733;-0.8561;
-30.6000;0.0757;-0.8448;
-30.3000;0.0733;-0.8425;
-30.0000;0.0716;-0.8493;
-29.7000;0.0724;-0.8493;
-29.4000;0.0757;-0.8516;
-29.1000;0.0765;-0.8516;
-28.8000;0.0749;-0.8652;
-28.5000;0.0724;-0.8788;
-28.2000;0.0733;-0.8765;
-27.9000;0.0757;-0.8652;
-27.6000;0.0765;-0.8629;
-27.3000;0.0741;-0.8652;
-27.0000;0.0765;-0.8629;
-26.7000;0.0749;-0.8652;
-26.4000;0.0724;-0.8629;
-26.1000;0.0749;-0.8607;
-25.8000;0.0708;-0.8675;
-25.5000;0.0749;-0.8561;
-25.2000;0.0749;-0.8584;
-24.9000;0.0716;-0.8607;
-24.6000;0.0733;-0.8493;
-24.3000;0.0749;-0.8425;
-24.0000;0.0749;-0.8448;
-23.7000;0.0749;-0.8516;
-23.4000;0.0757;-0.8584;
-23.1000;0.0749;-0.8561;
-22.8000;0.0757;-0.8561;
-22.5000;0.0741;-0.8493;
-22.2000;0.0741;-0.8448;
-21.9000;0.0733;-0.8425;
-21.6000;0.0749;-0.8335;
-21.3000;0.0643;-0.8720;
-21.0000;0.0724;-0.8607;
-20.7000;0.0716;-0.8720;
-20.4000;0.0838;-0.8380;
-20.1000;0.0790;-0.8629;
-19.8000;0.0716;-0.8833;
-19.5000;0.0733;-0.8878;
-19.2000;0.0781;-0.8765;
-18.9000;0.0749;-0.8765;
-18.6000;0.0733;-0.8833;
-18.3000;0.0838;-0.8493;
-18.0000;0.0741;-0.8697;
-17.7000;0.0733;-0.8765;
-17.4000;0.0749;-0.8720;
-17.1000;0.0724;-0.8765;
-16.8000;0.0749;-0.8765;
-16.5000;0.0733;-0.8765;
-16.2000;0.0741;-0.8788;
-15.9000;0.0749;-0.8720;
-15.6000;0.0733;-0.8652;
-15.3000;0.0757;-0.8584;
-15.0000;0.0733;-0.8539;
-14.7000;0.0822;-0.8290;
-14.4000;0.0741;-0.8493;
-14.1000;0.0765;-0.8448;
-13.8000;0.0741;-0.8403;
-13.5000;0.0733;-0.8493;
-13.2000;0.0724;-0.8584;
-12.9000;0.0741;-0.8561;
-12.6000;0.0879;-0.8154;
-12.3000;0.0708;-0.8607;
-12.0000;0.0716;-0.8584;
-11.7000;0.0700;-0.8607;
-11.4000;0.0733;-0.8607;
-11.1000;0.0749;-0.8516;
-10.8000;0.0676;-0.8675;
-10.5000;0.0733;-0.8493;
-10.2000;0.0895;-0.8086;
-9.9000;0.0741;-0.8561;
-9.6000;0.0871;-0.8358;
-9.3000;0.0594;-0.9105;
-9.0000;0.0733;-0.8788;
-8.7000;0.0741;-0.8743;
-8.4000;0.0790;-0.8607;
-8.1000;0.0749;-0.8720;
-7.8000;0.0757;-0.8675;
-7.5000;0.0749;-0.8743;
-7.2000;0.0765;-0.8720;
-6.9000;0.0724;-0.8833;
-6.6000;0.0733;-0.8901;
-6.3000;0.0741;-0.8901;
-6.0000;0.0765;-0.8788;
-5.7000;0.0765;-0.8743;
-5.4000;0.0757;-0.8810;
-5.1000;0.0790;-0.8697;
-4.8000;0.0749;-0.8788;
-4.5000;0.0667;-0.9014;
-4.2000;0.0822;-0.8584;
-3.9000;0.0749;-0.8720;
-3.6000;0.0741;-0.8743;
-3.3000;0.0790;-0.8765;
-3.0000;0.0651;-0.9060;
-2.7000;0.0765;-0.8833;
-2.4000;0.0765;-0.8878;
-2.1000;0.0765;-0.8788;
-1.8000;0.0733;-0.8878;
-1.5000;0.0838;-0.8629;
-1.2000;0.0765;-0.8788;
-0.9000;0.0757;-0.8833;
-0.6000;0.0724;-0.8946;
-0.3000;0.0708;-0.9037;
0.0000;0.0708;-0.9037;
0.3000;0.0757;-0.9060;
0.6000;0.0733;-0.9037;
0.9000;0.0765;-0.8765;
1.2000;0.0781;-0.8584;
1.5000;0.0798;-0.8471;
1.8000;0.0838;-0.8312;
2.1000;0.0822;-0.8199;
2.4000;0.0871;-0.7950;
2.7000;0.0847;-0.8018;
3.0000;0.0863;-0.7950;
3.3000;0.0830;-0.7995;
3.6000;0.0822;-0.8040;
3.9000;0.0871;-0.7769;
4.2000;0.0838;-0.7723;
4.5000;0.0863;-0.7633;
4.8000;0.0855;-0.7655;
5.1000;0.0855;-0.7701;
5.4000;0.0871;-0.7655;
5.7000;0.0855;-0.7678;
6.0000;0.0863;-0.7655;
6.3000;0.0863;-0.7701;
6.6000;0.0912;-0.7633;
6.9000;0.0871;-0.7655;
7.2000;0.0920;-0.7610;
7.5000;0.0887;-0.7633;
7.8000;0.0871;-0.7678;
8.1000;0.0952;-0.7406;
8.4000;0.1001;-0.7248;
8.7000;0.0879;-0.7565;
9.0000;0.0863;-0.7587;
9.3000;0.0798;-0.7791;
9.6000;0.0871;-0.7565;
9.9000;0.0879;-0.7519;
10.2000;0.0912;-0.7519;
10.5000;0.0895;-0.7452;
10.8000;0.0871;-0.7497;
11.1000;0.0895;-0.7519;
11.4000;0.0879;-0.7474;
11.7000;0.0895;-0.7384;
12.0000;0.0879;-0.7474;
12.3000;0.0847;-0.7610;
12.6000;0.0879;-0.7565;
12.9000;0.0895;-0.7565;
13.2000;0.0904;-0.7565;
13.5000;0.0879;-0.7587;
13.8000;0.0895;-0.7452;
14.1000;0.0895;-0.7452;
14.4000;0.0928;-0.7406;
14.7000;0.0855;-0.7565;
15.0000;0.0887;-0.7452;
15.3000;0.0879;-0.7497;
15.6000;0.0895;-0.7406;
15.9000;0.0879;-0.7497;
16.2000;0.0871;-0.7497;
16.5000;0.0806;-0.7746;
16.8000;0.0895;-0.7542;
17.1000;0.0920;-0.7429;
17.4000;0.0944;-0.7429;
17.7000;0.0863;-0.7633;
18.0000;0.0879;-0.7655;
18.3000;0.0944;-0.7338;
18.6000;0.0887;-0.7519;
18.9000;0.0806;-0.7678;
19.2000;0.0912;-0.7406;
19.5000;0.0936;-0.7338;
19.8000;0.0863;-0.7497;
20.1000;0.0904;-0.7474;
20.4000;0.0912;-0.7429;
20.7000;0.0781;-0.7791;
21.0000;0.0879;-0.7610;
21.3000;0.0887;-0.7542;
21.6000;0.0887;-0.7519;
21.9000;0.0928;-0.7474;
22.2000;0.0847;-0.7723;
22.5000;0.0879;-0.7565;
22.8000;0.0790;-0.7859;
23.1000;0.0887;-0.7723;
23.4000;0.0871;-0.7791;
23.7000;0.0855;-0.7791;
24.0000;0.0912;-0.7610;
24.3000;0.0977;-0.7429;
24.6000;0.0887;-0.7701;
24.9000;0.0863;-0.7723;
25.2000;0.0863;-0.7633;
25.5000;0.0814;-0.7791;
25.8000;0.0871;-0.7655;
26.1000;0.0871;-0.7701;
26.4000;0.0920;-0.7587;
26.7000;0.0887;-0.7655;
27.0000;0.0912;-0.7633;
27.3000;0.0912;-0.7587;
27.6000;0.0904;-0.7565;
27.9000;0.0887;-0.7610;
28.2000;0.0912;-0.7587;
28.5000;0.0887;-0.7610;
28.8000;0.0912;-0.7633;
29.1000;0.0798;-0.7746;
29.4000;0.0895;-0.7542;
29.7000;0.0863;-0.7610;
30.0000;0.0961;-0.7384;
30.3000;0.0887;-0.7542;
30.6000;0.0879;-0.7542;
30.9000;0.0838;-0.7678;
31.2000;0.0904;-0.7565;
31.5000;0.0879;-0.7633;
31.8000;0.0879;-0.7633;
32.1000;0.0895;-0.7587;
32.4000;0.0814;-0.7791;
32.7000;0.0936;-0.7474;
33.0000;0.0887;-0.7587;
33.3000;0.0830;-0.7769;
33.6000;0.0895;-0.7655;
33.9000;0.0871;-0.7633;
34.2000;0.0944;-0.7384;
34.5000;0.0887;-0.7429;
34.8000;0.0887;-0.7497;
35.1000;0.0855;-0.7474;
35.4000;0.0838;-0.7565;
35.7000;0.0928;-0.7338;
36.0000;0.0887;-0.7384;
36.3000;0.0879;-0.7474;
36.6000;0.0879;-0.7474;
36.9000;0.0887;-0.7497;
37.2000;0.0895;-0.7452;
37.5000;0.0895;-0.7316;
37.8000;0.0871;-0.7361;
38.1000;0.0904;-0.7338;
38.4000;0.0895;-0.7316;
38.7000;0.0895;-0.7338;
39.0000;0.0879;-0.7293;
39.3000;0.0887;-0.7293;
39.6000;0.0871;-0.7338;
39.9000;0.0855;-0.7384;
40.2000;0.0863;-0.7361;
40.5000;0.0863;-0.7338;
40.8000;0.0904;-0.7316;
41.1000;0.0904;-0.7429;
41.4000;0.0838;-0.7610;
41.7000;0.0912;-0.7406;
42.0000;0.0895;-0.7497;
42.3000;0.0895;-0.7542;
42.6000;0.0871;-0.7542;
42.9000;0.0879;-0.7474;
43.2000;0.0912;-0.7338;
43.5000;0.0920;-0.7248;
43.8000;0.0920;-0.7293;
44.1000;0.0871;-0.7406;
44.4000;0.0895;-0.7361;
44.7000;0.0887;-0.7384;
45.0000;0.0887;-0.7338;
45.3000;0.0887;-0.7361;
45.6000;0.0895;-0.7406;
45.9000;0.0895;-0.7406;
46.2000;0.0863;-0.7587;
46.5000;0.0871;-0.7565;
46.8000;0.0863;-0.7633;
47.1000;0.0895;-0.7633;
47.4000;0.0895;-0.7655;
47.7000;0.0887;-0.7633;
48.0000;0.0904;-0.7633;
48.3000;0.0871;-0.7723;
48.6000;0.0904;-0.7701;
48.9000;0.0928;-0.7587;
49.2000;0.0863;-0.7633;
49.5000;0.0822;-0.7701;
49.8000;0.0879;-0.7519;
50.1000;0.0830;-0.7565;
50.4000;0.0806;-0.7587;
50.7000;0.0871;-0.7519;
51.0000;0.0830;-0.7610;
51.3000;0.0863;-0.7565;
51.6000;0.0920;-0.7429;
51.9000;0.0904;-0.7406;
52.2000;0.0895;-0.7429;
52.5000;0.0855;-0.7497;
52.8000;0.0920;-0.7361;
53.1000;0.0798;-0.7565;
53.4000;0.0895;-0.7338;
53.7000;0.0904;-0.7384;
54.0000;0.0944;-0.7316;
54.3000;0.0830;-0.7565;
54.6000;0.0863;-0.7474;
54.9000;0.0879;-0.7474;
55.2000;0.0887;-0.7361;
55.5000;0.0855;-0.7406;
55.8000;0.0895;-0.7338;
56.1000;0.0887;-0.7361;
56.4000;0.0895;-0.7384;
56.7000;0.0904;-0.7384;
57.0000;0.0863;-0.7429;
57.3000;0.0904;-0.7406;
57.6000;0.0863;-0.7565;
57.9000;0.0879;-0.7587;
58.2000;0.0920;-0.7474;
58.5000;0.0887;-0.7497;
58.8000;0.0895;-0.7452;
59.1000;0.0895;-0.7384;
59.4000;0.0887;-0.7338;
59.7000;0.0895;-0.7293;
60.0000;0.0879;-0.7338;
60.3000;0.0798;-0.7542;
60.6000;0.0879;-0.7338;
60.9000;0.0936;-0.7225;
61.2000;0.0879;-0.7361;
61.5000;0.0895;-0.7316;
61.8000;0.0879;-0.7452;
62.1000;0.0879;-0.7519;
62.4000;0.0936;-0.7361;
62.7000;0.0928;-0.7497;
63.0000;0.0879;-0.7497;
63.3000;0.0895;-0.7429;
63.6000;0.0912;-0.7361;
63.9000;0.0977;-0.7134;
64.2000;0.0871;-0.7452;
64.5000;0.0887;-0.7338;
64.8000;0.0855;-0.7361;
65.1000;0.0887;-0.7225;
65.4000;0.0936;-0.7089;
65.7000;0.0895;-0.7270;
66.0000;0.0912;-0.7225;
66.3000;0.0879;-0.7293;
66.6000;0.0871;-0.7384;
66.9000;0.0847;-0.7406;
67.2000;0.0887;-0.7384;
67.5000;0.0895;-0.7384;
67.8000;0.0895;-0.7384;
68.1000;0.0969;-0.7293;
68.4000;0.0879;-0.7474;
68.7000;0.1066;-0.7067;
69.0000;0.0887;-0.7474;
69.3000;0.0855;-0.7542;
69.6000;0.0887;-0.7452;
69.9000;0.0895;-0.7338;
70.2000;0.0985;-0.7157;
70.5000;0.0847;-0.7474;
70.8000;0.0912;-0.7384;
71.1000;0.0895;-0.7406;
71.4000;0.0895;-0.7429;
71.7000;0.0904;-0.7406;
72.0000;0.0838;-0.7633;
72.3000;0.0904;-0.7497;
72.6000;0.0887;-0.7610;
72.9000;0.0895;-0.7565;
73.2000;0.0887;-0.7587;
73.5000;0.0895;-0.7587;
73.8000;0.0928;-0.7519;
74.1000;0.0912;-0.7610;
74.4000;0.0904;-0.7587;
74.7000;0.0912;-0.7610;
75.0000;0.0887;-0.7610;
75.3000;0.0879;-0.7610;
75.6000;0.0887;-0.7565;
75.9000;0.0879;-0.7542;
76.2000;0.0904;-0.7519;
76.5000;0.0895;-0.7542;
76.8000;0.0838;-0.7746;
77.1000;0.0855;-0.7678;
77.4000;0.0895;-0.7542;
77.7000;0.0887;-0.7565;
78.0000;0.0895;-0.7565;
78.3000;0.0895;-0.7633;
78.6000;0.0887;-0.7678;
78.9000;0.0904;-0.7610;
79.2000;0.0879;-0.7701;
79.5000;0.0863;-0.7791;
79.8000;0.0871;-0.7837;
80.1000;0.0912;-0.7633;
80.4000;0.0904;-0.7587;
80.7000;0.0887;-0.7633;
81.0000;0.0887;-0.7610;
81.3000;0.0977;-0.7338;
81.6000;0.0863;-0.7542;
81.9000;0.0928;-0.7429;
82.2000;0.0904;-0.7497;
82.5000;0.0936;-0.7497;
82.8000;0.0895;-0.7610;
83.1000;0.0879;-0.7633;
83.4000;0.0912;-0.7610;
83.7000;0.0822;-0.7837;
84.0000;0.0904;-0.7655;
84.3000;0.0904;-0.7678;
84.6000;0.0895;-0.7610;
84.9000;0.0895;-0.7497;
85.2000;0.0895;-0.7429;
85.5000;0.0879;-0.7497;
85.8000;0.0863;-0.7565;
86.1000;0.0895;-0.7452;
86.4000;0.0952;-0.7248;
86.7000;0.0895;-0.7270;
87.0000;0.0863;-0.7293;
87.3000;0.0961;-0.7089;
87.6000;0.0977;-0.7157;
87.9000;0.0847;-0.7474;
88.2000;0.0904;-0.7293;
88.5000;0.0904;-0.7270;
88.8000;0.0887;-0.7338;
89.1000;0.0920;-0.7248;
89.4000;0.0871;-0.7474;
89.7000;0.0773;-0.7701;
90.0000;0.0863;-0.7474;
90.3000;0.0912;-0.7384;
90.6000;0.0895;-0.7406;
90.9000;0.0871;-0.7519;
91.2000;0.0887;-0.7474;
91.5000;0.1018;-0.7180;
91.8000;0.0912;-0.7519;
92.1000;0.0961;-0.7384;
92.4000;0.0969;-0.7361;
92.7000;0.0920;-0.7497;
93.0000;0.0912;-0.7429;
93.3000;0.0912;-0.7429;
93.6000;0.0879;-0.7497;
93.9000;0.0887;-0.7452;
94.2000;0.0871;-0.7519;
94.5000;0.0936;-0.7338;
94.8000;0.0887;-0.7361;
95.1000;0.0879;-0.7338;
95.4000;0.0887;-0.7316;
95.7000;0.0887;-0.7338;
96.0000;0.0879;-0.7338;
96.3000;0.0887;-0.7248;
96.6000;0.0887;-0.7316;
96.9000;0.0912;-0.7361;
97.2000;0.0895;-0.7452;
97.5000;0.0912;-0.7406;
97.8000;0.0944;-0.7338;
98.1000;0.0912;-0.7474;
98.4000;0.0904;-0.7519;
98.7000;0.0879;-0.7542;
99.0000;0.0912;-0.7497;
99.3000;0.0912;-0.7542;
99.6000;0.0895;-0.7519;
99.9000;0.0855;-0.7542;
100.2000;0.0904;-0.7429;
100.5000;0.0879;-0.7474;
100.8000;0.0879;-0.7542;
101.1000;0.0895;-0.7429;
101.4000;0.0936;-0.7384;
101.7000;0.0887;-0.7474;
102.0000;0.0887;-0.7452;
102.3000;0.0920;-0.7497;
102.6000;0.0879;-0.7565;
102.9000;0.0904;-0.7542;
103.2000;0.0798;-0.7859;
103.5000;0.0895;-0.7633;
103.8000;0.0904;-0.7519;
104.1000;0.0904;-0.7519;
104.4000;0.0871;-0.7610;
104.7000;0.0863;-0.7633;
105.0000;0.0904;-0.7701;
105.3000;0.0790;-0.7950;
105.6000;0.0879;-0.7655;
105.9000;0.0887;-0.7587;
106.2000;0.0798;-0.7769;
106.5000;0.0912;-0.7587;
106.8000;0.0887;-0.7542;
107.1000;0.0871;-0.7497;
107.4000;0.0920;-0.7316;
107.7000;0.0904;-0.7293;
108.0000;0.0936;-0.7248;
108.3000;0.0920;-0.7134;
108.6000;0.0985;-0.7112;
108.9000;0.0895;-0.7338;
109.2000;0.0895;-0.7293;
109.5000;0.0912;-0.7248;
109.8000;0.0863;-0.7429;
110.1000;0.0887;-0.7338;
110.4000;0.0887;-0.7248;
110.7000;0.0904;-0.7180;
111.0000;0.0871;-0.7293;
111.3000;0.0895;-0.7316;
111.6000;0.0952;-0.7180;
111.9000;0.0928;-0.7270;
112.2000;0.0928;-0.7293;
112.5000;0.0879;-0.7384;
112.8000;0.0920;-0.7293;
113.1000;0.0904;-0.7338;
113.4000;0.0830;-0.7565;
113.7000;0.1009;-0.7112;
114.0000;0.0904;-0.7384;
114.3000;0.0871;-0.7542;
114.6000;0.0944;-0.7361;
114.9000;0.0904;-0.7429;
115.2000;0.0895;-0.7316;
115.5000;0.0733;-0.7655;
115.8000;0.0895;-0.7248;
116.1000;0.0887;-0.7316;
116.4000;0.0961;-0.7180;
116.7000;0.0895;-0.7293;
117.0000;0.0904;-0.7384;
117.3000;0.0863;-0.7519;
117.6000;0.0879;-0.7587;
117.9000;0.0895;-0.7406;
118.2000;0.0904;-0.7293;
118.5000;0.0871;-0.7361;
118.8000;0.0912;-0.7225;
119.1000;0.0895;-0.7225;
119.4000;0.0806;-0.7406;
119.7000;0.0912;-0.7112;
120.0000;0.0757;-0.7474;
120.3000;0.0887;-0.7293;
120.6000;0.0912;-0.7270;
120.9000;0.0879;-0.7361;
121.2000;0.0887;-0.7406;
121.5000;0.0895;-0.7361;
121.8000;0.0904;-0.7474;
122.1000;0.0879;-0.7587;
122.4000;0.0781;-0.7814;
122.7000;0.0887;-0.7565;
123.0000;0.0887;-0.7542;
123.3000;0.0847;-0.7655;
123.6000;0.0904;-0.7633;
123.9000;0.0952;-0.7474;
124.2000;0.0879;-0.7542;
124.5000;0.0855;-0.7565;
124.8000;0.0904;-0.7474;
125.1000;0.0912;-0.7384;
125.4000;0.0887;-0.7474;
125.7000;0.0887;-0.7474;
126.0000;0.0879;-0.7542;
126.3000;0.0944;-0.7406;
126.6000;0.0895;-0.7519;
126.9000;0.0912;-0.7429;
127.2000;0.0822;-0.7610;
127.5000;0.0912;-0.7429;
127.8000;0.0936;-0.7452;
128.1000;0.0928;-0.7452;
128.4000;0.0904;-0.7452;
128.7000;0.0895;-0.7474;
129.0000;0.0920;-0.7384;
129.3000;0.0863;-0.7452;
129.6000;0.0895;-0.7384;
129.9000;0.0936;-0.7316;
130.2000;0.0879;-0.7452;
130.5000;0.0879;-0.7474;
130.8000;0.0879;-0.7452;
131.1000;0.0920;-0.7361;
131.4000;0.0879;-0.7361;
131.7000;0.0887;-0.7248;
132.0000;0.0904;-0.7225;
132.3000;0.0928;-0.7248;
132.6000;0.0912;-0.7202;
132.9000;0.0895;-0.7180;
133.2000;0.0920;-0.7202;
133.5000;0.0961;-0.7021;
133.8000;0.0936;-0.7202;
134.1000;0.0904;-0.7384;
134.4000;0.0863;-0.7565;
134.7000;0.0904;-0.7474;
135.0000;0.0895;-0.7429;
135.3000;0.0920;-0.7361;
135.6000;0.0863;-0.7474;
135.9000;0.0904;-0.7270;
136.2000;0.0895;-0.7248;
136.5000;0.0871;-0.7270;
136.8000;0.0887;-0.7248;
137.1000;0.0904;-0.7202;
137.4000;0.0920;-0.7202;
137.7000;0.0912;-0.7202;
138.0000;0.1034;-0.6885;
138.3000;0.0936;-0.7134;
138.6000;0.0920;-0.7180;
138.9000;0.0863;-0.7293;
139.2000;0.0879;-0.7316;
139.5000;0.0895;-0.7270;
139.8000;0.0904;-0.7270;
140.1000;0.0912;-0.7202;
140.4000;0.0822;-0.7519;
140.7000;0.0765;-0.7633;
141.0000;0.0838;-0.7406;
141.3000;0.0928;-0.7202;
141.6000;0.0887;-0.7293;
141.9000;0.0904;-0.7180;
142.2000;0.0887;-0.7361;
142.5000;0.0879;-0.7429;
142.8000;0.0928;-0.7361;
143.1000;0.0904;-0.7587;
143.4000;0.0961;-0.7474;
143.7000;0.0928;-0.7519;
144.0000;0.0904;-0.7655;
144.3000;0.0912;-0.7723;
144.6000;0.0887;-0.7746;
144.9000;0.0871;-0.7814;
145.2000;0.0912;-0.7678;
145.5000;0.0871;-0.7701;
145.8000;0.0904;-0.7655;
146.1000;0.0895;-0.7655;
146.4000;0.0855;-0.7837;
146.7000;0.0895;-0.7769;
147.0000;0.0912;-0.7769;
147.3000;0.0871;-0.7769;
147.6000;0.0871;-0.7769;
147.9000;0.0895;-0.7633;
148.2000;0.0879;-0.7610;
148.5000;0.0847;-0.7701;
148.8000;0.0920;-0.7497;
149.1000;0.0969;-0.7406;
149.4000;0.0920;-0.7497;
149.7000;0.0912;-0.7452;
150.0000;0.0871;-0.7565;
150.3000;0.0895;-0.7474;
150.6000;0.0936;-0.7361;
150.9000;0.0904;-0.7384;
151.2000;0.0879;-0.7384;
151.5000;0.0936;-0.7180;
151.8000;0.0887;-0.7316;
152.1000;0.0895;-0.7270;
152.4000;0.0879;-0.7293;
152.7000;0.0920;-0.7293;
153.0000;0.0879;-0.7406;
153.3000;0.0879;-0.7452;
153.6000;0.0887;-0.7406;
153.9000;0.0871;-0.7452;
154.2000;0.0912;-0.7429;
154.5000;0.0863;-0.7519;
154.8000;0.0871;-0.7452;
155.1000;0.0895;-0.7429;
155.4000;0.0904;-0.7406;
155.7000;0.0904;-0.7429;
156.0000;0.0887;-0.7429;
156.3000;0.0920;-0.7338;
156.6000;0.0904;-0.7406;
156.9000;0.0871;-0.7429;
157.2000;0.0904;-0.7361;
157.5000;0.0887;-0.7316;
157.8000;0.0920;-0.7270;
158.1000;0.0847;-0.7474;
158.4000;0.0895;-0.7270;
158.7000;0.0887;-0.7361;
159.0000;0.0847;-0.7474;
159.3000;0.0879;-0.7519;
159.6000;0.0977;-0.7406;
159.9000;0.0895;-0.7633;
160.2000;0.0887;-0.7633;
160.5000;0.0952;-0.7429;
160.8000;0.0920;-0.7452;
161.1000;0.0863;-0.7587;
161.4000;0.0920;-0.7474;
161.7000;0.0887;-0.7633;
162.0000;0.0985;-0.7429;
162.3000;0.0895;-0.7723;
162.6000;0.0920;-0.7610;
162.9000;0.0895;-0.7633;
163.2000;0.0912;-0.7587;
163.5000;0.0863;-0.7723;
163.8000;0.0920;-0.7587;
164.1000;0.0969;-0.7452;
164.4000;0.0814;-0.7746;
164.7000;0.0936;-0.7474;
165.0000;0.0904;-0.7587;
165.3000;0.0912;-0.7587;
165.6000;0.0961;-0.7519;
165.9000;0.0863;-0.7769;
166.2000;0.0936;-0.7542;
166.5000;0.0920;-0.7519;
166.8000;0.0920;-0.7565;
167.1000;0.0993;-0.7384;
167.4000;0.0904;-0.7678;
167.7000;0.0904;-0.7701;
168.0000;0.0904;-0.7701;
168.3000;0.0904;-0.7723;
168.6000;0.0887;-0.7678;
168.9000;0.0952;-0.7565;
169.2000;0.0936;-0.7565;
169.5000;0.0895;-0.7633;
169.8000;0.0920;-0.7587;
170.1000;0.0936;-0.7497;
170.4000;0.0928;-0.7406;
170.7000;0.0904;-0.7452;
171.0000;0.0912;-0.7384;
171.3000;0.0952;-0.7270;
171.6000;0.0879;-0.7474;
171.9000;0.0887;-0.7452;
172.2000;0.0912;-0.7361;
172.5000;0.0887;-0.7429;
172.8000;0.0781;-0.7723;
173.1000;0.0920;-0.7293;
173.4000;0.0895;-0.7270;
173.7000;0.0904;-0.7293;
174.0000;0.0904;-0.7270;
174.3000;0.0904;-0.7225;
174.6000;0.0936;-0.7225;
174.9000;0.0904;-0.7429;
175.2000;0.0904;-0.7474;
175.5000;0.0904;-0.7452;
175.8000;0.0887;-0.7610;
176.1000;0.0904;-0.7519;
176.4000;0.0863;-0.7655;
176.7000;0.0879;-0.7701;
177.0000;0.0895;-0.7701;
177.3000;0.0887;-0.7723;
177.6000;0.0904;-0.7633;
177.9000;0.0928;-0.7519;
178.2000;0.0920;-0.7565;
178.5000;0.0879;-0.7746;
178.8000;0.0904;-0.7678;
179.1000;0.0920;-0.7633;
179.4000;0.0895;-0.7723;
179.7000;0.0822;-0.7905;
180.0000;0.0855;-0.7791;
180.3000;0.0912;-0.7610;
180.6000;0.0920;-0.7565;
180.9000;0.0969;-0.7406;
181.2000;0.0912;-0.7497;
181.5000;0.0944;-0.7474;
181.8000;0.0912;-0.7587;
182.1000;0.0952;-0.7565;
182.4000;0.0855;-0.7791;
182.7000;0.0993;-0.7542;
183.0000;0.0814;-0.7927;
183.3000;0.0977;-0.7633;
183.6000;0.0912;-0.7678;
183.9000;0.0920;-0.7678;
184.2000;0.0912;-0.7655;
184.5000;0.1042;-0.7316;
184.8000;0.0895;-0.7723;
185.1000;0.0838;-0.7905;
185.4000;0.0904;-0.7655;
185.7000;0.0912;-0.7610;
186.0000;0.0879;-0.7633;
186.3000;0.0887;-0.7678;
186.6000;0.0904;-0.7701;
186.9000;0.0871;-0.7837;
187.2000;0.0912;-0.7678;
187.5000;0.0879;-0.7769;
187.8000;0.0920;-0.7723;
188.1000;0.0912;-0.7655;
188.4000;0.0977;-0.7542;
188.7000;0.0895;-0.7746;
189.0000;0.0920;-0.7633;
189.3000;0.0904;-0.7497;
189.6000;0.0920;-0.7497;
189.9000;0.0887;-0.7542;
190.2000;0.0904;-0.7542;
190.5000;0.0920;-0.7452;
190.8000;0.0920;-0.7474;
191.1000;0.0904;-0.7587;
191.4000;0.0904;-0.7542;
191.7000;0.0928;-0.7474;
192.0000;0.0887;-0.7565;
192.3000;0.0961;-0.7384;
192.6000;0.0904;-0.7519;
192.9000;0.0912;-0.7338;
193.2000;0.0904;-0.7474;
193.5000;0.0920;-0.7406;
193.8000;0.0863;-0.7633;
194.1000;0.0944;-0.7452;
194.4000;0.0928;-0.7452;
194.7000;0.0912;-0.7519;
195.0000;0.0887;-0.7610;
195.3000;0.0895;-0.7610;
195.6000;0.0912;-0.7678;
195.9000;0.0855;-0.7837;
196.2000;0.0920;-0.7769;
196.5000;0.0863;-0.7814;
196.8000;0.0920;-0.7701;
197.1000;0.0920;-0.7701;
197.4000;0.0904;-0.7701;
197.7000;0.0895;-0.7814;
198.0000;0.0928;-0.7723;
198.3000;0.0912;-0.7746;
198.6000;0.0904;-0.7769;
198.9000;0.0863;-0.7837;
199.2000;0.0879;-0.7837;
199.5000;0.0928;-0.7791;
199.8000;0.0887;-0.7837;
200.1000;0.0895;-0.7837;
200.4000;0.0863;-0.7814;
200.7000;0.0895;-0.7723;
201.0000;0.0871;-0.7814;
201.3000;0.0904;-0.7814;
201.6000;0.0904;-0.7882;
201.9000;0.0936;-0.7746;
202.2000;0.0895;-0.7837;
202.5000;0.0887;-0.7859;
202.8000;0.0904;-0.7769;
203.1000;0.0895;-0.7837;
203.4000;0.0904;-0.7837;
203.7000;0.0920;-0.7905;
204.0000;0.0928;-0.7814;
204.3000;0.0904;-0.7837;
204.6000;0.0887;-0.7859;
204.9000;0.0912;-0.7746;
205.2000;0.0895;-0.7791;
205.5000;0.0952;-0.7701;
205.8000;0.0904;-0.7859;
206.1000;0.0928;-0.7701;
206.4000;0.0895;-0.7678;
206.7000;0.0871;-0.7746;
207.0000;0.0912;-0.7610;
207.3000;0.0920;-0.7565;
207.6000;0.0904;-0.7633;
207.9000;0.0920;-0.7519;
208.2000;0.0895;-0.7587;
208.5000;0.0920;-0.7519;
208.8000;0.0920;-0.7610;
209.1000;0.0936;-0.7633;
209.4000;0.0895;-0.7746;
209.7000;0.0757;-0.8108;
210.0000;0.0969;-0.7587;
210.3000;0.0887;-0.7814;
210.6000;0.0895;-0.7723;
210.9000;0.0904;-0.7701;
211.2000;0.0887;-0.7633;
211.5000;0.0936;-0.7519;
211.8000;0.0912;-0.7633;
212.1000;0.0928;-0.7587;
212.4000;0.0920;-0.7565;
212.7000;0.0895;-0.7542;
213.0000;0.0904;-0.7519;
213.3000;0.0944;-0.7474;
213.6000;0.0904;-0.7587;
213.9000;0.0904;-0.7610;
214.2000;0.0895;-0.7633;
214.5000;0.0904;-0.7610;
214.8000;0.0863;-0.7791;
215.1000;0.0936;-0.7587;
215.4000;0.0944;-0.7474;
215.7000;0.0928;-0.7565;
216.0000;0.0928;-0.7497;
216.3000;0.0895;-0.7542;
216.6000;0.0871;-0.7723;
216.9000;0.0895;-0.7678;
217.2000;0.0928;-0.7565;
217.5000;0.0895;-0.7633;
217.8000;0.0928;-0.7701;
218.1000;0.0887;-0.7701;
218.4000;0.0904;-0.7655;
218.7000;0.0969;-0.7474;
219.0000;0.0887;-0.7746;
219.3000;0.0952;-0.7565;
219.6000;0.0879;-0.7723;
219.9000;0.0912;-0.7678;
220.2000;0.0895;-0.7723;
220.5000;0.0920;-0.7678;
220.8000;0.0895;-0.7791;
221.1000;0.0879;-0.7814;
221.4000;0.0985;-0.7519;
221.7000;0.0895;-0.7723;
222.0000;0.0887;-0.7791;
222.3000;0.0887;-0.7769;
222.6000;0.0904;-0.7678;
222.9000;0.0920;-0.7655;
223.2000;0.0928;-0.7655;
223.5000;0.0928;-0.7723;
223.8000;0.0904;-0.7837;
224.1000;0.0920;-0.7837;
224.4000;0.0887;-0.7859;
224.7000;0.0904;-0.7723;
225.0000;0.0904;-0.7769;
225.3000;0.0887;-0.7791;
225.6000;0.0904;-0.7746;
225.9000;0.0944;-0.7746;
226.2000;0.0904;-0.7746;
226.5000;0.0928;-0.7723;
226.8000;0.0912;-0.7746;
227.1000;0.0904;-0.7746;
227.4000;0.0928;-0.7610;
227.7000;0.0912;-0.7587;
228.0000;0.0895;-0.7701;
228.3000;0.0887;-0.7723;
228.6000;0.0928;-0.7746;
228.9000;0.0920;-0.7769;
229.2000;0.1001;-0.7633;
229.5000;0.0895;-0.7882;
229.8000;0.0912;-0.7837;
230.1000;0.0863;-0.7927;
230.4000;0.0895;-0.7837;
230.7000;0.0969;-0.7701;
231.0000;0.0912;-0.7723;
231.3000;0.0920;-0.7678;
231.6000;0.0912;-0.7791;
231.9000;0.0912;-0.7791;
232.2000;0.0920;-0.7723;
232.5000;0.1026;-0.7406;
232.8000;0.0920;-0.7565;
233.1000;0.0887;-0.7610;
233.4000;0.0944;-0.7452;
233.7000;0.0879;-0.7633;
234.0000;0.0879;-0.7655;
234.3000;0.0904;-0.7610;
234.6000;0.0895;-0.7678;
234.9000;0.0806;-0.7859;
235.2000;0.0912;-0.7655;
235.5000;0.0830;-0.7837;
235.8000;0.0895;-0.7701;
236.1000;0.0912;-0.7610;
236.4000;0.0887;-0.7678;
236.7000;0.0879;-0.7633;
237.0000;0.0895;-0.7633;
237.3000;0.0895;-0.7678;
237.6000;0.0806;-0.7859;
237.9000;0.0928;-0.7565;
238.2000;0.0912;-0.7655;
238.5000;0.0838;-0.7859;
238.8000;0.0838;-0.7791;
239.1000;0.0961;-0.7474;
239.4000;0.0961;-0.7542;
239.7000;0.0895;-0.7701;
240.0000;0.0936;-0.7565;
240.3000;0.0920;-0.7610;
240.6000;0.0993;-0.7429;
240.9000;0.0912;-0.7542;
241.2000;0.0904;-0.7633;
241.5000;0.0944;-0.7519;
241.8000;0.0936;-0.7474;
242.1000;0.0879;-0.7655;
242.4000;0.0944;-0.7587;
242.7000;0.0879;-0.7791;
243.0000;0.0944;-0.7655;
243.3000;0.0904;-0.7723;
243.6000;0.0904;-0.7746;
243.9000;0.0895;-0.7655;
244.2000;0.0871;-0.7746;
244.5000;0.0887;-0.7723;
244.8000;0.0920;-0.7723;
245.1000;0.0895;-0.7769;
245.4000;0.0920;-0.7723;
245.7000;0.0936;-0.7746;
246.0000;0.0895;-0.7791;
246.3000;0.1042;-0.7497;
246.6000;0.0912;-0.7814;
246.9000;0.0936;-0.7769;
247.2000;0.0912;-0.7814;
247.5000;0.0895;-0.7837;
247.8000;0.0993;-0.7633;
248.1000;0.0904;-0.7859;
248.4000;0.0920;-0.7859;
248.7000;0.0895;-0.7905;
249.0000;0.0920;-0.7837;
249.3000;0.0912;-0.7814;
249.6000;0.0920;-0.7791;
249.9000;0.0887;-0.7769;
250.2000;0.0912;-0.7701;
250.5000;0.0855;-0.7791;
250.8000;0.0895;-0.7701;
251.1000;0.0895;-0.7701;
251.4000;0.0904;-0.7723;
251.7000;0.0798;-0.7927;
252.0000;0.0912;-0.7723;
252.3000;0.0895;-0.7723;
252.6000;0.0969;-0.7610;
252.9000;0.0920;-0.7678;
253.2000;0.0887;-0.7769;
253.5000;0.0977;-0.7587;
253.8000;0.0879;-0.7769;
254.1000;0.0879;-0.7769;
254.4000;0.0912;-0.7701;
254.7000;0.0944;-0.7633;
255.0000;0.0928;-0.7746;
255.3000;0.0944;-0.7678;
255.6000;0.0920;-0.7633;
255.9000;0.0920;-0.7655;
256.2000;0.0928;-0.7655;
256.5000;0.0806;-0.7882;
256.8000;0.0912;-0.7633;
257.1000;0.0879;-0.7723;
257.4000;0.0895;-0.7587;
257.7000;0.0920;-0.7497;
258.0000;0.0928;-0.7406;
258.3000;0.0879;-0.7406;
258.6000;0.0904;-0.7474;
258.9000;0.0895;-0.7497;
259.2000;0.0887;-0.7519;
259.5000;0.0961;-0.7338;
259.8000;0.0912;-0.7497;
260.1000;0.0895;-0.7542;
260.4000;0.0912;-0.7633;
260.7000;0.0920;-0.7542;
261.0000;0.0920;-0.7519;
261.3000;0.0895;-0.7519;
261.6000;0.0863;-0.7678;
261.9000;0.0887;-0.7723;
262.2000;0.0920;-0.7723;
262.5000;0.0969;-0.7542;
262.8000;0.0944;-0.7587;
263.1000;0.0912;-0.7746;
263.4000;0.0985;-0.7565;
263.7000;0.0895;-0.7814;
264.0000;0.0912;-0.7746;
264.3000;0.0952;-0.7610;
264.6000;0.0920;-0.7723;
264.9000;0.0936;-0.7610;
265.2000;0.0904;-0.7814;
265.5000;0.0961;-0.7723;
265.8000;0.0798;-0.8040;
266.1000;0.0904;-0.7633;
266.4000;0.0887;-0.7746;
266.7000;0.0928;-0.7678;
267.0000;0.0944;-0.7678;
267.3000;0.0855;-0.7837;
267.6000;0.0920;-0.7769;
267.9000;0.0904;-0.7746;
268.2000;0.0920;-0.7633;
268.5000;0.0928;-0.7519;
268.8000;0.0904;-0.7633;
269.1000;0.0912;-0.7633;
269.4000;0.0904;-0.7678;
269.7000;0.0920;-0.7701;
270.0000;0.0904;-0.7746;
270.3000;0.0895;-0.7701;
270.6000;0.0920;-0.7701;
270.9000;0.0887;-0.7701;
271.2000;0.0904;-0.7587;
271.5000;0.0895;-0.7565;
271.8000;0.0895;-0.7565;
272.1000;0.0944;-0.7497;
272.4000;0.0887;-0.7701;
272.7000;0.0928;-0.7655;
273.0000;0.0936;-0.7565;
273.3000;0.0920;-0.7633;
273.6000;0.0952;-0.7519;
273.9000;0.0887;-0.7655;
274.2000;0.0887;-0.7814;
274.5000;0.0895;-0.7814;
274.8000;0.0904;-0.7882;
275.1000;0.0936;-0.7837;
275.4000;0.0871;-0.8018;
275.7000;0.0961;-0.7972;
276.0000;0.0904;-0.8018;
276.3000;0.0912;-0.7950;
276.6000;0.0904;-0.7950;
276.9000;0.0904;-0.7927;
277.2000;0.0863;-0.7972;
277.5000;0.0904;-0.7905;
277.8000;0.0993;-0.7678;
278.1000;0.0952;-0.7746;
278.4000;0.1001;-0.7610;
278.7000;0.0936;-0.7791;
279.0000;0.0904;-0.7814;
279.3000;0.0920;-0.7769;
279.6000;0.0895;-0.7905;
279.9000;0.0912;-0.7905;
280.2000;0.0863;-0.8108;
280.5000;0.1026;-0.7746;
280.8000;0.0904;-0.8040;
281.1000;0.0895;-0.8018;
281.4000;0.0879;-0.8086;
281.7000;0.0895;-0.8108;
282.0000;0.0920;-0.8108;
282.3000;0.0912;-0.8040;
282.6000;0.0904;-0.8040;
282.9000;0.0920;-0.7905;
283.2000;0.0920;-0.7882;
283.5000;0.0920;-0.7837;
283.8000;0.0773;-0.8199;
284.1000;0.0912;-0.7882;
284.4000;0.0944;-0.7723;
284.7000;0.0904;-0.7837;
285.0000;0.0895;-0.7837;
285.3000;0.0904;-0.7859;
285.6000;0.0904;-0.7814;
285.9000;0.0920;-0.7814;
286.2000;0.0928;-0.7678;
286.5000;0.0863;-0.7769;
286.8000;0.0895;-0.7791;
287.1000;0.0904;-0.7701;
287.4000;0.0936;-0.7542;
287.7000;0.0912;-0.7587;
288.0000;0.0920;-0.7519;
288.3000;0.0936;-0.7452;
288.6000;0.0887;-0.7587;
288.9000;0.0871;-0.7655;
289.2000;0.0985;-0.7474;
289.5000;0.0887;-0.7746;
289.8000;0.0895;-0.7769;
290.1000;0.0952;-0.7769;
290.4000;0.0969;-0.7701;
290.7000;0.0920;-0.7859;
291.0000;0.0920;-0.7905;
291.3000;0.0871;-0.7905;
291.6000;0.0895;-0.7837;
291.9000;0.0904;-0.7837;
292.2000;0.0920;-0.7791;
292.5000;0.0879;-0.7746;
292.8000;0.0871;-0.7837;
293.1000;0.0912;-0.7746;
293.4000;0.0912;-0.7678;
293.7000;0.0928;-0.7587;
294.0000;0.0879;-0.7678;
294.3000;0.0887;-0.7769;
294.6000;0.0993;-0.7519;
294.9000;0.0928;-0.7633;
295.2000;0.0920;-0.7655;
295.5000;0.0936;-0.7519;
295.8000;0.0895;-0.7565;
296.1000;0.0895;-0.7519;
296.4000;0.0912;-0.7452;
296.7000;0.0928;-0.7474;
297.0000;0.0969;-0.7293;
297.3000;0.0912;-0.7452;
297.6000;0.0912;-0.7429;
297.9000;0.0855;-0.7565;
298.2000;0.0895;-0.7497;
298.5000;0.0871;-0.7701;
298.8000;0.0920;-0.7610;
299.1000;0.0961;-0.7519;
299.4000;0.0928;-0.7633;
299.7000;0.0871;-0.7791;
300.0000;0.0879;-0.7769;
300.3000;0.0879;-0.7791;
300.6000;0.0928;-0.7723;
300.9000;0.0838;-0.7882;
301.2000;0.0952;-0.7587;
301.5000;0.0961;-0.7587;
301.8000;0.0928;-0.7746;
302.1000;0.0928;-0.7723;
302.4000;0.0920;-0.7791;
302.7000;0.0944;-0.7769;
303.0000;0.0830;-0.7927;
303.3000;0.0904;-0.7633;
303.6000;0.0928;-0.7497;
303.9000;0.0920;-0.7384;
304.2000;0.0887;-0.7497;
304.5000;0.0855;-0.7610;
304.8000;0.0904;-0.7497;
305.1000;0.0904;-0.7497;
305.4000;0.0904;-0.7565;
305.7000;0.0765;-0.7927;
306.0000;0.0920;-0.7633;
306.3000;0.0895;-0.7633;
306.6000;0.0912;-0.7655;
306.9000;0.0887;-0.7610;
307.2000;0.0912;-0.7542;
307.5000;0.0912;-0.7542;
307.8000;0.0912;-0.7587;
308.1000;0.0912;-0.7655;
308.4000;0.0912;-0.7633;
308.7000;0.0904;-0.7723;
309.0000;0.0912;-0.7678;
309.3000;0.0887;-0.7701;
309.6000;0.0904;-0.7791;
309.9000;0.0912;-0.7859;
310.2000;0.0912;-0.7882;
310.5000;0.0895;-0.7882;
310.8000;0.0920;-0.7769;
311.1000;0.1018;-0.7452;
311.4000;0.0920;-0.7701;
311.7000;0.0977;-0.7519;
312.0000;0.0887;-0.7769;
312.3000;0.0920;-0.7723;
312.6000;0.0920;-0.7791;
312.9000;0.0920;-0.7769;
313.2000;0.0912;-0.7905;
313.5000;0.0920;-0.7905;
313.8000;0.0936;-0.7814;
314.1000;0.0879;-0.8018;
314.4000;0.0928;-0.7859;
314.7000;0.0912;-0.7972;
315.0000;0.0920;-0.7995;
315.3000;0.0871;-0.8131;
315.6000;0.0895;-0.8063;
315.9000;0.0912;-0.7972;
316.2000;0.0936;-0.7882;
316.5000;0.0936;-0.7927;
316.8000;0.0895;-0.7995;
317.1000;0.0887;-0.7995;
317.4000;0.0904;-0.7950;
317.7000;0.1018;-0.7633;
318.0000;0.0944;-0.7882;
318.3000;0.0920;-0.7859;
318.6000;0.0912;-0.7927;
318.9000;0.0920;-0.7837;
319.2000;0.0920;-0.7837;
319.5000;0.0928;-0.7814;
319.8000;0.0855;-0.7950;
320.1000;0.0887;-0.7859;
320.4000;0.0847;-0.8040;
320.7000;0.0887;-0.7905;
321.0000;0.0895;-0.7927;
321.3000;0.0895;-0.7791;
321.6000;0.0912;-0.7746;
321.9000;0.0928;-0.7701;
322.2000;0.0912;-0.7814;
322.5000;0.0847;-0.7972;
322.8000;0.0912;-0.7791;
323.1000;0.0961;-0.7678;
323.4000;0.0912;-0.7837;
323.7000;0.0887;-0.7905;
324.0000;0.0895;-0.7927;
324.3000;0.0887;-0.7927;
324.6000;0.0838;-0.7972;
324.9000;0.0887;-0.7837;
325.2000;0.0920;-0.7814;
325.5000;0.0920;-0.7746;
325.8000;0.0928;-0.7678;
326.1000;0.0920;-0.7701;
326.4000;0.0887;-0.7814;
326.7000;0.0904;-0.7769;
327.0000;0.0871;-0.7859;
327.3000;0.0904;-0.7859;
327.6000;0.0912;-0.7791;
327.9000;0.0928;-0.7701;
328.2000;0.0985;-0.7587;
328.5000;0.1034;-0.7519;
328.8000;0.0904;-0.7837;
329.1000;0.0895;-0.7746;
329.4000;0.0912;-0.7678;
329.7000;0.0920;-0.7769;
330.0000;0.0904;-0.7610;
330.3000;0.0904;-0.7723;
330.6000;0.0912;-0.7769;
330.9000;0.1042;-0.7338;
331.2000;0.0887;-0.7723;
331.5000;0.0904;-0.7701;
331.8000;0.0912;-0.7633;
332.1000;0.0920;-0.7655;
332.4000;0.0920;-0.7746;
332.7000;0.0928;-0.7723;
333.0000;0.0920;-0.7723;
333.3000;0.0904;-0.7814;
333.6000;0.0920;-0.7791;
333.9000;0.0912;-0.7837;
334.2000;0.0952;-0.7701;
334.5000;0.0895;-0.7859;
334.8000;0.0977;-0.7655;
335.1000;0.0871;-0.7995;
335.4000;0.0912;-0.7927;
335.7000;0.0928;-0.7927;
336.0000;0.0895;-0.7927;
336.3000;0.0920;-0.7905;
336.6000;0.0838;-0.7995;
336.9000;0.0904;-0.7927;
337.2000;0.0863;-0.7995;
337.5000;0.0871;-0.7995;
337.8000;0.0895;-0.7882;
338.1000;0.0936;-0.7769;
338.4000;0.0904;-0.7837;
338.7000;0.0961;-0.7701;
339.0000;0.0798;-0.8086;
339.3000;0.0904;-0.7882;
339.6000;0.0904;-0.7814;
339.9000;0.0904;-0.7882;
340.2000;0.0871;-0.7995;
340.5000;0.0904;-0.7950;
340.8000;0.0952;-0.7859;
341.1000;0.1009;-0.7723;
341.4000;0.0733;-0.8358;
341.7000;0.0895;-0.7950;
342.0000;0.0920;-0.7859;
342.3000;0.0912;-0.7814;
342.6000;0.0920;-0.7791;
342.9000;0.0904;-0.7814;
343.2000;0.0904;-0.7859;
343.5000;0.0928;-0.7882;
343.8000;0.0887;-0.7995;
344.1000;0.0912;-0.7859;
344.4000;0.0912;-0.7927;
344.7000;0.0928;-0.7950;
345.0000;0.0952;-0.7882;
345.3000;0.0920;-0.7950;
345.6000;0.0912;-0.7882;
345.9000;0.0863;-0.8040;
346.2000;0.0904;-0.7882;
346.5000;0.0887;-0.7950;
346.8000;0.0928;-0.7837;
347.1000;0.0936;-0.7837;
347.4000;0.0912;-0.7927;
347.7000;0.0912;-0.7972;
348.0000;0.0904;-0.7927;
348.3000;0.0912;-0.7905;
348.6000;0.0936;-0.7859;
348.9000;0.0985;-0.7678;
349.2000;0.0895;-0.7927;
349.5000;0.0895;-0.7905;
349.8000;0.0944;-0.7746;
350.1000;0.0879;-0.7859;
350.4000;0.0895;-0.7859;
350.7000;0.0936;-0.7859;
351.0000;0.0920;-0.7950;
351.3000;0.0920;-0.7905;
351.6000;0.0904;-0.7905;
351.9000;0.0912;-0.7905;
352.2000;0.0985;-0.7655;
352.5000;0.0895;-0.7837;
352.8000;0.0895;-0.7927;
353.1000;0.0904;-0.7882;
353.4000;0.0912;-0.7859;
353.7000;0.0920;-0.7791;
354.0000;0.0904;-0.7723;
354.3000;0.0928;-0.7701;
354.6000;0.0920;-0.7769;
354.9000;0.0904;-0.7791;
355.2000;0.0912;-0.7769;
355.5000;0.0904;-0.7882;
355.8000;0.0895;-0.7905;
356.1000;0.0904;-0.7837;
356.4000;0.0944;-0.7746;
356.7000;0.0912;-0.7769;
357.0000;0.0838;-0.7950;
357.3000;0.0920;-0.7746;
357.6000;0.0928;-0.7655;
357.9000;0.0838;-0.7882;
358.2000;0.0944;-0.7678;
358.5000;0.0936;-0.7655;
358.8000;0.1001;-0.7429;
359.1000;0.0944;-0.7519;
359.4000;0.0904;-0.7678;
359.7000;0.0855;-0.7769;
360.0000;0.0928;-0.7678;
360.3000;0.0863;-0.7769;
360.6000;0.0847;-0.7859;
360.9000;0.0904;-0.7701;
361.2000;0.0961;-0.7655;
361.5000;0.0904;-0.7746;
361.8000;0.0952;-0.7701;
362.1000;0.0912;-0.7859;
362.4000;0.0798;-0.8086;
362.7000;0.0895;-0.7814;
363.0000;0.0904;-0.7859;
363.3000;0.0920;-0.7814;
363.6000;0.0879;-0.7950;
363.9000;0.0920;-0.7905;
364.2000;0.0912;-0.7905;
364.5000;0.0977;-0.7769;
364.8000;0.0904;-0.7882;
365.1000;0.0912;-0.7882;
365.4000;0.0904;-0.7905;
365.7000;0.0879;-0.8018;
366.0000;0.0928;-0.7995;
366.3000;0.0904;-0.8040;
366.6000;0.0895;-0.7972;
366.9000;0.0936;-0.7882;
367.2000;0.0920;-0.7814;
367.5000;0.0920;-0.7859;
367.8000;0.0936;-0.7882;
368.1000;0.0920;-0.7927;
368.4000;0.0895;-0.7972;
368.7000;0.0928;-0.7905;
369.0000;0.0912;-0.7859;
369.3000;0.0838;-0.8040;
369.6000;0.0912;-0.7814;
369.9000;0.0879;-0.7859;
370.2000;0.0928;-0.7678;
370.5000;0.0920;-0.7655;
370.8000;0.0879;-0.7746;
371.1000;0.0920;-0.7678;
371.4000;0.0855;-0.7859;
371.7000;0.0887;-0.7814;
372.0000;0.0904;-0.7791;
372.3000;0.0920;-0.7746;
372.6000;0.0855;-0.7859;
372.9000;0.0904;-0.7769;
373.2000;0.1066;-0.7338;
373.5000;0.0912;-0.7746;
373.8000;0.0904;-0.7746;
374.1000;0.0928;-0.7769;
374.4000;0.0912;-0.7859;
374.7000;0.0936;-0.7723;
375.0000;0.0912;-0.7769;
375.3000;0.0904;-0.7746;
375.6000;0.0887;-0.7791;
375.9000;0.0895;-0.7791;
376.2000;0.0904;-0.7746;
376.5000;0.0887;-0.7769;
376.8000;0.0879;-0.7814;
377.1000;0.0904;-0.7837;
377.4000;0.0904;-0.7859;
377.7000;0.0904;-0.7882;
378.0000;0.0969;-0.7701;
378.3000;0.0887;-0.7859;
378.6000;0.0928;-0.7814;
378.9000;0.0887;-0.7882;
379.2000;0.0838;-0.7905;
379.5000;0.0977;-0.7587;
379.8000;0.0912;-0.7723;
380.1000;0.0928;-0.7723;
380.4000;0.0895;-0.7769;
380.7000;0.0895;-0.7814;
381.0000;0.0765;-0.8040;
381.3000;0.0936;-0.7610;
381.6000;0.0912;-0.7769;
381.9000;0.0969;-0.7610;
382.2000;0.0912;-0.7791;
382.5000;0.0887;-0.7746;
382.8000;0.0847;-0.7882;
383.1000;0.0773;-0.8108;
383.4000;0.0920;-0.7791;
383.7000;0.0904;-0.7859;
384.0000;0.0920;-0.7859;
384.3000;0.0936;-0.7814;
384.6000;0.0912;-0.7905;
384.9000;0.0912;-0.7905;
385.2000;0.0879;-0.7905;
385.5000;0.0952;-0.7701;
385.8000;0.0879;-0.7837;
386.1000;0.0895;-0.7769;
386.4000;0.0895;-0.7746;
386.7000;0.0895;-0.7746;
387.0000;0.0920;-0.7746;
387.3000;0.0912;-0.7791;
387.6000;0.0904;-0.7769;
387.9000;0.0871;-0.7814;
388.2000;0.0944;-0.7723;
388.5000;0.0887;-0.7769;
388.8000;0.0912;-0.7791;
389.1000;0.0912;-0.7769;
389.4000;0.0887;-0.7746;
389.7000;0.0912;-0.7678;
390.0000;0.0912;-0.7655;
390.3000;0.0912;-0.7678;
390.6000;0.0895;-0.7746;
390.9000;0.0904;-0.7701;
391.2000;0.0904;-0.7746;
391.5000;0.0847;-0.7882;
391.8000;0.0871;-0.7837;
392.1000;0.0887;-0.7814;
392.4000;0.0928;-0.7701;
392.7000;0.0920;-0.7701;
393.0000;0.0895;-0.7769;
393.3000;0.0871;-0.7837;
393.6000;0.0912;-0.7814;
393.9000;0.0944;-0.7814;
394.2000;0.0928;-0.7859;
394.5000;0.0944;-0.7791;
394.8000;0.0904;-0.7814;
395.1000;0.0928;-0.7837;
395.4000;0.0985;-0.7655;
395.7000;0.0920;-0.7791;
396.0000;0.0904;-0.7859;
396.3000;0.0855;-0.7927;
396.6000;0.0928;-0.7746;
396.9000;0.0912;-0.7837;
397.2000;0.0904;-0.7814;
397.5000;0.0912;-0.7791;
397.8000;0.0912;-0.7905;
398.1000;0.0920;-0.7927;
398.4000;0.0912;-0.7972;
398.7000;0.0912;-0.7927;
399.0000;0.0920;-0.7995;
399.3000;0.0912;-0.7972;
399.6000;0.0969;-0.7905;
399.9000;0.0904;-0.8086;
400.2000;0.1009;-0.7882;
400.5000;0.0904;-0.8040;
400.8000;0.0879;-0.8018;
401.1000;0.0912;-0.7905;
401.4000;0.0895;-0.7927;
401.7000;0.0887;-0.7927;
402.0000;0.0879;-0.7995;
402.3000;0.0904;-0.7950;
402.6000;0.0936;-0.7927;
402.9000;0.0912;-0.7972;
403.2000;0.0855;-0.8040;
403.5000;0.0895;-0.7950;
403.8000;0.0912;-0.7927;
404.1000;0.0912;-0.8018;
404.4000;0.0944;-0.7950;
404.7000;0.0904;-0.8040;
405.0000;0.0855;-0.8108;
405.3000;0.0912;-0.7972;
405.6000;0.0928;-0.7905;
405.9000;0.0887;-0.7972;
406.2000;0.0904;-0.7950;
406.5000;0.0904;-0.7950;
406.8000;0.0895;-0.7995;
407.1000;0.0895;-0.8063;
407.4000;0.0814;-0.8290;
407.7000;0.0912;-0.8108;
408.0000;0.0920;-0.8063;
408.3000;0.0912;-0.7995;
408.6000;0.0871;-0.8018;
408.9000;0.0895;-0.7995;
409.2000;0.0912;-0.8018;
409.5000;0.0773;-0.8403;
409.8000;0.0920;-0.8131;
410.1000;0.0920;-0.8086;
410.4000;0.0920;-0.8063;
410.7000;0.0895;-0.8108;
411.0000;0.0920;-0.8040;
411.3000;0.0928;-0.8086;
411.6000;0.0944;-0.7972;
411.9000;0.0895;-0.8176;
412.2000;0.0912;-0.8108;
412.5000;0.0912;-0.8063;
412.8000;0.0912;-0.8040;
413.1000;0.0895;-0.8063;
413.4000;0.0920;-0.8040;
413.7000;0.0944;-0.8018;
414.0000;0.0895;-0.8131;
414.3000;0.0928;-0.8063;
414.6000;0.0928;-0.7995;
414.9000;0.0895;-0.8176;
415.2000;0.0944;-0.8199;
415.5000;0.0920;-0.8267;
415.8000;0.0928;-0.8335;
416.1000;0.0920;-0.8312;
416.4000;0.0904;-0.8312;
416.7000;0.0920;-0.8244;
417.0000;0.0822;-0.8448;
417.3000;0.0928;-0.8244;
417.6000;0.0887;-0.8290;
417.9000;0.0904;-0.8154;
418.2000;0.0969;-0.7882;
418.5000;0.0806;-0.8267;
418.8000;0.0912;-0.8108;
419.1000;0.0920;-0.8154;
419.4000;0.0871;-0.8199;
419.7000;0.1018;-0.7814;
420.0000;0.0814;-0.8290;
420.3000;0.0887;-0.8086;
420.6000;0.0912;-0.8040;
420.9000;0.0912;-0.8063;
421.2000;0.0904;-0.8154;
421.5000;0.0920;-0.8154;
421.8000;0.0936;-0.8040;
422.1000;0.0928;-0.7995;
422.4000;0.0904;-0.8086;
422.7000;0.0904;-0.8086;
423.0000;0.0904;-0.8086;
423.3000;0.0944;-0.7950;
423.6000;0.0863;-0.8063;
423.9000;0.0912;-0.7927;
424.2000;0.0944;-0.7882;
424.5000;0.0952;-0.7859;
424.8000;0.0912;-0.7882;
425.1000;0.0928;-0.7814;
425.4000;0.0920;-0.7791;
425.7000;0.0920;-0.7791;
426.0000;0.0920;-0.7814;
426.3000;0.0887;-0.7859;
426.6000;0.0985;-0.7701;
426.9000;0.0920;-0.7905;
427.2000;0.0912;-0.7859;
427.5000;0.0936;-0.7814;
427.8000;0.1026;-0.7497;
428.1000;0.0912;-0.7701;
428.4000;0.0944;-0.7633;
428.7000;0.0920;-0.7723;
429.0000;0.0887;-0.7791;
429.3000;0.0863;-0.7837;
429.6000;0.0920;-0.7678;
429.9000;0.0904;-0.7701;
430.2000;0.0855;-0.7769;
430.5000;0.0985;-0.7452;
430.8000;0.0871;-0.7746;
431.1000;0.0822;-0.7814;
431.4000;0.0944;-0.7610;
431.7000;0.0904;-0.7701;
432.0000;0.0895;-0.7791;
432.3000;0.0863;-0.7950;
432.6000;0.0912;-0.7837;
432.9000;0.0904;-0.7837;
433.2000;0.0781;-0.8086;
433.5000;0.0936;-0.7701;
433.8000;0.0895;-0.7723;
434.1000;0.0912;-0.7655;
434.4000;0.0912;-0.7565;
434.7000;0.0936;-0.7610;
435.0000;0.0895;-0.7723;
435.3000;0.0928;-0.7678;
435.6000;0.0904;-0.7791;
435.9000;0.0895;-0.7859;
436.2000;0.0879;-0.7859;
436.5000;0.0904;-0.7814;
436.8000;0.0904;-0.7701;
437.1000;0.0904;-0.7769;
437.4000;0.0895;-0.7791;
437.7000;0.0912;-0.7746;
438.0000;0.0904;-0.7769;
438.3000;0.0904;-0.7814;
438.6000;0.0920;-0.7769;
438.9000;0.0920;-0.7791;
439.2000;0.0895;-0.7769;
439.5000;0.0936;-0.7678;
439.8000;0.0920;-0.7769;
440.1000;0.0912;-0.7769;
440.4000;0.0887;-0.7837;
440.7000;0.0863;-0.7905;
441.0000;0.0920;-0.7746;
441.3000;0.0887;-0.7791;
441.6000;0.0895;-0.7723;
441.9000;0.0928;-0.7678;
442.2000;0.0920;-0.7837;
442.5000;0.0912;-0.7791;
442.8000;0.0912;-0.7837;
443.1000;0.0912;-0.7882;
443.4000;0.0961;-0.7791;
443.7000;0.0912;-0.7791;
444.0000;0.0847;-0.8063;
444.3000;0.0928;-0.7905;
444.6000;0.0904;-0.7905;
444.9000;0.0920;-0.7905;
445.2000;0.0895;-0.7927;
445.5000;0.0871;-0.7995;
445.8000;0.0887;-0.8018;
446.1000;0.0912;-0.7927;
446.4000;0.0895;-0.7972;
446.7000;0.0895;-0.7905;
447.0000;0.0920;-0.7837;
447.3000;0.0912;-0.7859;
447.6000;0.0895;-0.7995;
447.9000;0.0920;-0.7972;
448.2000;0.0887;-0.7927;
448.5000;0.0904;-0.7882;
448.8000;0.0847;-0.7972;
449.1000;0.0936;-0.7837;
449.4000;0.0928;-0.7859;
449.7000;0.0830;-0.8176;
450.0000;0.0985;-0.7746;
450.3000;0.0904;-0.7927;
450.6000;0.0912;-0.7905;
450.9000;0.0920;-0.7927;
451.2000;0.0928;-0.7859;
451.5000;0.0887;-0.7905;
451.8000;0.0904;-0.7791;
452.1000;0.0904;-0.7882;
452.4000;0.0928;-0.7837;
452.7000;0.0928;-0.7905;
453.0000;0.0928;-0.7927;
453.3000;0.0961;-0.7791;
453.6000;0.0920;-0.7927;
453.9000;0.0912;-0.7905;
454.2000;0.0904;-0.7882;
454.5000;0.0887;-0.7882;
454.8000;0.0920;-0.7791;
455.1000;0.0912;-0.7746;
455.4000;0.0912;-0.7746;
455.7000;0.0887;-0.7723;
456.0000;0.0912;-0.7746;
456.3000;0.0936;-0.7746;
456.6000;0.0855;-0.7905;
456.9000;0.0895;-0.7927;
457.2000;0.0904;-0.7882;
457.5000;0.0912;-0.7882;
457.8000;0.0928;-0.7814;
458.1000;0.0920;-0.7769;
458.4000;0.0928;-0.7723;
458.7000;0.0895;-0.7769;
459.0000;0.0920;-0.7746;
459.3000;0.0904;-0.7746;
459.6000;0.0936;-0.7655;
459.9000;0.0928;-0.7814;
460.2000;0.0928;-0.7791;
460.5000;0.0904;-0.7882;
460.8000;0.0904;-0.7882;
461.1000;0.0879;-0.7859;
461.4000;0.0895;-0.7859;
461.7000;0.0830;-0.8018;
462.0000;0.0895;-0.7882;
462.3000;0.0912;-0.7859;
462.6000;0.0920;-0.7723;
462.9000;0.0879;-0.7791;
463.2000;0.0912;-0.7791;
463.5000;0.0936;-0.7701;
463.8000;0.0936;-0.7723;
464.1000;0.0920;-0.7769;
464.4000;0.0879;-0.7905;
464.7000;0.0879;-0.7905;
465.0000;0.1009;-0.7565;
465.3000;0.0912;-0.7769;
465.6000;0.0887;-0.7769;
465.9000;0.0895;-0.7769;
466.2000;0.0912;-0.7723;
466.5000;0.0904;-0.7723;
466.8000;0.0887;-0.7678;
467.1000;0.0904;-0.7723;
467.4000;0.0887;-0.7678;
467.7000;0.0920;-0.7565;
468.0000;0.0904;-0.7610;
468.3000;0.0806;-0.7791;
468.6000;0.0944;-0.7497;
468.9000;0.0895;-0.7610;
469.2000;0.0912;-0.7519;
469.5000;0.0904;-0.7565;
469.8000;0.0920;-0.7655;
470.1000;0.0928;-0.7723;
470.4000;0.0952;-0.7655;
470.7000;0.0936;-0.7814;
471.0000;0.0895;-0.7972;
471.3000;0.0920;-0.7905;
471.6000;0.0944;-0.7769;
471.9000;0.0920;-0.7837;
472.2000;0.0912;-0.7882;
472.5000;0.0887;-0.7859;
472.8000;0.0871;-0.7972;
473.1000;0.0920;-0.7814;
473.4000;0.0895;-0.7882;
473.7000;0.0936;-0.7769;
474.0000;0.0944;-0.7701;
474.3000;0.0895;-0.7769;
474.6000;0.0912;-0.7701;
474.9000;0.0936;-0.7678;
475.2000;0.0806;-0.8040;
475.5000;0.0920;-0.7723;
475.8000;0.0895;-0.7814;
476.1000;0.0993;-0.7542;
476.4000;0.0895;-0.7882;
476.7000;0.0920;-0.7769;
477.0000;0.0912;-0.7746;
477.3000;0.0912;-0.7723;
477.6000;0.0952;-0.7610;
477.9000;0.0887;-0.7746;
478.2000;0.0904;-0.7746;
478.5000;0.0895;-0.7769;
478.8000;0.0912;-0.7701;
479.1000;0.0895;-0.7837;
479.4000;0.0895;-0.7859;
479.7000;0.0904;-0.7859;
480.0000;0.0920;-0.7837;
480.3000;0.0920;-0.7791;
480.6000;0.0879;-0.7859;
480.9000;0.0920;-0.7791;
481.2000;0.0920;-0.7746;
481.5000;0.0749;-0.8199;
481.8000;0.0887;-0.7837;
482.1000;0.0912;-0.7746;
482.4000;0.0904;-0.7746;
482.7000;0.0904;-0.7678;
483.0000;0.0936;-0.7519;
483.3000;0.0912;-0.7655;
483.6000;0.0928;-0.7610;
483.9000;0.0863;-0.7769;
484.2000;0.0887;-0.7723;
484.5000;0.1001;-0.7338;
484.8000;0.0912;-0.7678;
485.1000;0.0944;-0.7655;
485.4000;0.0887;-0.7769;
485.7000;0.0904;-0.7723;
486.0000;0.0920;-0.7723;
486.3000;0.0961;-0.7610;
486.6000;0.0928;-0.7746;
486.9000;0.0912;-0.7882;
487.2000;0.0847;-0.7927;
487.5000;0.0871;-0.7791;
487.8000;0.0887;-0.7701;
488.1000;0.0920;-0.7633;
488.4000;0.0928;-0.7565;
488.7000;0.0920;-0.7655;
489.0000;0.0879;-0.7723;
489.3000;0.0912;-0.7678;
489.6000;0.0895;-0.7723;
489.9000;0.0920;-0.7633;
490.2000;0.0977;-0.7519;
490.5000;0.0895;-0.7678;
490.8000;0.0904;-0.7723;
491.1000;0.0936;-0.7701;
491.4000;0.0912;-0.7769;
491.7000;0.0928;-0.7655;
492.0000;0.0798;-0.7927;
492.3000;0.0920;-0.7633;
492.6000;0.0920;-0.7701;
492.9000;0.0936;-0.7633;
493.2000;0.0920;-0.7678;
493.5000;0.0928;-0.7610;
493.8000;0.0928;-0.7701;
494.1000;0.0912;-0.7769;
494.4000;0.0952;-0.7678;
494.7000;0.0920;-0.7701;
495.0000;0.0920;-0.7633;
495.3000;0.0879;-0.7723;
495.6000;0.0928;-0.7701;
495.9000;0.0985;-0.7542;
496.2000;0.0887;-0.7814;
496.5000;0.0912;-0.7678;
496.8000;0.0904;-0.7723;
497.1000;0.0928;-0.7610;
497.4000;0.0920;-0.7610;
497.7000;0.0863;-0.7701;
498.0000;0.0912;-0.7655;
498.3000;0.0944;-0.7565;
498.6000;0.0879;-0.7769;
498.9000;0.0928;-0.7701;
499.2000;0.0985;-0.7542;
499.5000;0.0912;-0.7701;
499.8000;0.0920;-0.7678;
500.1000;0.0920;-0.7701;
500.4000;0.0904;-0.7837;
500.7000;0.0904;-0.7859;
501.0000;0.0879;-0.7972;
501.3000;0.1001;-0.7655;
501.6000;0.0928;-0.7814;
501.9000;0.0928;-0.7769;
502.2000;0.0895;-0.7814;
502.5000;0.0928;-0.7610;
502.8000;0.0904;-0.7633;
503.1000;0.0904;-0.7587;
503.4000;0.0773;-0.8063;
503.7000;0.0904;-0.7837;
504.0000;0.0912;-0.7859;
504.3000;0.0887;-0.7859;
504.6000;0.0887;-0.7814;
504.9000;0.0904;-0.7837;
505.2000;0.0912;-0.7905;
505.5000;0.0912;-0.7837;
505.8000;0.0944;-0.7701;
506.1000;0.0912;-0.7814;
506.4000;0.0887;-0.7859;
506.7000;0.0928;-0.7746;
507.0000;0.0895;-0.7814;
507.3000;0.0904;-0.7859;
507.6000;0.0904;-0.7859;
507.9000;0.0855;-0.7950;
508.2000;0.0928;-0.7769;
508.5000;0.0920;-0.7746;
508.8000;0.0936;-0.7678;
509.1000;0.0904;-0.7678;
509.4000;0.0985;-0.7633;
509.7000;0.0912;-0.7678;
510.0000;0.0912;-0.7701;
510.3000;0.0936;-0.7633;
510.6000;0.0904;-0.7769;
510.9000;0.0879;-0.7882;
511.2000;0.0944;-0.7633;
511.5000;0.0895;-0.7769;
511.8000;0.0895;-0.7655;
512.1000;0.0920;-0.7633;
512.4000;0.0904;-0.7723;
512.7000;0.0912;-0.7746;
513.0000;0.0912;-0.7723;
513.3000;0.0928;-0.7633;
513.6000;0.0920;-0.7678;
513.9000;0.0944;-0.7701;
514.2000;0.0912;-0.7723;
514.5000;0.0920;-0.7633;
514.8000;0.0904;-0.7565;
515.1000;0.0895;-0.7565;
515.4000;0.0904;-0.7542;
515.7000;0.0969;-0.7361;
516.0000;0.0781;-0.7769;
516.3000;0.0879;-0.7542;
516.6000;0.0904;-0.7519;
516.9000;0.0895;-0.7474;
517.2000;0.0912;-0.7429;
517.5000;0.0912;-0.7384;
517.8000;0.0912;-0.7474;
518.1000;0.0912;-0.7497;
518.4000;0.0936;-0.7474;
518.7000;0.0969;-0.7406;
519.0000;0.0928;-0.7519;
519.3000;0.0887;-0.7655;
519.6000;0.0920;-0.7565;
519.9000;0.0928;-0.7542;
520.2000;0.0944;-0.7542;
520.5000;0.0912;-0.7678;
520.8000;0.0838;-0.7837;
521.1000;0.0879;-0.7701;
521.4000;0.0904;-0.7746;
521.7000;0.0920;-0.7769;
522.0000;0.0912;-0.7746;
522.3000;0.0838;-0.8018;
522.6000;0.0928;-0.7859;
522.9000;0.0912;-0.7905;
523.2000;0.0904;-0.7882;
523.5000;0.0920;-0.7859;
523.8000;0.0961;-0.7791;
524.1000;0.0895;-0.7905;
524.4000;0.0904;-0.7859;
524.7000;0.0944;-0.7701;
525.0000;0.0904;-0.7791;
525.3000;0.1058;-0.7452;
525.6000;0.0961;-0.7701;
525.9000;0.0920;-0.7837;
526.2000;0.0920;-0.7791;
526.5000;0.0749;-0.8063;
526.8000;0.0879;-0.7746;
527.1000;0.0920;-0.7610;
527.4000;0.0765;-0.7972;
527.7000;0.0895;-0.7723;
528.0000;0.0928;-0.7678;
528.3000;0.0863;-0.7905;
528.6000;0.0928;-0.7769;
528.9000;0.0936;-0.7746;
529.2000;0.0920;-0.7814;
529.5000;0.0920;-0.7859;
529.8000;0.0944;-0.7859;
530.1000;0.0904;-0.7882;
530.4000;0.0912;-0.7837;
530.7000;0.0904;-0.7905;
531.0000;0.0912;-0.7859;
531.3000;0.0904;-0.7927;
531.6000;0.0928;-0.7837;
531.9000;0.0920;-0.7814;
532.2000;0.0936;-0.7791;
532.5000;0.0936;-0.7882;
532.8000;0.0912;-0.7859;
533.1000;0.0920;-0.7905;
533.4000;0.0904;-0.7859;
533.7000;0.0920;-0.7746;
534.0000;0.0920;-0.7814;
534.3000;0.0928;-0.7859;
534.6000;0.0838;-0.8086;
534.9000;0.0944;-0.7905;
535.2000;0.0985;-0.7814;
535.5000;0.0928;-0.7927;
535.8000;0.0920;-0.7927;
536.1000;0.0920;-0.7859;
536.4000;0.0936;-0.7769;
536.7000;0.0912;-0.7791;
537.0000;0.0904;-0.7791;
537.3000;0.0928;-0.7746;
537.6000;0.0912;-0.7723;
537.9000;0.0928;-0.7723;
538.2000;0.0920;-0.7701;
538.5000;0.0952;-0.7610;
538.8000;0.0895;-0.7723;
539.1000;0.0920;-0.7655;
539.4000;0.0904;-0.7769;
539.7000;0.0871;-0.7837;
540.0000;0.0904;-0.7655;
540.3000;0.0920;-0.7655;
540.6000;0.0912;-0.7746;
540.9000;0.0920;-0.7814;
541.2000;0.0944;-0.7746;
541.5000;0.0912;-0.7769;
541.8000;0.0904;-0.7701;
542.1000;0.0895;-0.7769;
542.4000;0.0944;-0.7633;
542.7000;0.0993;-0.7565;
543.0000;0.0944;-0.7701;
543.3000;0.0920;-0.7791;
543.6000;0.0912;-0.7814;
543.9000;0.0952;-0.7746;
544.2000;0.0838;-0.7972;
544.5000;0.0936;-0.7723;
544.8000;0.0936;-0.7723;
545.1000;0.0985;-0.7565;
545.4000;0.0928;-0.7701;
545.7000;0.0944;-0.7655;
546.0000;0.0912;-0.7746;
546.3000;0.0952;-0.7565;
546.6000;0.0920;-0.7655;
546.9000;0.0920;-0.7655;
547.2000;0.0920;-0.7633;
547.5000;0.0895;-0.7769;
547.8000;0.0904;-0.7701;
548.1000;0.0920;-0.7769;
548.4000;0.0871;-0.7905;
548.7000;0.0920;-0.7791;
549.0000;0.0928;-0.7791;
549.3000;0.0952;-0.7701;
549.6000;0.0936;-0.7633;
549.9000;0.0977;-0.7542;
550.2000;0.0871;-0.7746;
550.5000;0.0798;-0.7950;
550.8000;0.0944;-0.7610;
551.1000;0.0879;-0.7746;
551.4000;0.0912;-0.7701;
551.7000;0.0928;-0.7655;
552.0000;0.0895;-0.7723;
552.3000;0.0936;-0.7610;
552.6000;0.0944;-0.7542;
552.9000;0.0920;-0.7633;
553.2000;0.0904;-0.7610;
553.5000;0.0895;-0.7587;
553.8000;0.0912;-0.7497;
554.1000;0.0912;-0.7519;
554.4000;0.0952;-0.7452;
554.7000;0.0863;-0.7769;
555.0000;0.0920;-0.7655;
555.3000;0.0920;-0.7701;
555.6000;0.0920;-0.7678;
555.9000;0.0895;-0.7746;
556.2000;0.0920;-0.7610;
556.5000;0.0944;-0.7497;
556.8000;0.0904;-0.7678;
557.1000;0.0920;-0.7633;
557.4000;0.0928;-0.7542;
557.7000;0.0920;-0.7587;
558.0000;0.0904;-0.7655;
558.3000;0.0944;-0.7678;
558.6000;0.0887;-0.7791;
558.9000;0.0912;-0.7769;
559.2000;0.0895;-0.7723;
559.5000;0.0920;-0.7610;
559.8000;0.0904;-0.7678;
560.1000;0.0912;-0.7723;
560.4000;0.0912;-0.7769;
560.7000;0.0912;-0.7723;
561.0000;0.0904;-0.7701;
561.3000;0.0904;-0.7746;
561.6000;0.0895;-0.7746;
561.9000;0.0895;-0.7723;
562.2000;0.0920;-0.7746;
562.5000;0.0895;-0.7791;
562.8000;0.0969;-0.7610;
563.1000;0.0912;-0.7655;
563.4000;0.0895;-0.7610;
563.7000;0.0928;-0.7701;
564.0000;0.0928;-0.7814;
564.3000;0.0920;-0.7882;
564.6000;0.0936;-0.7859;
564.9000;0.0887;-0.7927;
565.2000;0.0936;-0.7927;
565.5000;0.0928;-0.8018;
565.8000;0.0790;-0.8290;
566.1000;0.0887;-0.8040;
566.4000;0.0904;-0.7995;
566.7000;0.0904;-0.7972;
567.0000;0.1050;-0.7519;
567.3000;0.0895;-0.7814;
567.6000;0.0912;-0.7791;
567.9000;0.0936;-0.7791;
568.2000;0.0904;-0.7814;
568.5000;0.0895;-0.7791;
568.8000;0.0993;-0.7587;
569.1000;0.0920;-0.7814;
569.4000;0.0912;-0.7769;
569.7000;0.0928;-0.7791;
570.0000;0.0928;-0.7746;
570.3000;0.0798;-0.8018;
570.6000;0.1050;-0.7316;
570.9000;0.0952;-0.7610;
571.2000;0.0879;-0.7791;
571.5000;0.0904;-0.7746;
571.8000;0.0904;-0.7701;
572.1000;0.0912;-0.7701;
572.4000;0.0928;-0.7746;
572.7000;0.0920;-0.7678;
573.0000;0.0912;-0.7769;
573.3000;0.0879;-0.7746;
573.6000;0.0904;-0.7723;
573.9000;0.0920;-0.7701;
574.2000;0.0757;-0.8063;
574.5000;0.1058;-0.7293;
574.8000;0.0928;-0.7519;
575.1000;0.0936;-0.7542;
575.4000;0.0887;-0.7723;
575.7000;0.0912;-0.7678;
576.0000;0.0904;-0.7746;
576.3000;0.0912;-0.7837;
576.6000;0.0887;-0.7882;
576.9000;0.0920;-0.7769;
577.2000;0.0936;-0.7723;
577.5000;0.0879;-0.7859;
577.8000;0.0904;-0.7837;
578.1000;0.0904;-0.7814;
578.4000;0.0863;-0.7927;
578.7000;0.0838;-0.7950;
579.0000;0.0904;-0.7859;
579.3000;0.1074;-0.7429;
579.6000;0.0985;-0.7723;
579.9000;0.0895;-0.7905;
580.2000;0.0904;-0.7905;
580.5000;0.0912;-0.7859;
580.8000;0.0904;-0.7837;
581.1000;0.0969;-0.7701;
581.4000;0.0757;-0.8154;
581.7000;0.0895;-0.7905;
582.0000;0.0969;-0.7769;
582.3000;0.0912;-0.7859;
582.6000;0.0887;-0.7814;
582.9000;0.0912;-0.7610;
583.2000;0.0887;-0.7633;
583.5000;0.0912;-0.7497;
583.8000;0.0904;-0.7519;
584.1000;0.0895;-0.7519;
584.4000;0.0920;-0.7474;
584.7000;0.0920;-0.7587;
585.0000;0.0895;-0.7791;
585.3000;0.0887;-0.7791;
585.6000;0.0904;-0.7769;
585.9000;0.0895;-0.7701;
586.2000;0.0920;-0.7633;
586.5000;0.0912;-0.7723;
586.8000;0.0920;-0.7678;
587.1000;0.0912;-0.7701;
587.4000;0.0936;-0.7723;
587.7000;0.0887;-0.7701;
588.0000;0.0871;-0.7769;
588.3000;0.0879;-0.7701;
588.6000;0.0904;-0.7655;
588.9000;0.0912;-0.7610;
589.2000;0.0928;-0.7610;
589.5000;0.0928;-0.7587;
589.8000;0.0985;-0.7497;
590.1000;0.0928;-0.7610;
590.4000;0.0920;-0.7565;
590.7000;0.0920;-0.7565;
591.0000;0.0863;-0.7678;
591.3000;0.0887;-0.7633;
591.6000;0.0855;-0.7723;
591.9000;0.0895;-0.7610;
592.2000;0.0912;-0.7633;
592.5000;0.0920;-0.7565;
592.8000;0.0879;-0.7633;
593.1000;0.0920;-0.7542;
593.4000;0.0912;-0.7678;
593.7000;0.0936;-0.7610;
594.0000;0.0863;-0.7701;
594.3000;0.0920;-0.7587;
594.6000;0.0928;-0.7519;
594.9000;0.0887;-0.7610;
595.2000;0.0912;-0.7565;
595.5000;0.0904;-0.7542;
595.8000;0.0904;-0.7565;
596.1000;0.0920;-0.7519;
596.4000;0.0895;-0.7565;
596.7000;0.0904;-0.7497;
597.0000;0.0920;-0.7587;
597.3000;0.0863;-0.7791;
597.6000;0.0895;-0.7723;
597.9000;0.0912;-0.7701;
598.2000;0.0920;-0.7723;
598.5000;0.0936;-0.7746;
598.8000;0.0895;-0.7814;
599.1000;0.0912;-0.7769;
599.4000;0.0912;-0.7678;
599.7000;0.0912;-0.7633;
600.0000;0.0912;-0.7678;
600.3000;0.0952;-0.7452;
600.6000;0.0871;-0.7701;
600.9000;0.0879;-0.7723;
601.2000;0.0895;-0.7701;
601.5000;0.0879;-0.7882;
601.8000;0.0863;-0.7950;
602.1000;0.0887;-0.7950;
602.4000;0.0838;-0.8086;
602.7000;0.0871;-0.8063;
603.0000;0.0863;-0.8222;
603.3000;0.0806;-0.8403;
603.6000;0.0855;-0.8312;
603.9000;0.0879;-0.8403;
604.2000;0.0871;-0.8493;
604.5000;0.0838;-0.8652;
604.8000;0.0863;-0.8561;
605.1000;0.0863;-0.8629;
605.4000;0.0830;-0.8584;
605.7000;0.0830;-0.8607;
606.0000;0.0773;-0.8743;
606.3000;0.0790;-0.8743;
606.6000;0.0798;-0.8743;
606.9000;0.0806;-0.8765;
607.2000;0.0822;-0.8675;
607.5000;0.0847;-0.8765;
607.8000;0.0830;-0.8788;
608.1000;0.0830;-0.8788;
608.4000;0.0838;-0.8856;
608.7000;0.0863;-0.8924;
609.0000;0.0855;-0.8969;
609.3000;0.0822;-0.8992;
609.6000;0.0847;-0.8946;
609.9000;0.0838;-0.8924;
610.2000;0.0814;-0.8878;
610.5000;0.0838;-0.8878;
610.8000;0.0798;-0.8924;
611.1000;0.0806;-0.8810;
611.4000;0.0830;-0.8810;
611.7000;0.0798;-0.8901;
612.0000;0.0814;-0.8856;
612.3000;0.0806;-0.8833;
612.6000;0.0790;-0.8833;
612.9000;0.0684;-0.9105;
613.2000;0.0798;-0.8878;
613.5000;0.0814;-0.8878;
613.8000;0.0887;-0.8743;
614.1000;0.0847;-0.8833;
614.4000;0.0798;-0.8946;
614.7000;0.0814;-0.8924;
615.0000;0.0798;-0.8924;
615.3000;0.0830;-0.8765;
615.6000;0.0806;-0.8833;
615.9000;0.0830;-0.8788;
616.2000;0.0676;-0.9060;
616.5000;0.0765;-0.8856;
616.8000;0.0830;-0.8810;
617.1000;0.0904;-0.8743;
617.4000;0.0928;-0.8652;
617.7000;0.0814;-0.8833;
618.0000;0.0765;-0.8856;
618.3000;0.0790;-0.8765;
618.6000;0.0814;-0.8697;
618.9000;0.0798;-0.8765;
619.2000;0.0806;-0.8765;
619.5000;0.0838;-0.8675;
619.8000;0.0806;-0.8810;
620.1000;0.0790;-0.8810;
620.4000;0.0798;-0.8901;
620.7000;0.0749;-0.9037;
621.0000;0.0790;-0.9037;
621.3000;0.0659;-0.9241;
621.6000;0.0773;-0.8969;
621.9000;0.0798;-0.8924;
622.2000;0.0798;-0.8969;
622.5000;0.0798;-0.8878;
622.8000;0.0692;-0.9218;
623.1000;0.0781;-0.9014;
623.4000;0.0749;-0.9173;
623.7000;0.0838;-0.8924;
624.0000;0.0806;-0.8924;
624.3000;0.0798;-0.8901;
624.6000;0.0733;-0.9060;
624.9000;0.0806;-0.8856;
625.2000;0.0814;-0.8924;
625.5000;0.0798;-0.8878;
625.8000;0.0822;-0.8833;
626.1000;0.0773;-0.8856;
626.4000;0.0781;-0.8946;
626.7000;0.0806;-0.8946;
627.0000;0.0806;-0.8901;
627.3000;0.0773;-0.8969;
627.6000;0.0773;-0.8946;
627.9000;0.0781;-0.8878;
628.2000;0.0757;-0.8878;
628.5000;0.0781;-0.8833;
628.8000;0.0798;-0.8788;
629.1000;0.0806;-0.8810;
629.4000;0.0781;-0.8833;
629.7000;0.0765;-0.8946;
630.0000;0.0798;-0.8856;
630.3000;0.0773;-0.8969;
630.6000;0.0773;-0.9014;
630.9000;0.0765;-0.9060;
631.2000;0.0790;-0.9037;
631.5000;0.0806;-0.9105;
631.8000;0.0765;-0.9150;
632.1000;0.0765;-0.9105;
632.4000;0.0757;-0.9082;
632.7000;0.0781;-0.9014;
633.0000;0.0773;-0.9082;
633.3000;0.0781;-0.9037;
633.6000;0.0790;-0.9037;
633.9000;0.0912;-0.8743;
634.2000;0.0798;-0.8924;
634.5000;0.0790;-0.8946;
634.8000;0.0765;-0.8992;
635.1000;0.0790;-0.8878;
635.4000;0.0757;-0.9014;
635.7000;0.0790;-0.8856;
636.0000;0.0765;-0.8924;
636.3000;0.0773;-0.8833;
636.6000;0.0757;-0.8833;
636.9000;0.0781;-0.8901;
637.2000;0.0822;-0.8856;
637.5000;0.0798;-0.8992;
637.8000;0.0814;-0.8924;
638.1000;0.0879;-0.8833;
638.4000;0.0822;-0.8992;
638.7000;0.0781;-0.8946;
639.0000;0.0773;-0.8901;
639.3000;0.0749;-0.8969;
639.6000;0.0733;-0.8969;
639.9000;0.0765;-0.8856;
640.2000;0.0790;-0.8788;
640.5000;0.0651;-0.9150;
640.8000;0.0757;-0.8788;
641.1000;0.0643;-0.9037;
641.4000;0.0708;-0.8946;
641.7000;0.0781;-0.8878;
642.0000;0.0773;-0.8833;
642.3000;0.0855;-0.8516;
642.6000;0.0757;-0.8788;
642.9000;0.0847;-0.8607;
643.2000;0.0700;-0.8946;
643.5000;0.0781;-0.8765;
643.8000;0.0733;-0.8833;
644.1000;0.0765;-0.8743;
644.4000;0.0619;-0.9082;
644.7000;0.0847;-0.8516;
645.0000;0.0765;-0.8720;
645.3000;0.0798;-0.8675;
645.6000;0.0757;-0.8788;
645.9000;0.0757;-0.8765;
646.2000;0.0749;-0.8810;
646.5000;0.0765;-0.8833;
646.8000;0.0773;-0.8901;
647.1000;0.0790;-0.8833;
647.4000;0.0773;-0.8901;
647.7000;0.0741;-0.9037;
648.0000;0.0781;-0.8992;
648.3000;0.0781;-0.8992;
648.6000;0.0757;-0.9128;
648.9000;0.0781;-0.9037;
649.2000;0.0765;-0.8992;
649.5000;0.0781;-0.8856;
649.8000;0.0773;-0.8856;
650.1000;0.0757;-0.8901;
650.4000;0.0757;-0.8946;
650.7000;0.0798;-0.8901;
651.0000;0.0765;-0.9014;
651.3000;0.0781;-0.8924;
651.6000;0.0741;-0.8992;
651.9000;0.0773;-0.8856;
652.2000;0.0700;-0.8946;
652.5000;0.0741;-0.8810;
652.8000;0.0749;-0.8675;
653.1000;0.0838;-0.8493;
653.4000;0.0790;-0.8652;
653.7000;0.0781;-0.8675;
654.0000;0.0757;-0.8743;
654.3000;0.0806;-0.8675;
654.6000;0.0773;-0.8833;
654.9000;0.0765;-0.8901;
655.2000;0.0749;-0.8901;
655.5000;0.0741;-0.8878;
655.8000;0.0790;-0.8765;
656.1000;0.0700;-0.9037;
656.4000;0.0790;-0.8810;
656.7000;0.0847;-0.8652;
657.0000;0.0749;-0.8878;
657.3000;0.0716;-0.9014;
657.6000;0.0838;-0.8720;
657.9000;0.0765;-0.8992;
658.2000;0.0773;-0.8946;
658.5000;0.0790;-0.8878;
658.8000;0.0765;-0.8992;
659.1000;0.0733;-0.9060;
659.4000;0.0765;-0.8992;
659.7000;0.0798;-0.8901;
660.0000;0.0749;-0.8946;
660.3000;0.0757;-0.8969;
660.6000;0.0757;-0.9014;
660.9000;0.0773;-0.8946;
661.2000;0.0871;-0.8810;
661.5000;0.0830;-0.8856;
661.8000;0.0781;-0.8924;
662.1000;0.0765;-0.8969;
662.4000;0.0790;-0.8901;
662.7000;0.0781;-0.8878;
663.0000;0.0765;-0.8901;
663.3000;0.0790;-0.8810;
663.6000;0.0790;-0.8810;
663.9000;0.0757;-0.8901;
664.2000;0.0765;-0.8878;
664.5000;0.0765;-0.8833;
664.8000;0.0757;-0.8969;
665.1000;0.0741;-0.9082;
665.4000;0.0749;-0.9014;
665.7000;0.0790;-0.8969;
666.0000;0.0741;-0.9014;
666.3000;0.0700;-0.9082;
666.6000;0.0724;-0.9060;
666.9000;0.0757;-0.8924;
667.2000;0.0773;-0.8924;
667.5000;0.0757;-0.8992;
667.8000;0.0855;-0.8720;
668.1000;0.0765;-0.8992;
668.4000;0.0757;-0.8992;
668.7000;0.0659;-0.9196;
669.0000;0.0773;-0.8924;
669.3000;0.0765;-0.8924;
669.6000;0.0700;-0.9196;
669.9000;0.0765;-0.8969;
670.2000;0.0765;-0.8924;
670.5000;0.0757;-0.8856;
670.8000;0.0749;-0.8901;
671.1000;0.0773;-0.8856;
671.4000;0.0741;-0.8833;
671.7000;0.0798;-0.8788;
672.0000;0.0757;-0.9060;
672.3000;0.0749;-0.9150;
672.6000;0.0838;-0.8810;
672.9000;0.0741;-0.9128;
673.2000;0.0847;-0.8833;
673.5000;0.0781;-0.9037;
673.8000;0.0798;-0.8969;
674.1000;0.0790;-0.9014;
674.4000;0.0741;-0.9082;
674.7000;0.0765;-0.9014;
675.0000;0.0765;-0.8992;
675.3000;0.0765;-0.9060;
675.6000;0.0781;-0.8946;
675.9000;0.0757;-0.9014;
676.2000;0.0741;-0.9037;
676.5000;0.0790;-0.9014;
676.8000;0.0741;-0.9173;
677.1000;0.0790;-0.8969;
677.4000;0.0700;-0.9173;
677.7000;0.0659;-0.9422;
678.0000;0.0749;-0.9105;
678.3000;0.0765;-0.9037;
678.6000;0.0733;-0.9082;
678.9000;0.0773;-0.8969;
679.2000;0.0757;-0.9082;
679.5000;0.0733;-0.9105;
679.8000;0.0757;-0.9105;
680.1000;0.0781;-0.9014;
680.4000;0.0765;-0.9014;
680.7000;0.0684;-0.9105;
681.0000;0.0667;-0.9105;
681.3000;0.0855;-0.8697;
681.6000;0.0741;-0.8992;
681.9000;0.0749;-0.8924;
682.2000;0.0724;-0.8946;
682.5000;0.0749;-0.8878;
682.8000;0.0733;-0.8924;
683.1000;0.0781;-0.8901;
683.4000;0.0773;-0.8901;
683.7000;0.0773;-0.8901;
684.0000;0.0765;-0.9014;
684.3000;0.0765;-0.9037;
684.6000;0.0798;-0.8969;
684.9000;0.0765;-0.9014;
685.2000;0.0773;-0.9014;
685.5000;0.0757;-0.8992;
685.8000;0.0749;-0.8946;
686.1000;0.0757;-0.8946;
686.4000;0.0765;-0.8924;
686.7000;0.0781;-0.8878;
687.0000;0.0781;-0.8878;
687.3000;0.0749;-0.8878;
687.6000;0.0741;-0.8924;
687.9000;0.0790;-0.8856;
688.2000;0.0773;-0.9037;
688.5000;0.0757;-0.8924;
688.8000;0.0855;-0.8675;
689.1000;0.0757;-0.8743;
689.4000;0.0733;-0.8833;
689.7000;0.0773;-0.8652;
690.0000;0.0757;-0.8743;
690.3000;0.0765;-0.8675;
690.6000;0.0749;-0.8697;
690.9000;0.0757;-0.8652;
691.2000;0.0871;-0.8471;
691.5000;0.0757;-0.8743;
691.8000;0.0749;-0.8856;
692.1000;0.0749;-0.8810;
692.4000;0.0659;-0.8992;
692.7000;0.0838;-0.8493;
693.0000;0.0741;-0.8743;
693.3000;0.0741;-0.8720;
693.6000;0.0847;-0.8425;
693.9000;0.0757;-0.8720;
694.2000;0.0781;-0.8697;
694.5000;0.0749;-0.8810;
694.8000;0.0814;-0.8788;
695.1000;0.0781;-0.8810;
695.4000;0.0814;-0.8697;
695.7000;0.0806;-0.8652;
696.0000;0.0765;-0.8720;
696.3000;0.0733;-0.8810;
696.6000;0.0773;-0.8788;
696.9000;0.0749;-0.8969;
697.2000;0.0749;-0.8946;
697.5000;0.0773;-0.9037;
697.8000;0.0757;-0.8992;
698.1000;0.0757;-0.8946;
698.4000;0.0765;-0.8901;
698.7000;0.0749;-0.8924;
699.0000;0.0724;-0.9037;
699.3000;0.0749;-0.8969;
699.6000;0.0757;-0.8878;
699.9000;0.0741;-0.8856;
700.2000;0.0749;-0.8856;
700.5000;0.0781;-0.8878;
700.8000;0.0733;-0.9014;
701.1000;0.0757;-0.8878;
701.4000;0.0749;-0.8810;
701.7000;0.0806;-0.8765;
702.0000;0.0757;-0.8901;
702.3000;0.0724;-0.8901;
702.6000;0.0757;-0.8833;
702.9000;0.0765;-0.8810;
703.2000;0.0757;-0.8743;
703.5000;0.0814;-0.8561;
703.8000;0.0741;-0.8765;
704.1000;0.0757;-0.8675;
704.4000;0.0667;-0.8901;
704.7000;0.0749;-0.8675;
705.0000;0.0757;-0.8629;
705.3000;0.0765;-0.8652;
705.6000;0.0749;-0.8743;
705.9000;0.0676;-0.9014;
706.2000;0.0724;-0.8856;
706.5000;0.0716;-0.8833;
706.8000;0.0749;-0.8788;
707.1000;0.0757;-0.8788;
707.4000;0.0765;-0.8810;
707.7000;0.0895;-0.8493;
708.0000;0.0798;-0.8720;
708.3000;0.0684;-0.8969;
708.6000;0.0741;-0.8901;
708.9000;0.0741;-0.8810;
709.2000;0.0757;-0.8810;
709.5000;0.0724;-0.8856;
709.8000;0.0757;-0.8856;
710.1000;0.0741;-0.8969;
710.4000;0.0790;-0.8924;
710.7000;0.0798;-0.8833;
711.0000;0.0757;-0.8969;
711.3000;0.0749;-0.8946;
711.6000;0.0749;-0.8969;
711.9000;0.0635;-0.9263;
712.2000;0.0773;-0.8901;
712.5000;0.0781;-0.8788;
712.8000;0.0749;-0.8833;
713.1000;0.0733;-0.8856;
713.4000;0.0773;-0.8697;
713.7000;0.0684;-0.8878;
714.0000;0.0749;-0.8720;
714.3000;0.0708;-0.8810;
714.6000;0.0749;-0.8652;
714.9000;0.0676;-0.8810;
715.2000;0.0757;-0.8675;
715.5000;0.0741;-0.8675;
715.8000;0.0741;-0.8652;
716.1000;0.0757;-0.8584;
716.4000;0.0716;-0.8743;
716.7000;0.0700;-0.8765;
717.0000;0.0765;-0.8561;
717.3000;0.0741;-0.8720;
717.6000;0.0749;-0.8788;
717.9000;0.0749;-0.8720;
718.2000;0.0765;-0.8675;
718.5000;0.0749;-0.8788;
718.8000;0.0847;-0.8539;
719.1000;0.0749;-0.8856;
719.4000;0.0749;-0.8788;
719.7000;0.0741;-0.8856;
720.0000;0.0741;-0.8788;
720.3000;0.0757;-0.8743;
720.6000;0.0765;-0.8743;
720.9000;0.0741;-0.8788;
721.2000;0.0765;-0.8743;
721.5000;0.0741;-0.8743;
721.8000;0.0765;-0.8675;
722.1000;0.0667;-0.8969;
722.4000;0.0741;-0.8810;
722.7000;0.0733;-0.8833;
723.0000;0.0749;-0.8788;
723.3000;0.0765;-0.8810;
723.6000;0.0749;-0.8833;
723.9000;0.0741;-0.8810;
724.2000;0.0773;-0.8697;
724.5000;0.0757;-0.8697;
724.8000;0.0757;-0.8788;
725.1000;0.0765;-0.8810;
725.4000;0.0757;-0.8878;
725.7000;0.0749;-0.8924;
726.0000;0.0765;-0.8856;
726.3000;0.0749;-0.8833;
726.6000;0.0741;-0.8788;
726.9000;0.0749;-0.8697;
727.2000;0.0757;-0.8697;
727.5000;0.0757;-0.8675;
727.8000;0.0733;-0.8675;
728.1000;0.0724;-0.8629;
728.4000;0.0708;-0.8788;
728.7000;0.0765;-0.8607;
729.0000;0.0773;-0.8516;
729.3000;0.0741;-0.8629;
729.6000;0.0781;-0.8652;
729.9000;0.0741;-0.8788;
730.2000;0.0830;-0.8561;
730.5000;0.0716;-0.8924;
730.8000;0.0757;-0.8878;
731.1000;0.0716;-0.9014;
731.4000;0.0733;-0.8946;
731.7000;0.0741;-0.8901;
732.0000;0.0773;-0.8901;
732.3000;0.0684;-0.9105;
732.6000;0.0741;-0.9060;
732.9000;0.0749;-0.9037;
733.2000;0.0749;-0.9037;
733.5000;0.0781;-0.8924;
733.8000;0.0773;-0.8946;
734.1000;0.0773;-0.9014;
734.4000;0.0749;-0.8992;
734.7000;0.0749;-0.9037;
735.0000;0.0765;-0.8946;
735.3000;0.0757;-0.8946;
735.6000;0.0741;-0.8969;
735.9000;0.0830;-0.8697;
736.2000;0.0741;-0.8969;
736.5000;0.0741;-0.8924;
736.8000;0.0757;-0.8743;
737.1000;0.0757;-0.8810;
737.4000;0.0757;-0.8720;
737.7000;0.0757;-0.8697;
738.0000;0.0741;-0.8720;
738.3000;0.0684;-0.8856;
738.6000;0.0749;-0.8675;
738.9000;0.0757;-0.8720;
739.2000;0.0749;-0.8675;
739.5000;0.0749;-0.8720;
739.8000;0.0749;-0.8765;
740.1000;0.0733;-0.8810;
740.4000;0.0765;-0.8697;
740.7000;0.0749;-0.8788;
741.0000;0.0749;-0.8720;
741.3000;0.0765;-0.8720;
741.6000;0.0733;-0.8810;
741.9000;0.0741;-0.8697;
742.2000;0.0733;-0.8743;
742.5000;0.0724;-0.8720;
742.8000;0.0733;-0.8629;
743.1000;0.0822;-0.8471;
743.4000;0.0773;-0.8697;
743.7000;0.0765;-0.8810;
744.0000;0.0724;-0.8901;
744.3000;0.0749;-0.8833;
744.6000;0.0765;-0.8833;
744.9000;0.0765;-0.8765;
745.2000;0.0741;-0.8901;
745.5000;0.0773;-0.8901;
745.8000;0.0773;-0.8901;
746.1000;0.0765;-0.8901;
746.4000;0.0741;-0.8901;
746.7000;0.0749;-0.8788;
747.0000;0.0733;-0.8924;
747.3000;0.0741;-0.8969;
747.6000;0.0667;-0.9037;
747.9000;0.0724;-0.8901;
748.2000;0.0749;-0.8946;
748.5000;0.0724;-0.9014;
748.8000;0.0733;-0.8992;
749.1000;0.0773;-0.8856;
749.4000;0.0765;-0.8878;
749.7000;0.0741;-0.9014;
750.0000;0.0806;-0.8924;
750.3000;0.0806;-0.8946;
750.6000;0.0790;-0.8992;
750.9000;0.0757;-0.9014;
751.2000;0.0741;-0.9037;
751.5000;0.0830;-0.8946;
751.8000;0.0586;-0.9513;
752.1000;0.0757;-0.9014;
752.4000;0.0855;-0.8697;
752.7000;0.0773;-0.8810;
753.0000;0.0781;-0.8765;
753.3000;0.0708;-0.8901;
753.6000;0.0749;-0.8924;
753.9000;0.0733;-0.8924;
754.2000;0.0700;-0.9037;
754.5000;0.0741;-0.8992;
754.8000;0.0749;-0.9014;
755.1000;0.0724;-0.9060;
755.4000;0.0692;-0.9128;
755.7000;0.0765;-0.8992;
756.0000;0.0741;-0.8969;
756.3000;0.0765;-0.8856;
756.6000;0.0733;-0.8946;
756.9000;0.0716;-0.8901;
757.2000;0.0822;-0.8675;
757.5000;0.0773;-0.8788;
757.8000;0.0724;-0.8810;
758.1000;0.0741;-0.8743;
758.4000;0.0757;-0.8788;
758.7000;0.0733;-0.8878;
759.0000;0.0741;-0.8969;
759.3000;0.0667;-0.9082;
759.6000;0.0733;-0.8856;
759.9000;0.0749;-0.8810;
760.2000;0.0781;-0.8810;
760.5000;0.0611;-0.9014;
760.8000;0.0733;-0.8675;
761.1000;0.0749;-0.8720;
761.4000;0.0708;-0.8765;
761.7000;0.0781;-0.8675;
762.0000;0.0765;-0.8675;
762.3000;0.0773;-0.8697;
762.6000;0.0741;-0.8810;
762.9000;0.0733;-0.8833;
763.2000;0.0741;-0.8788;
763.5000;0.0765;-0.8675;
763.8000;0.0749;-0.8765;
764.1000;0.0733;-0.8743;
764.4000;0.0741;-0.8607;
764.7000;0.0790;-0.8493;
765.0000;0.0757;-0.8743;
765.3000;0.0749;-0.8720;
765.6000;0.0741;-0.8720;
765.9000;0.0749;-0.8652;
766.2000;0.0716;-0.8697;
766.5000;0.0765;-0.8607;
766.8000;0.0716;-0.8765;
767.1000;0.0724;-0.8743;
767.4000;0.0741;-0.8697;
767.7000;0.0765;-0.8743;
768.0000;0.0757;-0.8743;
768.3000;0.0790;-0.8652;
768.6000;0.0749;-0.8675;
768.9000;0.0741;-0.8720;
769.2000;0.0781;-0.8584;
769.5000;0.0757;-0.8629;
769.8000;0.0741;-0.8675;
770.1000;0.0895;-0.8335;
770.4000;0.0765;-0.8652;
770.7000;0.0724;-0.8743;
771.0000;0.0765;-0.8675;
771.3000;0.0700;-0.8697;
771.6000;0.0798;-0.8471;
771.9000;0.0741;-0.8675;
772.2000;0.0749;-0.8584;
772.5000;0.0790;-0.8675;
772.8000;0.0773;-0.8743;
773.1000;0.0765;-0.8788;
773.4000;0.0724;-0.8743;
773.7000;0.0733;-0.8720;
774.0000;0.0692;-0.8833;
774.3000;0.0838;-0.8561;
774.6000;0.0749;-0.8810;
774.9000;0.0733;-0.8833;
775.2000;0.0757;-0.8743;
775.5000;0.0741;-0.8697;
775.8000;0.0757;-0.8607;
776.1000;0.0765;-0.8516;
776.4000;0.0741;-0.8607;
776.7000;0.0749;-0.8539;
777.0000;0.0749;-0.8629;
777.3000;0.0757;-0.8652;
777.6000;0.0749;-0.8675;
777.9000;0.0733;-0.8720;
778.2000;0.0757;-0.8629;
778.5000;0.0716;-0.8788;
778.8000;0.0741;-0.8652;
779.1000;0.0651;-0.8810;
779.4000;0.0741;-0.8675;
779.7000;0.0741;-0.8697;
780.0000;0.0724;-0.8743;
780.3000;0.0749;-0.8675;
780.6000;0.0749;-0.8697;
780.9000;0.0741;-0.8675;
781.2000;0.0749;-0.8652;
781.5000;0.0765;-0.8629;
781.8000;0.0724;-0.8607;
782.1000;0.0733;-0.8629;
782.4000;0.0749;-0.8652;
782.7000;0.0749;-0.8629;
783.0000;0.0733;-0.8584;
783.3000;0.0716;-0.8516;
783.6000;0.0790;-0.8403;
783.9000;0.0765;-0.8448;
784.2000;0.0741;-0.8493;
784.5000;0.0749;-0.8471;
784.8000;0.0757;-0.8629;
785.1000;0.0757;-0.8516;
785.4000;0.0749;-0.8493;
785.7000;0.0757;-0.8425;
786.0000;0.0741;-0.8493;
786.3000;0.0749;-0.8448;
786.6000;0.0798;-0.8267;
786.9000;0.0765;-0.8380;
787.2000;0.0773;-0.8380;
787.5000;0.0757;-0.8493;
787.8000;0.0757;-0.8539;
788.1000;0.0749;-0.8584;
788.4000;0.0741;-0.8584;
788.7000;0.0716;-0.8675;
789.0000;0.0749;-0.8584;
789.3000;0.0733;-0.8607;
789.6000;0.0700;-0.8675;
789.9000;0.0757;-0.8652;
790.2000;0.0741;-0.8743;
790.5000;0.0741;-0.8629;
790.8000;0.0765;-0.8607;
791.1000;0.0790;-0.8493;
791.4000;0.0749;-0.8539;
791.7000;0.0773;-0.8493;
792.0000;0.0741;-0.8584;
792.3000;0.0733;-0.8629;
792.6000;0.0724;-0.8720;
792.9000;0.0724;-0.8810;
793.2000;0.0814;-0.8607;
793.5000;0.0716;-0.8810;
793.8000;0.0765;-0.8743;
794.1000;0.0724;-0.8788;
794.4000;0.0757;-0.8697;
794.7000;0.0757;-0.8675;
795.0000;0.0733;-0.8629;
795.3000;0.0757;-0.8493;
795.6000;0.0822;-0.8335;
795.9000;0.0659;-0.8629;
796.2000;0.0733;-0.8425;
796.5000;0.0855;-0.8176;
796.8000;0.0643;-0.8743;
797.1000;0.0741;-0.8539;
797.4000;0.0741;-0.8561;
797.7000;0.0724;-0.8584;
798.0000;0.0781;-0.8448;
798.3000;0.0741;-0.8516;
798.6000;0.0741;-0.8539;
798.9000;0.0611;-0.8788;
799.2000;0.0741;-0.8471;
799.5000;0.0741;-0.8629;
799.8000;0.0716;-0.8675;
800.1000;0.0749;-0.8652;
800.4000;0.0741;-0.8652;
800.7000;0.0716;-0.8675;
801.0000;0.0741;-0.8629;
801.3000;0.0790;-0.8607;
801.6000;0.0765;-0.8607;
801.9000;0.0749;-0.8652;
802.2000;0.0741;-0.8697;
802.5000;0.0733;-0.8720;
802.8000;0.0724;-0.8720;
803.1000;0.0798;-0.8561;
803.4000;0.0749;-0.8697;
803.7000;0.0757;-0.8720;
804.0000;0.0733;-0.8788;
804.3000;0.0724;-0.8924;
804.6000;0.0741;-0.8856;
804.9000;0.0798;-0.8652;
805.2000;0.0741;-0.8810;
805.5000;0.0749;-0.8743;
805.8000;0.0904;-0.8358;
806.1000;0.0716;-0.8788;
806.4000;0.0749;-0.8765;
806.7000;0.0651;-0.8992;
807.0000;0.0724;-0.8720;
807.3000;0.0757;-0.8652;
807.6000;0.0741;-0.8607;
807.9000;0.0724;-0.8561;
808.2000;0.0814;-0.8425;
808.5000;0.0757;-0.8584;
808.8000;0.0773;-0.8493;
809.1000;0.0749;-0.8584;
809.4000;0.0733;-0.8584;
809.7000;0.0741;-0.8584;
810.0000;0.0757;-0.8493;
810.3000;0.0773;-0.8448;
810.6000;0.0733;-0.8607;
810.9000;0.0757;-0.8471;
811.2000;0.0733;-0.8516;
811.5000;0.0733;-0.8539;
811.8000;0.0757;-0.8493;
812.1000;0.0741;-0.8539;
812.4000;0.0724;-0.8743;
812.7000;0.0765;-0.8697;
813.0000;0.0741;-0.8720;
813.3000;0.0757;-0.8697;
813.6000;0.0773;-0.8584;
813.9000;0.0724;-0.8720;
814.2000;0.0684;-0.8788;
814.5000;0.0773;-0.8629;
814.8000;0.0733;-0.8743;
815.1000;0.0790;-0.8561;
815.4000;0.0757;-0.8652;
815.7000;0.0773;-0.8584;
816.0000;0.0749;-0.8675;
816.3000;0.0749;-0.8652;
816.6000;0.0757;-0.8675;
816.9000;0.0749;-0.8675;
817.2000;0.0757;-0.8539;
817.5000;0.0733;-0.8471;
817.8000;0.0716;-0.8561;
818.1000;0.0765;-0.8516;
818.4000;0.0684;-0.8720;
818.7000;0.0733;-0.8652;
819.0000;0.0724;-0.8697;
819.3000;0.0741;-0.8720;
819.6000;0.0773;-0.8675;
819.9000;0.0741;-0.8720;
820.2000;0.0724;-0.8765;
820.5000;0.0733;-0.8788;
820.8000;0.0790;-0.8675;
821.1000;0.0733;-0.8833;
821.4000;0.0773;-0.8697;
821.7000;0.0741;-0.8765;
822.0000;0.0814;-0.8584;
822.3000;0.0627;-0.9014;
822.6000;0.0733;-0.8720;
822.9000;0.0749;-0.8629;
823.2000;0.0733;-0.8652;
823.5000;0.0847;-0.8358;
823.8000;0.0814;-0.8425;
824.1000;0.0749;-0.8539;
824.4000;0.0765;-0.8448;
824.7000;0.0765;-0.8425;
825.0000;0.0749;-0.8493;
825.3000;0.0757;-0.8448;
825.6000;0.0651;-0.8675;
825.9000;0.0757;-0.8380;
826.2000;0.0708;-0.8403;
826.5000;0.0749;-0.8380;
826.8000;0.0757;-0.8358;
827.1000;0.0724;-0.8448;
827.4000;0.0724;-0.8425;
827.7000;0.0765;-0.8312;
828.0000;0.0733;-0.8380;
828.3000;0.0773;-0.8335;
828.6000;0.0619;-0.8856;
828.9000;0.0773;-0.8516;
829.2000;0.0806;-0.8471;
829.5000;0.0757;-0.8539;
829.8000;0.0822;-0.8425;
830.1000;0.0692;-0.8629;
830.4000;0.0692;-0.8675;
830.7000;0.0765;-0.8471;
831.0000;0.0773;-0.8448;
831.3000;0.0749;-0.8539;
831.6000;0.0790;-0.8516;
831.9000;0.0716;-0.8607;
832.2000;0.0741;-0.8448;
832.5000;0.0692;-0.8652;
832.8000;0.0733;-0.8539;
833.1000;0.0741;-0.8584;
833.4000;0.0733;-0.8539;
833.7000;0.0765;-0.8493;
834.0000;0.0765;-0.8584;
834.3000;0.0724;-0.8652;
834.6000;0.0667;-0.8856;
834.9000;0.0765;-0.8539;
835.2000;0.0781;-0.8493;
835.5000;0.0741;-0.8584;
835.8000;0.0757;-0.8448;
836.1000;0.0765;-0.8448;
836.4000;0.0749;-0.8493;
836.7000;0.0733;-0.8584;
837.0000;0.0765;-0.8448;
837.3000;0.0773;-0.8493;
837.6000;0.0765;-0.8493;
837.9000;0.0749;-0.8493;
838.2000;0.0741;-0.8584;
838.5000;0.0773;-0.8516;
838.8000;0.0749;-0.8584;
839.1000;0.0830;-0.8380;
839.4000;0.0765;-0.8493;
839.7000;0.0757;-0.8471;
840.0000;0.0765;-0.8493;
840.3000;0.0773;-0.8425;
840.6000;0.0757;-0.8471;
840.9000;0.0765;-0.8471;
841.2000;0.0733;-0.8539;
841.5000;0.0765;-0.8403;
841.8000;0.0757;-0.8539;
842.1000;0.0733;-0.8539;
842.4000;0.0773;-0.8516;
842.7000;0.0757;-0.8471;
843.0000;0.0765;-0.8516;
843.3000;0.0667;-0.8743;
843.6000;0.0749;-0.8493;
843.9000;0.0716;-0.8584;
844.2000;0.0733;-0.8629;
844.5000;0.0847;-0.8290;
844.8000;0.0741;-0.8516;
845.1000;0.0757;-0.8471;
845.4000;0.0741;-0.8471;
845.7000;0.0594;-0.8878;
846.0000;0.0773;-0.8425;
846.3000;0.0765;-0.8380;
846.6000;0.0741;-0.8516;
846.9000;0.0716;-0.8539;
847.2000;0.0716;-0.8516;
847.5000;0.0700;-0.8607;
847.8000;0.0733;-0.8516;
848.1000;0.0790;-0.8425;
848.4000;0.0741;-0.8516;
848.7000;0.0749;-0.8516;
849.0000;0.0757;-0.8539;
849.3000;0.0741;-0.8539;
849.6000;0.0749;-0.8516;
849.9000;0.0741;-0.8539;
850.2000;0.0749;-0.8607;
850.5000;0.0757;-0.8516;
850.8000;0.0757;-0.8493;
851.1000;0.0757;-0.8516;
851.4000;0.0708;-0.8629;
851.7000;0.0814;-0.8403;
852.0000;0.0741;-0.8629;
852.3000;0.0765;-0.8607;
852.6000;0.0643;-0.8810;
852.9000;0.0749;-0.8493;
853.2000;0.0741;-0.8403;
853.5000;0.0733;-0.8471;
853.8000;0.0773;-0.8335;
854.1000;0.0749;-0.8471;
854.4000;0.0676;-0.8607;
854.7000;0.0757;-0.8448;
855.0000;0.0749;-0.8471;
855.3000;0.0765;-0.8471;
855.6000;0.0773;-0.8471;
855.9000;0.0708;-0.8584;
856.2000;0.0749;-0.8471;
856.5000;0.0741;-0.8561;
856.8000;0.0757;-0.8516;
857.1000;0.0716;-0.8561;
857.4000;0.0757;-0.8425;
857.7000;0.0757;-0.8403;
858.0000;0.0741;-0.8380;
858.3000;0.0724;-0.8380;
858.6000;0.0757;-0.8312;
858.9000;0.0757;-0.8154;
859.2000;0.0757;-0.8199;
859.5000;0.0708;-0.8358;
859.8000;0.0757;-0.8380;
860.1000;0.0741;-0.8471;
860.4000;0.0749;-0.8471;
860.7000;0.0700;-0.8675;
861.0000;0.0741;-0.8516;
861.3000;0.0733;-0.8584;
861.6000;0.0733;-0.8584;
861.9000;0.0765;-0.8539;
862.2000;0.0676;-0.8629;
862.5000;0.0757;-0.8425;
862.8000;0.0716;-0.8448;
863.1000;0.0749;-0.8493;
863.4000;0.0757;-0.8516;
863.7000;0.0830;-0.8380;
864.0000;0.0830;-0.8448;
864.3000;0.0765;-0.8516;
864.6000;0.0741;-0.8561;
864.9000;0.0765;-0.8493;
865.2000;0.0733;-0.8539;
865.5000;0.0757;-0.8425;
865.8000;0.0757;-0.8403;
866.1000;0.0765;-0.8448;
866.4000;0.0716;-0.8539;
866.7000;0.0724;-0.8607;
867.0000;0.0741;-0.8607;
867.3000;0.0651;-0.8788;
867.6000;0.0733;-0.8652;
867.9000;0.0724;-0.8675;
868.2000;0.0757;-0.8516;
868.5000;0.0724;-0.8743;
868.8000;0.0708;-0.8810;
869.1000;0.0757;-0.8607;
869.4000;0.0749;-0.8539;
869.7000;0.0733;-0.8584;
870.0000;0.0749;-0.8584;
870.3000;0.0708;-0.8697;
870.6000;0.0765;-0.8607;
870.9000;0.0741;-0.8743;
871.2000;0.0733;-0.8856;
871.5000;0.0733;-0.8833;
871.8000;0.0733;-0.8878;
872.1000;0.0733;-0.8856;
872.4000;0.0749;-0.8675;
872.7000;0.0733;-0.8743;
873.0000;0.0757;-0.8629;
873.3000;0.0806;-0.8403;
873.6000;0.0765;-0.8403;
873.9000;0.0733;-0.8493;
874.2000;0.0716;-0.8561;
874.5000;0.0757;-0.8403;
874.8000;0.0741;-0.8448;
875.1000;0.0741;-0.8493;
875.4000;0.0749;-0.8471;
875.7000;0.0757;-0.8425;
876.0000;0.0765;-0.8380;
876.3000;0.0741;-0.8448;
876.6000;0.0741;-0.8425;
876.9000;0.0749;-0.8335;
877.2000;0.0708;-0.8471;
877.5000;0.0724;-0.8425;
877.8000;0.0716;-0.8471;
878.1000;0.0749;-0.8403;
878.4000;0.0676;-0.8607;
878.7000;0.0749;-0.8380;
879.0000;0.0741;-0.8312;
879.3000;0.0724;-0.8335;
879.6000;0.0716;-0.8312;
879.9000;0.0724;-0.8244;
880.2000;0.0773;-0.8199;
880.5000;0.0806;-0.8108;
880.8000;0.0773;-0.8267;
881.1000;0.0724;-0.8403;
881.4000;0.0781;-0.8335;
881.7000;0.0741;-0.8471;
882.0000;0.0765;-0.8471;
882.3000;0.0749;-0.8493;
882.6000;0.0741;-0.8471;
882.9000;0.0741;-0.8448;
883.2000;0.0692;-0.8584;
883.5000;0.0765;-0.8358;
883.8000;0.0741;-0.8471;
884.1000;0.0741;-0.8493;
884.4000;0.0765;-0.8358;
884.7000;0.0749;-0.8358;
885.0000;0.0716;-0.8448;
885.3000;0.0724;-0.8448;
885.6000;0.0749;-0.8335;
885.9000;0.0733;-0.8448;
886.2000;0.0724;-0.8448;
886.5000;0.0716;-0.8471;
886.8000;0.0765;-0.8335;
887.1000;0.0781;-0.8380;
887.4000;0.0757;-0.8493;
887.7000;0.0733;-0.8652;
888.0000;0.0757;-0.8584;
888.3000;0.0781;-0.8561;
888.6000;0.0773;-0.8493;
888.9000;0.0749;-0.8516;
889.2000;0.0765;-0.8448;
889.5000;0.0830;-0.8335;
889.8000;0.0684;-0.8629;
890.1000;0.0741;-0.8516;
890.4000;0.0749;-0.8516;
890.7000;0.0765;-0.8493;
891.0000;0.0741;-0.8403;
891.3000;0.0578;-0.8810;
891.6000;0.0692;-0.8516;
891.9000;0.0749;-0.8380;
892.2000;0.0773;-0.8358;
892.5000;0.0708;-0.8561;
892.8000;0.0733;-0.8471;
893.1000;0.0724;-0.8539;
893.4000;0.0733;-0.8561;
893.7000;0.0741;-0.8629;
894.0000;0.0749;-0.8607;
894.3000;0.0749;-0.8652;
894.6000;0.0773;-0.8584;
894.9000;0.0733;-0.8629;
895.2000;0.0757;-0.8584;
895.5000;0.0757;-0.8607;
895.8000;0.0773;-0.8516;
896.1000;0.0773;-0.8471;
896.4000;0.0798;-0.8493;
896.7000;0.0619;-0.8924;
897.0000;0.0773;-0.8471;
897.3000;0.0724;-0.8539;
897.6000;0.0741;-0.8584;
897.9000;0.0733;-0.8561;
898.2000;0.0814;-0.8290;
898.5000;0.0741;-0.8425;
898.8000;0.0708;-0.8584;
899.1000;0.0733;-0.8584;
899.4000;0.0733;-0.8493;
899.7000;0.0790;-0.8425;
900.0000;0.0757;-0.8584;
900.3000;0.0708;-0.8765;
900.6000;0.0733;-0.8697;
900.9000;0.0830;-0.8471;
901.2000;0.0733;-0.8629;
901.5000;0.0757;-0.8584;
901.8000;0.0773;-0.8516;
902.1000;0.0733;-0.8516;
902.4000;0.0741;-0.8539;
902.7000;0.0790;-0.8425;
903.0000;0.0733;-0.8539;
903.3000;0.0741;-0.8493;
903.6000;0.0733;-0.8471;
903.9000;0.0765;-0.8448;
904.2000;0.0733;-0.8516;
904.5000;0.0708;-0.8675;
904.8000;0.0741;-0.8675;
905.1000;0.0741;-0.8629;
905.4000;0.0765;-0.8629;
905.7000;0.0749;-0.8652;
906.0000;0.0749;-0.8765;
906.3000;0.0749;-0.8743;
906.6000;0.0733;-0.8743;
906.9000;0.0741;-0.8697;
907.2000;0.0708;-0.8878;
907.5000;0.0790;-0.8675;
907.8000;0.0741;-0.8833;
908.1000;0.0684;-0.8946;
908.4000;0.0830;-0.8493;
908.7000;0.0733;-0.8743;
909.0000;0.0806;-0.8471;
909.3000;0.0741;-0.8539;
909.6000;0.0741;-0.8516;
909.9000;0.0765;-0.8403;
910.2000;0.0749;-0.8471;
910.5000;0.0749;-0.8471;
910.8000;0.0757;-0.8471;
911.1000;0.0757;-0.8425;
911.4000;0.0741;-0.8425;
911.7000;0.0749;-0.8448;
912.0000;0.0741;-0.8539;
912.3000;0.0749;-0.8516;
912.6000;0.0757;-0.8448;
912.9000;0.0741;-0.8471;
913.2000;0.0749;-0.8516;
913.5000;0.0765;-0.8561;
913.8000;0.0708;-0.8697;
914.1000;0.0724;-0.8629;
914.4000;0.0757;-0.8607;
914.7000;0.0765;-0.8607;
915.0000;0.0781;-0.8584;
915.3000;0.0749;-0.8629;
915.6000;0.0651;-0.8833;
915.9000;0.0757;-0.8539;
916.2000;0.0749;-0.8629;
916.5000;0.0724;-0.8652;
916.8000;0.0724;-0.8516;
917.1000;0.0757;-0.8448;
917.4000;0.0781;-0.8471;
917.7000;0.0749;-0.8607;
918.0000;0.0765;-0.8561;
918.3000;0.0716;-0.8697;
918.6000;0.0741;-0.8675;
918.9000;0.0749;-0.8697;
919.2000;0.0773;-0.8720;
919.5000;0.0749;-0.8788;
919.8000;0.0773;-0.8743;
920.1000;0.0822;-0.8675;
920.4000;0.0757;-0.8765;
920.7000;0.0749;-0.8743;
921.0000;0.0741;-0.8878;
921.3000;0.0847;-0.8539;
921.6000;0.0733;-0.8788;
921.9000;0.0627;-0.9037;
922.2000;0.0871;-0.8403;
922.5000;0.0741;-0.8765;
922.8000;0.0733;-0.8697;
923.1000;0.0724;-0.8652;
923.4000;0.0659;-0.8720;
923.7000;0.0602;-0.8833;
924.0000;0.0765;-0.8448;
924.3000;0.0790;-0.8403;
924.6000;0.0708;-0.8675;
924.9000;0.0757;-0.8403;
925.2000;0.0798;-0.8335;
925.5000;0.0749;-0.8380;
925.8000;0.0692;-0.8448;
926.1000;0.0741;-0.8290;
926.4000;0.0765;-0.8358;
926.7000;0.0733;-0.8471;
927.0000;0.0733;-0.8493;
927.3000;0.0733;-0.8493;
927.6000;0.0757;-0.8493;
927.9000;0.0716;-0.8629;
928.2000;0.0757;-0.8607;
928.5000;0.0773;-0.8493;
928.8000;0.0708;-0.8584;
929.1000;0.0741;-0.8516;
929.4000;0.0757;-0.8539;
929.7000;0.0733;-0.8584;
930.0000;0.0749;-0.8584;
930.3000;0.0757;-0.8561;
930.6000;0.0741;-0.8448;
930.9000;0.0733;-0.8425;
931.2000;0.0716;-0.8403;
931.5000;0.0757;-0.8312;
931.8000;0.0773;-0.8244;
932.1000;0.0676;-0.8561;
932.4000;0.0757;-0.8335;
932.7000;0.0724;-0.8448;
933.0000;0.0733;-0.8539;
933.3000;0.0716;-0.8539;
933.6000;0.0716;-0.8561;
933.9000;0.0724;-0.8516;
934.2000;0.0749;-0.8448;
934.5000;0.0724;-0.8448;
934.8000;0.0741;-0.8425;
935.1000;0.0741;-0.8471;
935.4000;0.0724;-0.8516;
935.7000;0.0733;-0.8539;
936.0000;0.0684;-0.8607;
936.3000;0.0733;-0.8471;
936.6000;0.0716;-0.8448;
936.9000;0.0733;-0.8403;
937.2000;0.0749;-0.8425;
937.5000;0.0724;-0.8516;
937.8000;0.0733;-0.8561;
938.1000;0.0733;-0.8539;
938.4000;0.0659;-0.8788;
938.7000;0.0741;-0.8629;
939.0000;0.0814;-0.8448;
939.3000;0.0765;-0.8584;
939.6000;0.0741;-0.8675;
939.9000;0.0781;-0.8516;
940.2000;0.0741;-0.8516;
940.5000;0.0708;-0.8675;
940.8000;0.0724;-0.8697;
941.1000;0.0716;-0.8652;
941.4000;0.0708;-0.8607;
941.7000;0.0806;-0.8312;
942.0000;0.0733;-0.8448;
942.3000;0.0798;-0.8380;
942.6000;0.0733;-0.8493;
942.9000;0.0724;-0.8561;
943.2000;0.0733;-0.8584;
943.5000;0.0733;-0.8584;
943.8000;0.0757;-0.8493;
944.1000;0.0765;-0.8380;
944.4000;0.0765;-0.8358;
944.7000;0.0724;-0.8493;
945.0000;0.0773;-0.8380;
945.3000;0.0814;-0.8335;
945.6000;0.0773;-0.8380;
945.9000;0.0863;-0.8154;
946.2000;0.0692;-0.8607;
946.5000;0.0765;-0.8425;
946.8000;0.0798;-0.8267;
947.1000;0.0741;-0.8493;
947.4000;0.0781;-0.8471;
947.7000;0.0741;-0.8561;
948.0000;0.0724;-0.8675;
948.3000;0.0733;-0.8607;
948.6000;0.0765;-0.8516;
948.9000;0.0724;-0.8607;
949.2000;0.0724;-0.8584;
949.5000;0.0741;-0.8652;
949.8000;0.0733;-0.8697;
950.1000;0.0749;-0.8743;
950.4000;0.0741;-0.8765;
950.7000;0.0765;-0.8720;
951.0000;0.0757;-0.8720;
951.3000;0.0716;-0.8720;
951.6000;0.0765;-0.8629;
951.9000;0.0749;-0.8561;
952.2000;0.0757;-0.8561;
952.5000;0.0733;-0.8584;
952.8000;0.0749;-0.8607;
953.1000;0.0757;-0.8629;
953.4000;0.0733;-0.8720;
953.7000;0.0741;-0.8652;
954.0000;0.0741;-0.8697;
954.3000;0.0765;-0.8539;
954.6000;0.0692;-0.8720;
954.9000;0.0741;-0.8607;
955.2000;0.0749;-0.8516;
955.5000;0.0773;-0.8471;
955.8000;0.0773;-0.8448;
956.1000;0.0749;-0.8493;
956.4000;0.0733;-0.8493;
956.7000;0.0733;-0.8471;
957.0000;0.0651;-0.8675;
957.3000;0.0749;-0.8358;
957.6000;0.0749;-0.8403;
957.9000;0.0749;-0.8403;
958.2000;0.0757;-0.8403;
958.5000;0.0724;-0.8516;
958.8000;0.0716;-0.8584;
959.1000;0.0749;-0.8539;
959.4000;0.0855;-0.8267;
959.7000;0.0757;-0.8471;
960.0000;0.0790;-0.8471;
960.3000;0.0724;-0.8607;
960.6000;0.0741;-0.8425;
960.9000;0.0643;-0.8697;
961.2000;0.0765;-0.8358;
961.5000;0.0749;-0.8425;
961.8000;0.0790;-0.8290;
962.1000;0.0749;-0.8380;
962.4000;0.0733;-0.8403;
962.7000;0.0757;-0.8403;
963.0000;0.0814;-0.8312;
963.3000;0.0773;-0.8425;
963.6000;0.0749;-0.8471;
963.9000;0.0733;-0.8561;
964.2000;0.0749;-0.8471;
964.5000;0.0724;-0.8516;
964.8000;0.0667;-0.8652;
965.1000;0.0724;-0.8516;
965.4000;0.0749;-0.8403;
965.7000;0.0700;-0.8493;
966.0000;0.0733;-0.8448;
966.3000;0.0773;-0.8312;
966.6000;0.0733;-0.8358;
966.9000;0.0749;-0.8380;
967.2000;0.0692;-0.8539;
967.5000;0.0692;-0.8561;
967.8000;0.0749;-0.8312;
968.1000;0.0757;-0.8244;
968.4000;0.0749;-0.8358;
968.7000;0.0757;-0.8425;
969.0000;0.0716;-0.8561;
969.3000;0.0757;-0.8539;
969.6000;0.0757;-0.8584;
969.9000;0.0757;-0.8516;
970.2000;0.0733;-0.8584;
970.5000;0.0749;-0.8516;
970.8000;0.0757;-0.8516;
971.1000;0.0749;-0.8561;
971.4000;0.0773;-0.8493;
971.7000;0.0781;-0.8425;
972.0000;0.0733;-0.8561;
972.3000;0.0692;-0.8561;
972.6000;0.0773;-0.8403;
972.9000;0.0741;-0.8493;
973.2000;0.0757;-0.8380;
973.5000;0.0700;-0.8584;
973.8000;0.0724;-0.8561;
974.1000;0.0749;-0.8561;
974.4000;0.0790;-0.8561;
974.7000;0.0757;-0.8675;
975.0000;0.0741;-0.8675;
975.3000;0.0765;-0.8629;
975.6000;0.0773;-0.8539;
975.9000;0.0757;-0.8561;
976.2000;0.0733;-0.8584;
976.5000;0.0724;-0.8607;
976.8000;0.0724;-0.8629;
977.1000;0.0855;-0.8244;
977.4000;0.0676;-0.8697;
977.7000;0.0741;-0.8607;
978.0000;0.0741;-0.8629;
978.3000;0.0724;-0.8675;
978.6000;0.0716;-0.8584;
978.9000;0.0757;-0.8493;
979.2000;0.0749;-0.8539;
979.5000;0.0749;-0.8607;
979.8000;0.0773;-0.8584;
980.1000;0.0733;-0.8629;
980.4000;0.0749;-0.8561;
980.7000;0.0708;-0.8516;
981.0000;0.0724;-0.8448;
981.3000;0.0741;-0.8493;
981.6000;0.0716;-0.8539;
981.9000;0.0724;-0.8516;
982.2000;0.0757;-0.8493;
982.5000;0.0871;-0.8176;
982.8000;0.0700;-0.8539;
983.1000;0.0757;-0.8471;
983.4000;0.0855;-0.8176;
983.7000;0.0741;-0.8425;
984.0000;0.0741;-0.8403;
984.3000;0.0733;-0.8471;
984.6000;0.0765;-0.8448;
984.9000;0.0830;-0.8335;
985.2000;0.0741;-0.8539;
985.5000;0.0863;-0.8244;
985.8000;0.0765;-0.8380;
986.1000;0.0749;-0.8358;
986.4000;0.0749;-0.8335;
986.7000;0.0741;-0.8290;
987.0000;0.0733;-0.8380;
987.3000;0.0749;-0.8448;
987.6000;0.0724;-0.8471;
987.9000;0.0733;-0.8425;
988.2000;0.0765;-0.8358;
988.5000;0.0838;-0.8222;
988.8000;0.0741;-0.8335;
989.1000;0.0733;-0.8312;
989.4000;0.0749;-0.8335;
989.7000;0.0733;-0.8312;
990.0000;0.0781;-0.8244;
990.3000;0.0708;-0.8493;
990.6000;0.0733;-0.8471;
990.9000;0.0749;-0.8448;
991.2000;0.0733;-0.8493;
991.5000;0.0847;-0.8290;
991.8000;0.0716;-0.8584;
992.1000;0.0724;-0.8561;
992.4000;0.0733;-0.8516;
992.7000;0.0749;-0.8539;
993.0000;0.0749;-0.8652;
993.3000;0.0798;-0.8539;
993.6000;0.0757;-0.8675;
993.9000;0.0716;-0.8810;
994.2000;0.0749;-0.8652;
994.5000;0.0757;-0.8675;
994.8000;0.0716;-0.8810;
995.1000;0.0741;-0.8810;
995.4000;0.0724;-0.8833;
995.7000;0.0757;-0.8743;
996.0000;0.0757;-0.8901;
996.3000;0.0749;-0.8924;
996.6000;0.0749;-0.8878;
996.9000;0.0749;-0.8810;
997.2000;0.0781;-0.8743;
997.5000;0.0741;-0.8788;
997.8000;0.0741;-0.8788;
998.1000;0.0741;-0.8833;
998.4000;0.0749;-0.8833;
998.7000;0.0724;-0.8878;
999.0000;0.0733;-0.8856;
999.3000;0.0757;-0.8765;
999.6000;0.0627;-0.8992;
999.9000;0.0724;-0.8788;
1000.2000;0.0741;-0.8856;
1000.5000;0.0757;-0.8765;
1000.8000;0.0749;-0.8765;
1001.1000;0.0716;-0.8743;
1001.4000;0.0733;-0.8833;
1001.7000;0.0724;-0.8833;
1002.0000;0.0667;-0.8992;
1002.3000;0.0749;-0.8765;
1002.6000;0.0733;-0.8833;
1002.9000;0.0741;-0.8765;
1003.2000;0.0692;-0.8810;
1003.5000;0.0708;-0.8743;
1003.8000;0.0741;-0.8697;
1004.1000;0.0602;-0.8992;
1004.4000;0.0741;-0.8743;
1004.7000;0.0773;-0.8743;
1005.0000;0.0741;-0.8810;
1005.3000;0.0749;-0.8833;
1005.6000;0.0773;-0.8743;
1005.9000;0.0741;-0.8743;
1006.2000;0.0765;-0.8720;
1006.5000;0.0822;-0.8584;
1006.8000;0.0773;-0.8675;
1007.1000;0.0741;-0.8675;
1007.4000;0.0765;-0.8584;
1007.7000;0.0741;-0.8584;
1008.0000;0.0659;-0.8697;
1008.3000;0.0765;-0.8425;
1008.6000;0.0749;-0.8516;
1008.9000;0.0733;-0.8471;
1009.2000;0.0749;-0.8448;
1009.5000;0.0741;-0.8425;
1009.8000;0.0741;-0.8493;
1010.1000;0.0724;-0.8493;
1010.4000;0.0741;-0.8471;
1010.7000;0.0773;-0.8425;
1011.0000;0.0757;-0.8471;
1011.3000;0.0781;-0.8358;
1011.6000;0.0757;-0.8403;
1011.9000;0.0757;-0.8358;
1012.2000;0.0757;-0.8380;
1012.5000;0.0741;-0.8403;
1012.8000;0.0741;-0.8358;
1013.1000;0.0749;-0.8312;
1013.4000;0.0716;-0.8471;
1013.7000;0.0733;-0.8539;
1014.0000;0.0773;-0.8539;
1014.3000;0.0757;-0.8584;
1014.6000;0.0741;-0.8607;
1014.9000;0.0749;-0.8425;
1015.2000;0.0806;-0.8267;
1015.5000;0.0757;-0.8561;
1015.8000;0.0733;-0.8675;
1016.1000;0.0733;-0.8675;
1016.4000;0.0741;-0.8561;
1016.7000;0.0757;-0.8425;
1017.0000;0.0724;-0.8448;
1017.3000;0.0757;-0.8403;
1017.6000;0.0749;-0.8471;
1017.9000;0.0741;-0.8471;
1018.2000;0.0765;-0.8471;
1018.5000;0.0798;-0.8335;
1018.8000;0.0708;-0.8471;
1019.1000;0.0757;-0.8425;
1019.4000;0.0684;-0.8629;
1019.7000;0.0757;-0.8516;
1020.0000;0.0765;-0.8471;
1020.3000;0.0749;-0.8561;
1020.6000;0.0741;-0.8539;
1020.9000;0.0741;-0.8561;
1021.2000;0.0757;-0.8539;
1021.5000;0.0749;-0.8539;
1021.8000;0.0651;-0.8765;
1022.1000;0.0765;-0.8471;
1022.4000;0.0757;-0.8493;
1022.7000;0.0733;-0.8561;
1023.0000;0.0741;-0.8607;
1023.3000;0.0757;-0.8584;
1023.6000;0.0741;-0.8584;
1023.9000;0.0643;-0.8856;
1024.2000;0.0741;-0.8561;
1024.5000;0.0733;-0.8607;
1024.8000;0.0749;-0.8629;
1025.1000;0.0716;-0.8720;
1025.4000;0.0741;-0.8607;
1025.7000;0.0716;-0.8675;
1026.0000;0.0733;-0.8652;
1026.3000;0.0781;-0.8516;
1026.6000;0.0684;-0.8765;
1026.9000;0.0741;-0.8607;
1027.2000;0.0749;-0.8584;
1027.5000;0.0749;-0.8675;
1027.8000;0.0708;-0.8652;
1028.1000;0.0790;-0.8471;
1028.4000;0.0757;-0.8493;
1028.7000;0.0830;-0.8403;
1029.0000;0.0733;-0.8629;
1029.3000;0.0733;-0.8561;
1029.6000;0.0749;-0.8561;
1029.9000;0.0765;-0.8403;
1030.2000;0.0757;-0.8448;
1030.5000;0.0708;-0.8607;
1030.8000;0.0814;-0.8290;
1031.1000;0.0749;-0.8471;
1031.4000;0.0749;-0.8539;
1031.7000;0.0741;-0.8539;
1032.0000;0.0659;-0.8720;
1032.3000;0.0741;-0.8539;
1032.6000;0.0749;-0.8539;
1032.9000;0.0733;-0.8629;
1033.2000;0.0765;-0.8516;
1033.5000;0.0692;-0.8675;
1033.8000;0.0716;-0.8584;
1034.1000;0.0765;-0.8516;
1034.4000;0.0790;-0.8425;
1034.7000;0.0635;-0.8810;
1035.0000;0.0733;-0.8539;
1035.3000;0.0749;-0.8561;
1035.6000;0.0741;-0.8629;
1035.9000;0.0741;-0.8652;
1036.2000;0.0814;-0.8425;
1036.5000;0.0733;-0.8629;
1036.8000;0.0798;-0.8448;
1037.1000;0.0741;-0.8675;
1037.4000;0.0741;-0.8720;
1037.7000;0.0716;-0.8856;
1038.0000;0.0765;-0.8788;
1038.3000;0.0667;-0.8946;
1038.6000;0.0733;-0.8765;
1038.9000;0.0757;-0.8743;
1039.2000;0.0733;-0.8720;
1039.5000;0.0773;-0.8516;
1039.8000;0.0724;-0.8652;
1040.1000;0.0692;-0.8697;
1040.4000;0.0757;-0.8629;
1040.7000;0.0733;-0.8629;
1041.0000;0.0733;-0.8561;
1041.3000;0.0741;-0.8516;
1041.6000;0.0733;-0.8584;
1041.9000;0.0733;-0.8629;
1042.2000;0.0741;-0.8607;
1042.5000;0.0757;-0.8539;
1042.8000;0.0716;-0.8584;
1043.1000;0.0741;-0.8539;
1043.4000;0.0749;-0.8539;
1043.7000;0.0733;-0.8584;
1044.0000;0.0749;-0.8584;
1044.3000;0.0733;-0.8652;
1044.6000;0.0757;-0.8584;
1044.9000;0.0749;-0.8561;
1045.2000;0.0765;-0.8493;
1045.5000;0.0749;-0.8539;
1045.8000;0.0733;-0.8607;
1046.1000;0.0765;-0.8561;
1046.4000;0.0765;-0.8584;
1046.7000;0.0700;-0.8697;
1047.0000;0.0838;-0.8380;
1047.3000;0.0716;-0.8697;
1047.6000;0.0757;-0.8675;
1047.9000;0.0749;-0.8697;
1048.2000;0.0765;-0.8697;
1048.5000;0.0838;-0.8493;
1048.8000;0.0733;-0.8675;
1049.1000;0.0741;-0.8675;
1049.4000;0.0781;-0.8629;
1049.7000;0.0757;-0.8675;
1050.0000;0.0692;-0.8856;
1050.3000;0.0749;-0.8788;
1050.6000;0.0757;-0.8788;
1050.9000;0.0765;-0.8765;
1051.2000;0.0741;-0.8788;
1051.5000;0.0765;-0.8788;
1051.8000;0.0765;-0.8765;
1052.1000;0.0773;-0.8788;
1052.4000;0.0749;-0.8901;
1052.7000;0.0855;-0.8561;
1053.0000;0.0749;-0.8810;
1053.3000;0.0773;-0.8743;
1053.6000;0.0879;-0.8539;
1053.9000;0.0749;-0.8743;
1054.2000;0.0733;-0.8743;
1054.5000;0.0749;-0.8652;
1054.8000;0.0692;-0.8856;
1055.1000;0.0741;-0.8675;
1055.4000;0.0741;-0.8652;
1055.7000;0.0692;-0.8810;
1056.0000;0.0716;-0.8697;
1056.3000;0.0765;-0.8675;
1056.6000;0.0676;-0.8969;
1056.9000;0.0700;-0.9014;
1057.2000;0.0749;-0.8878;
1057.5000;0.0749;-0.8833;
1057.8000;0.0733;-0.8901;
1058.1000;0.0798;-0.8765;
1058.4000;0.0741;-0.8878;
1058.7000;0.0733;-0.8788;
1059.0000;0.0741;-0.8675;
1059.3000;0.0651;-0.8946;
1059.6000;0.0741;-0.8743;
1059.9000;0.0741;-0.8810;
1060.2000;0.0741;-0.8788;
1060.5000;0.0757;-0.8810;
1060.8000;0.0700;-0.8901;
1061.1000;0.0773;-0.8697;
1061.4000;0.0757;-0.8652;
1061.7000;0.0741;-0.8493;
1062.0000;0.0757;-0.8471;
1062.3000;0.0741;-0.8516;
1062.6000;0.0741;-0.8493;
1062.9000;0.0749;-0.8425;
1063.2000;0.0733;-0.8471;
1063.5000;0.0716;-0.8584;
1063.8000;0.0765;-0.8516;
1064.1000;0.0765;-0.8471;
1064.4000;0.0773;-0.8471;
1064.7000;0.0765;-0.8584;
1065.0000;0.0741;-0.8607;
1065.3000;0.0700;-0.8720;
1065.6000;0.0741;-0.8607;
1065.9000;0.0773;-0.8493;
1066.2000;0.0749;-0.8584;
1066.5000;0.0773;-0.8584;
1066.8000;0.0741;-0.8629;
1067.1000;0.0733;-0.8561;
1067.4000;0.0733;-0.8493;
1067.7000;0.0733;-0.8516;
1068.0000;0.0724;-0.8539;
1068.3000;0.0724;-0.8607;
1068.6000;0.0749;-0.8471;
1068.9000;0.0733;-0.8448;
1069.2000;0.0724;-0.8448;
1069.5000;0.0757;-0.8380;
1069.8000;0.0684;-0.8516;
1070.1000;0.0749;-0.8335;
1070.4000;0.0733;-0.8448;
1070.7000;0.0749;-0.8448;
1071.0000;0.0692;-0.8629;
1071.3000;0.0741;-0.8561;
1071.6000;0.0741;-0.8652;
1071.9000;0.0733;-0.8652;
1072.2000;0.0741;-0.8584;
1072.5000;0.0733;-0.8539;
1072.8000;0.0757;-0.8539;
1073.1000;0.0741;-0.8539;
1073.4000;0.0741;-0.8584;
1073.7000;0.0733;-0.8584;
1074.0000;0.0879;-0.8244;
1074.3000;0.0667;-0.8765;
1074.6000;0.0741;-0.8539;
1074.9000;0.0749;-0.8471;
1075.2000;0.0798;-0.8380;
1075.5000;0.0741;-0.8471;
1075.8000;0.0733;-0.8493;
1076.1000;0.0724;-0.8425;
1076.4000;0.0757;-0.8403;
1076.7000;0.0651;-0.8652;
1077.0000;0.0741;-0.8493;
1077.3000;0.0749;-0.8629;
1077.6000;0.0700;-0.8788;
1077.9000;0.0749;-0.8607;
1078.2000;0.0700;-0.8652;
1078.5000;0.0716;-0.8629;
1078.8000;0.0838;-0.8358;
1079.1000;0.0716;-0.8629;
1079.4000;0.0716;-0.8629;
1079.7000;0.0602;-0.8901;
1080.0000;0.0855;-0.8244;
1080.3000;0.0741;-0.8493;
1080.6000;0.0724;-0.8493;
1080.9000;0.0749;-0.8539;
1081.2000;0.0765;-0.8561;
1081.5000;0.0757;-0.8516;
1081.8000;0.0749;-0.8539;
1082.1000;0.0708;-0.8652;
1082.4000;0.0733;-0.8607;
1082.7000;0.0765;-0.8539;
1083.0000;0.0733;-0.8539;
1083.3000;0.0741;-0.8471;
1083.6000;0.0757;-0.8380;
1083.9000;0.0749;-0.8448;
1084.2000;0.0733;-0.8539;
1084.5000;0.0741;-0.8561;
1084.8000;0.0676;-0.8743;
1085.1000;0.0741;-0.8629;
1085.4000;0.0724;-0.8652;
1085.7000;0.0757;-0.8539;
1086.0000;0.0741;-0.8539;
1086.3000;0.0757;-0.8471;
1086.6000;0.0749;-0.8493;
1086.9000;0.0741;-0.8516;
1087.2000;0.0765;-0.8403;
1087.5000;0.0741;-0.8493;
1087.8000;0.0741;-0.8448;
1088.1000;0.0733;-0.8425;
1088.4000;0.0781;-0.8425;
1088.7000;0.0724;-0.8471;
1089.0000;0.0716;-0.8516;
1089.3000;0.0749;-0.8448;
1089.6000;0.0741;-0.8471;
1089.9000;0.0757;-0.8425;
1090.2000;0.0741;-0.8493;
1090.5000;0.0724;-0.8425;
1090.8000;0.0741;-0.8493;
1091.1000;0.0757;-0.8471;
1091.4000;0.0741;-0.8493;
1091.7000;0.0733;-0.8561;
1092.0000;0.0708;-0.8629;
1092.3000;0.0741;-0.8675;
1092.6000;0.0741;-0.8765;
1092.9000;0.0749;-0.8765;
1093.2000;0.0716;-0.8856;
1093.5000;0.0757;-0.8720;
1093.8000;0.0749;-0.8675;
1094.1000;0.0806;-0.8607;
1094.4000;0.0749;-0.8765;
1094.7000;0.0765;-0.8743;
1095.0000;0.0798;-0.8584;
1095.3000;0.0741;-0.8697;
1095.6000;0.0724;-0.8697;
1095.9000;0.0757;-0.8607;
1096.2000;0.0724;-0.8675;
1096.5000;0.0741;-0.8584;
1096.8000;0.0757;-0.8493;
1097.1000;0.0749;-0.8471;
1097.4000;0.0733;-0.8516;
1097.7000;0.0749;-0.8448;
1098.0000;0.0741;-0.8380;
1098.3000;0.0814;-0.8244;
1098.6000;0.0724;-0.8539;
1098.9000;0.0749;-0.8425;
1099.2000;0.0765;-0.8403;
1099.5000;0.0741;-0.8380;
1099.8000;0.0757;-0.8358;
1100.1000;0.0757;-0.8403;
1100.4000;0.0733;-0.8539;
1100.7000;0.0757;-0.8516;
1101.0000;0.0749;-0.8493;
1101.3000;0.0757;-0.8471;
1101.6000;0.0749;-0.8448;
1101.9000;0.0716;-0.8539;
1102.2000;0.0741;-0.8561;
1102.5000;0.0749;-0.8584;
1102.8000;0.0586;-0.8878;
1103.1000;0.0741;-0.8584;
1103.4000;0.0724;-0.8561;
1103.7000;0.0724;-0.8516;
1104.0000;0.0708;-0.8493;
1104.3000;0.0798;-0.8335;
1104.6000;0.0749;-0.8471;
1104.9000;0.0733;-0.8539;
1105.2000;0.0708;-0.8561;
1105.5000;0.0741;-0.8471;
1105.8000;0.0724;-0.8539;
1106.1000;0.0716;-0.8561;
1106.4000;0.0724;-0.8584;
1106.7000;0.0741;-0.8629;
1107.0000;0.0765;-0.8584;
1107.3000;0.0741;-0.8652;
1107.6000;0.0806;-0.8493;
1107.9000;0.0741;-0.8629;
1108.2000;0.0741;-0.8652;
1108.5000;0.0749;-0.8539;
1108.8000;0.0733;-0.8448;
1109.1000;0.0733;-0.8493;
1109.4000;0.0749;-0.8493;
1109.7000;0.0749;-0.8493;
1110.0000;0.0790;-0.8471;
1110.3000;0.0765;-0.8516;
1110.6000;0.0733;-0.8652;
1110.9000;0.0708;-0.8743;
1111.2000;0.0724;-0.8652;
1111.5000;0.0765;-0.8471;
1111.8000;0.0798;-0.8403;
1112.1000;0.0733;-0.8471;
1112.4000;0.0733;-0.8403;
1112.7000;0.0749;-0.8380;
1113.0000;0.0765;-0.8448;
1113.3000;0.0757;-0.8471;
1113.6000;0.0749;-0.8448;
1113.9000;0.0733;-0.8539;
1114.2000;0.0700;-0.8607;
1114.5000;0.0765;-0.8403;
1114.8000;0.0749;-0.8448;
1115.1000;0.0716;-0.8516;
1115.4000;0.0733;-0.8425;
1115.7000;0.0716;-0.8471;
1116.0000;0.0741;-0.8358;
1116.3000;0.0733;-0.8358;
1116.6000;0.0781;-0.8267;
1116.9000;0.0765;-0.8358;
1117.2000;0.0724;-0.8425;
1117.5000;0.0806;-0.8290;
1117.8000;0.0741;-0.8471;
1118.1000;0.0790;-0.8312;
1118.4000;0.0733;-0.8539;
1118.7000;0.0667;-0.8788;
1119.0000;0.0733;-0.8403;
1119.3000;0.0733;-0.8403;
1119.6000;0.0741;-0.8335;
1119.9000;0.0741;-0.8290;
1120.2000;0.0757;-0.8358;
1120.5000;0.0733;-0.8448;
1120.8000;0.0716;-0.8539;
1121.1000;0.0724;-0.8471;
1121.4000;0.0741;-0.8448;
1121.7000;0.0708;-0.8539;
1122.0000;0.0781;-0.8358;
1122.3000;0.0798;-0.8380;
1122.6000;0.0724;-0.8539;
1122.9000;0.0765;-0.8403;
1123.2000;0.0724;-0.8493;
1123.5000;0.0757;-0.8471;
1123.8000;0.0749;-0.8471;
1124.1000;0.0749;-0.8539;
1124.4000;0.0741;-0.8516;
1124.7000;0.0716;-0.8652;
1125.0000;0.0757;-0.8561;
1125.3000;0.0765;-0.8448;
1125.6000;0.0733;-0.8471;
1125.9000;0.0757;-0.8561;
1126.2000;0.0733;-0.8629;
1126.5000;0.0749;-0.8516;
1126.8000;0.0700;-0.8607;
1127.1000;0.0741;-0.8516;
1127.4000;0.0708;-0.8493;
1127.7000;0.0708;-0.8448;
1128.0000;0.0741;-0.8493;
1128.3000;0.0676;-0.8743;
1128.6000;0.0773;-0.8516;
1128.9000;0.0724;-0.8652;
1129.2000;0.0733;-0.8675;
1129.5000;0.0716;-0.8743;
1129.8000;0.0741;-0.8697;
1130.1000;0.0716;-0.8720;
1130.4000;0.0749;-0.8765;
1130.7000;0.0741;-0.8765;
1131.0000;0.0733;-0.8765;
1131.3000;0.0724;-0.8675;
1131.6000;0.0741;-0.8561;
1131.9000;0.0765;-0.8516;
1132.2000;0.0749;-0.8652;
1132.5000;0.0741;-0.8607;
1132.8000;0.0724;-0.8584;
1133.1000;0.0765;-0.8448;
1133.4000;0.0724;-0.8425;
1133.7000;0.0741;-0.8403;
1134.0000;0.0749;-0.8471;
1134.3000;0.0757;-0.8539;
1134.6000;0.0741;-0.8539;
1134.9000;0.0749;-0.8561;
1135.2000;0.0741;-0.8607;
1135.5000;0.0733;-0.8675;
1135.8000;0.0741;-0.8675;
1136.1000;0.0741;-0.8607;
1136.4000;0.0749;-0.8493;
1136.7000;0.0733;-0.8425;
1137.0000;0.0765;-0.8335;
1137.3000;0.0676;-0.8629;
1137.6000;0.0733;-0.8493;
1137.9000;0.0724;-0.8471;
1138.2000;0.0716;-0.8561;
1138.5000;0.0798;-0.8335;
1138.8000;0.0716;-0.8516;
1139.1000;0.0724;-0.8493;
1139.4000;0.0733;-0.8425;
1139.7000;0.0716;-0.8539;
1140.0000;0.0741;-0.8584;
1140.3000;0.0749;-0.8629;
1140.6000;0.0773;-0.8516;
1140.9000;0.0757;-0.8675;
1141.2000;0.0749;-0.8675;
1141.5000;0.0676;-0.8901;
1141.8000;0.0733;-0.8743;
1142.1000;0.0741;-0.8720;
1142.4000;0.0749;-0.8675;
1142.7000;0.0733;-0.8652;
1143.0000;0.0708;-0.8675;
1143.3000;0.0724;-0.8675;
1143.6000;0.0749;-0.8607;
1143.9000;0.0733;-0.8607;
1144.2000;0.0781;-0.8539;
1144.5000;0.0765;-0.8607;
1144.8000;0.0724;-0.8697;
1145.1000;0.0733;-0.8652;
1145.4000;0.0773;-0.8493;
1145.7000;0.0790;-0.8493;
1146.0000;0.0733;-0.8539;
1146.3000;0.0749;-0.8607;
1146.6000;0.0765;-0.8652;
1146.9000;0.0733;-0.8675;
1147.2000;0.0733;-0.8652;
1147.5000;0.0733;-0.8652;
1147.8000;0.0676;-0.8878;
1148.1000;0.0724;-0.8697;
1148.4000;0.0724;-0.8607;
1148.7000;0.0765;-0.8539;
1149.0000;0.0733;-0.8629;
1149.3000;0.0724;-0.8697;
1149.6000;0.0749;-0.8629;
1149.9000;0.0676;-0.8743;
1150.2000;0.0741;-0.8675;
1150.5000;0.0741;-0.8743;
1150.8000;0.0619;-0.9060;
1151.1000;0.0749;-0.8788;
1151.4000;0.0749;-0.8697;
1151.7000;0.0790;-0.8652;
1152.0000;0.0733;-0.8675;
1152.3000;0.0692;-0.8765;
1152.6000;0.0749;-0.8629;
1152.9000;0.0741;-0.8743;
1153.2000;0.0749;-0.8652;
1153.5000;0.0749;-0.8652;
1153.8000;0.0749;-0.8629;
1154.1000;0.0692;-0.8675;
1154.4000;0.0716;-0.8652;
1154.7000;0.0749;-0.8561;
1155.0000;0.0757;-0.8652;
1155.3000;0.0692;-0.8765;
1155.6000;0.0741;-0.8561;
1155.9000;0.0733;-0.8561;
1156.2000;0.0741;-0.8652;
1156.5000;0.0806;-0.8493;
1156.8000;0.0733;-0.8584;
1157.1000;0.0749;-0.8448;
1157.4000;0.0724;-0.8539;
1157.7000;0.0749;-0.8516;
1158.0000;0.0724;-0.8652;
1158.3000;0.0749;-0.8539;
1158.6000;0.0724;-0.8584;
1158.9000;0.0724;-0.8516;
1159.2000;0.0733;-0.8539;
1159.5000;0.0757;-0.8380;
1159.8000;0.0716;-0.8425;
1160.1000;0.0724;-0.8471;
1160.4000;0.0765;-0.8471;
1160.7000;0.0765;-0.8425;
1161.0000;0.0741;-0.8290;
1161.3000;0.0733;-0.8380;
1161.6000;0.0749;-0.8471;
1161.9000;0.0798;-0.8403;
1162.2000;0.0741;-0.8561;
1162.5000;0.0733;-0.8561;
1162.8000;0.0749;-0.8516;
1163.1000;0.0765;-0.8358;
1163.4000;0.0716;-0.8493;
1163.7000;0.0692;-0.8607;
1164.0000;0.0708;-0.8561;
1164.3000;0.0765;-0.8471;
1164.6000;0.0781;-0.8403;
1164.9000;0.0765;-0.8471;
1165.2000;0.0708;-0.8584;
1165.5000;0.0716;-0.8584;
1165.8000;0.0741;-0.8471;
1166.1000;0.0716;-0.8516;
1166.4000;0.0749;-0.8493;
1166.7000;0.0724;-0.8516;
1167.0000;0.0708;-0.8516;
1167.3000;0.0716;-0.8561;
1167.6000;0.0741;-0.8493;
1167.9000;0.0765;-0.8380;
1168.2000;0.0724;-0.8561;
1168.5000;0.0684;-0.8697;
1168.8000;0.0749;-0.8539;
1169.1000;0.0708;-0.8584;
1169.4000;0.0659;-0.8743;
1169.7000;0.0724;-0.8561;
1170.0000;0.0757;-0.8403;
1170.3000;0.0765;-0.8358;
1170.6000;0.0773;-0.8312;
1170.9000;0.0749;-0.8358;
1171.2000;0.0733;-0.8358;
1171.5000;0.0724;-0.8403;
1171.8000;0.0611;-0.8810;
1172.1000;0.0724;-0.8516;
1172.4000;0.0757;-0.8403;
1172.7000;0.0749;-0.8493;
1173.0000;0.0765;-0.8516;
1173.3000;0.0741;-0.8607;
1173.6000;0.0692;-0.8697;
1173.9000;0.0749;-0.8584;
1174.2000;0.0749;-0.8607;
1174.5000;0.0733;-0.8720;
1174.8000;0.0806;-0.8539;
1175.1000;0.0741;-0.8765;
1175.4000;0.0733;-0.8765;
1175.7000;0.0749;-0.8584;
1176.0000;0.0741;-0.8539;
1176.3000;0.0773;-0.8516;
1176.6000;0.0790;-0.8403;
1176.9000;0.0741;-0.8516;
1177.2000;0.0716;-0.8607;
1177.5000;0.0724;-0.8607;
1177.8000;0.0749;-0.8561;
1178.1000;0.0765;-0.8629;
1178.4000;0.0757;-0.8720;
1178.7000;0.0765;-0.8697;
1179.0000;0.0741;-0.8652;
1179.3000;0.0594;-0.9037;
1179.6000;0.0741;-0.8675;
1179.9000;0.0741;-0.8629;
1180.2000;0.0781;-0.8448;
1180.5000;0.0741;-0.8584;
1180.8000;0.0765;-0.8539;
1181.1000;0.0724;-0.8516;
1181.4000;0.0741;-0.8561;
1181.7000;0.0749;-0.8584;
1182.0000;0.0741;-0.8493;
1182.3000;0.0749;-0.8561;
1182.6000;0.0724;-0.8629;
1182.9000;0.0749;-0.8584;
1183.2000;0.0749;-0.8607;
1183.5000;0.0749;-0.8697;
1183.8000;0.0781;-0.8675;
1184.1000;0.0741;-0.8675;
1184.4000;0.0741;-0.8652;
1184.7000;0.0741;-0.8697;
1185.0000;0.0741;-0.8584;
1185.3000;0.0708;-0.8652;
1185.6000;0.0741;-0.8561;
1185.9000;0.0765;-0.8539;
1186.2000;0.0741;-0.8539;
1186.5000;0.0773;-0.8403;
1186.8000;0.0757;-0.8471;
1187.1000;0.0667;-0.8652;
1187.4000;0.0733;-0.8403;
1187.7000;0.0798;-0.8176;
1188.0000;0.0716;-0.8403;
1188.3000;0.0741;-0.8380;
1188.6000;0.0741;-0.8380;
1188.9000;0.0790;-0.8267;
1189.2000;0.0773;-0.8222;
1189.5000;0.0741;-0.8380;
1189.8000;0.0781;-0.8312;
1190.1000;0.0733;-0.8425;
1190.4000;0.0757;-0.8471;
1190.7000;0.0781;-0.8471;
1191.0000;0.0749;-0.8539;
1191.3000;0.0781;-0.8471;
1191.6000;0.0716;-0.8584;
1191.9000;0.0724;-0.8448;
1192.2000;0.0733;-0.8539;
1192.5000;0.0733;-0.8516;
1192.8000;0.0765;-0.8358;
1193.1000;0.0741;-0.8471;
1193.4000;0.0798;-0.8380;
1193.7000;0.0716;-0.8539;
1194.0000;0.0692;-0.8607;
1194.3000;0.0733;-0.8493;
1194.6000;0.0741;-0.8516;
1194.9000;0.0765;-0.8448;
1195.2000;0.0724;-0.8561;
1195.5000;0.0741;-0.8607;
1195.8000;0.0741;-0.8697;
1196.1000;0.0741;-0.8697;
1196.4000;0.0741;-0.8675;
1196.7000;0.0765;-0.8471;
1197.0000;0.0765;-0.8425;
1197.3000;0.0724;-0.8629;
1197.6000;0.0830;-0.8425;
1197.9000;0.0749;-0.8561;
1198.2000;0.0749;-0.8561;
1198.5000;0.0741;-0.8539;
1198.8000;0.0757;-0.8561;
1199.1000;0.0757;-0.8561;
1199.4000;0.0765;-0.8516;
1199.7000;0.0724;-0.8607;
1200.0000;0.0757;-0.8539;
1200.3000;0.0757;-0.8471;
1200.6000;0.0749;-0.8425;
1200.9000;0.0749;-0.8493;
1201.2000;0.0716;-0.8629;
1201.5000;0.0724;-0.8607;
1201.8000;0.0757;-0.8584;
1202.1000;0.0741;-0.8607;
1202.4000;0.0733;-0.8720;
1202.7000;0.0733;-0.8720;
1203.0000;0.0724;-0.8697;
1203.3000;0.0716;-0.8765;
1203.6000;0.0733;-0.8720;
1203.9000;0.0733;-0.8675;
1204.2000;0.0757;-0.8675;
1204.5000;0.0781;-0.8629;
1204.8000;0.0765;-0.8652;
1205.1000;0.0749;-0.8629;
1205.4000;0.0781;-0.8471;
1205.7000;0.0773;-0.8493;
1206.0000;0.0716;-0.8561;
1206.3000;0.0749;-0.8471;
1206.6000;0.0741;-0.8425;
1206.9000;0.0749;-0.8448;
1207.2000;0.0749;-0.8471;
1207.5000;0.0749;-0.8471;
1207.8000;0.0684;-0.8743;
1208.1000;0.0733;-0.8584;
1208.4000;0.0733;-0.8539;
1208.7000;0.0749;-0.8561;
1209.0000;0.0716;-0.8629;
1209.3000;0.0724;-0.8561;
1209.6000;0.0733;-0.8493;
1209.9000;0.0700;-0.8493;
1210.2000;0.0749;-0.8335;
1210.5000;0.0790;-0.8244;
1210.8000;0.0757;-0.8312;
1211.1000;0.0781;-0.8267;
1211.4000;0.0741;-0.8448;
1211.7000;0.0749;-0.8425;
1212.0000;0.0741;-0.8425;
1212.3000;0.0749;-0.8425;
1212.6000;0.0757;-0.8493;
1212.9000;0.0684;-0.8788;
1213.2000;0.0667;-0.8788;
1213.5000;0.0692;-0.8697;
1213.8000;0.0757;-0.8403;
1214.1000;0.0749;-0.8448;
1214.4000;0.0749;-0.8425;
1214.7000;0.0733;-0.8425;
1215.0000;0.0700;-0.8539;
1215.3000;0.0830;-0.8335;
1215.6000;0.0733;-0.8584;
1215.9000;0.0724;-0.8652;
1216.2000;0.0855;-0.8312;
1216.5000;0.0716;-0.8561;
1216.8000;0.0765;-0.8471;
1217.1000;0.0741;-0.8607;
1217.4000;0.0708;-0.8675;
1217.7000;0.0741;-0.8516;
1218.0000;0.0724;-0.8539;
1218.3000;0.0741;-0.8425;
1218.6000;0.0700;-0.8516;
1218.9000;0.0611;-0.8675;
1219.2000;0.0741;-0.8380;
1219.5000;0.0765;-0.8312;
1219.8000;0.0749;-0.8425;
1220.1000;0.0814;-0.8290;
1220.4000;0.0741;-0.8493;
1220.7000;0.0724;-0.8516;
1221.0000;0.0765;-0.8471;
1221.3000;0.0733;-0.8425;
1221.6000;0.0741;-0.8403;
1221.9000;0.0741;-0.8358;
1222.2000;0.0757;-0.8312;
1222.5000;0.0749;-0.8290;
1222.8000;0.0724;-0.8425;
1223.1000;0.0741;-0.8403;
1223.4000;0.0749;-0.8471;
1223.7000;0.0749;-0.8448;
1224.0000;0.0741;-0.8425;
1224.3000;0.0741;-0.8471;
1224.6000;0.0757;-0.8448;
1224.9000;0.0741;-0.8448;
1225.2000;0.0733;-0.8448;
1225.5000;0.0749;-0.8403;
1225.8000;0.0733;-0.8425;
1226.1000;0.0773;-0.8358;
1226.4000;0.0749;-0.8425;
1226.7000;0.0733;-0.8516;
1227.0000;0.0733;-0.8607;
1227.3000;0.0741;-0.8561;
1227.6000;0.0724;-0.8516;
1227.9000;0.0733;-0.8584;
1228.2000;0.0749;-0.8516;
1228.5000;0.0757;-0.8448;
1228.8000;0.0749;-0.8539;
1229.1000;0.0741;-0.8539;
1229.4000;0.0765;-0.8448;
1229.7000;0.0790;-0.8290;
1230.0000;0.0765;-0.8403;
1230.3000;0.0708;-0.8584;
1230.6000;0.0741;-0.8629;
1230.9000;0.0733;-0.8697;
1231.2000;0.0749;-0.8607;
1231.5000;0.0749;-0.8607;
1231.8000;0.0716;-0.8539;
1232.1000;0.0733;-0.8425;
1232.4000;0.0733;-0.8425;
1232.7000;0.0733;-0.8516;
1233.0000;0.0790;-0.8358;
1233.3000;0.0700;-0.8584;
1233.6000;0.0798;-0.8358;
1233.9000;0.0741;-0.8584;
1234.2000;0.0814;-0.8425;
1234.5000;0.0733;-0.8584;
1234.8000;0.0741;-0.8516;
1235.1000;0.0781;-0.8335;
1235.4000;0.0765;-0.8403;
1235.7000;0.0733;-0.8448;
1236.0000;0.0806;-0.8290;
1236.3000;0.0838;-0.8290;
1236.6000;0.0757;-0.8493;
1236.9000;0.0700;-0.8652;
1237.2000;0.0741;-0.8493;
1237.5000;0.0733;-0.8493;
1237.8000;0.0733;-0.8425;
1238.1000;0.0741;-0.8403;
1238.4000;0.0806;-0.8358;
1238.7000;0.0757;-0.8403;
1239.0000;0.0716;-0.8425;
1239.3000;0.0741;-0.8267;
1239.6000;0.0757;-0.8312;
1239.9000;0.0749;-0.8380;
1240.2000;0.0749;-0.8358;
1240.5000;0.0741;-0.8403;
1240.8000;0.0724;-0.8425;
1241.1000;0.0733;-0.8380;
1241.4000;0.0790;-0.8176;
1241.7000;0.0757;-0.8222;
1242.0000;0.0757;-0.8267;
1242.3000;0.0749;-0.8312;
1242.6000;0.0749;-0.8244;
1242.9000;0.0733;-0.8358;
1243.2000;0.0741;-0.8380;
1243.5000;0.0798;-0.8312;
1243.8000;0.0586;-0.8788;
1244.1000;0.0684;-0.8561;
1244.4000;0.0741;-0.8403;
1244.7000;0.0765;-0.8358;
1245.0000;0.0741;-0.8493;
1245.3000;0.0855;-0.8267;
1245.6000;0.0708;-0.8607;
1245.9000;0.0716;-0.8675;
1246.2000;0.0773;-0.8629;
1246.5000;0.0765;-0.8652;
1246.8000;0.0708;-0.8743;
1247.1000;0.0692;-0.8788;
1247.4000;0.0733;-0.8607;
1247.7000;0.0741;-0.8584;
1248.0000;0.0684;-0.8765;
1248.3000;0.0749;-0.8652;
1248.6000;0.0749;-0.8561;
1248.9000;0.0741;-0.8471;
1249.2000;0.0773;-0.8448;
1249.5000;0.0733;-0.8448;
1249.8000;0.0757;-0.8448;
1250.1000;0.0733;-0.8516;
1250.4000;0.0676;-0.8697;
1250.7000;0.0724;-0.8584;
1251.0000;0.0765;-0.8493;
1251.3000;0.0724;-0.8607;
1251.6000;0.0741;-0.8561;
1251.9000;0.0700;-0.8629;
1252.2000;0.0757;-0.8516;
1252.5000;0.0741;-0.8584;
1252.8000;0.0741;-0.8493;
1253.1000;0.0757;-0.8380;
1253.4000;0.0724;-0.8493;
1253.7000;0.0749;-0.8516;
1254.0000;0.0741;-0.8629;
1254.3000;0.0765;-0.8493;
1254.6000;0.0724;-0.8607;
1254.9000;0.0741;-0.8584;
1255.2000;0.0733;-0.8652;
1255.5000;0.0749;-0.8584;
1255.8000;0.0765;-0.8561;
1256.1000;0.0708;-0.8697;
1256.4000;0.0741;-0.8607;
1256.7000;0.0733;-0.8516;
1257.0000;0.0741;-0.8539;
1257.3000;0.0765;-0.8425;
1257.6000;0.0749;-0.8493;
1257.9000;0.0798;-0.8312;
1258.2000;0.0757;-0.8493;
1258.5000;0.0708;-0.8652;
1258.8000;0.0757;-0.8516;
1259.1000;0.0733;-0.8561;
1259.4000;0.0741;-0.8561;
1259.7000;0.0741;-0.8561;
1260.0000;0.0912;-0.8154;
1260.3000;0.0700;-0.8720;
1260.6000;0.0749;-0.8539;
1260.9000;0.0830;-0.8335;
1261.2000;0.0749;-0.8516;
1261.5000;0.0749;-0.8471;
1261.8000;0.0790;-0.8403;
1262.1000;0.0773;-0.8380;
1262.4000;0.0716;-0.8493;
1262.7000;0.0741;-0.8493;
1263.0000;0.0757;-0.8471;
1263.3000;0.0749;-0.8425;
1263.6000;0.0708;-0.8516;
1263.9000;0.0700;-0.8516;
1264.2000;0.0708;-0.8516;
1264.5000;0.0749;-0.8380;
1264.8000;0.0724;-0.8425;
1265.1000;0.0733;-0.8335;
1265.4000;0.0700;-0.8448;
1265.7000;0.0716;-0.8425;
1266.0000;0.0781;-0.8290;
1266.3000;0.0757;-0.8425;
1266.6000;0.0871;-0.8154;
1266.9000;0.0708;-0.8493;
1267.2000;0.0773;-0.8471;
1267.5000;0.0716;-0.8516;
1267.8000;0.0684;-0.8652;
1268.1000;0.0773;-0.8403;
1268.4000;0.0749;-0.8493;
1268.7000;0.0659;-0.8765;
1269.0000;0.0733;-0.8561;
1269.3000;0.0773;-0.8493;
1269.6000;0.0757;-0.8652;
1269.9000;0.0741;-0.8720;
1270.2000;0.0822;-0.8380;
1270.5000;0.0749;-0.8584;
1270.8000;0.0757;-0.8471;
1271.1000;0.0724;-0.8675;
1271.4000;0.0733;-0.8697;
1271.7000;0.0749;-0.8743;
1272.0000;0.0749;-0.8743;
1272.3000;0.0708;-0.8833;
1272.6000;0.0757;-0.8629;
1272.9000;0.0749;-0.8652;
1273.2000;0.0684;-0.8765;
1273.5000;0.0716;-0.8697;
1273.8000;0.0741;-0.8652;
1274.1000;0.0773;-0.8561;
1274.4000;0.0773;-0.8516;
1274.7000;0.0773;-0.8471;
1275.0000;0.0749;-0.8516;
1275.3000;0.0741;-0.8493;
1275.6000;0.0765;-0.8403;
1275.9000;0.0806;-0.8312;
1276.2000;0.0781;-0.8358;
1276.5000;0.0733;-0.8561;
1276.8000;0.0806;-0.8358;
1277.1000;0.0773;-0.8471;
1277.4000;0.0741;-0.8607;
1277.7000;0.0733;-0.8539;
1278.0000;0.0773;-0.8425;
1278.3000;0.0741;-0.8539;
1278.6000;0.0741;-0.8539;
1278.9000;0.0741;-0.8607;
1279.2000;0.0757;-0.8561;
1279.5000;0.0733;-0.8629;
1279.8000;0.0749;-0.8448;
1280.1000;0.0749;-0.8403;
1280.4000;0.0716;-0.8425;
1280.7000;0.0733;-0.8380;
1281.0000;0.0741;-0.8425;
1281.3000;0.0724;-0.8493;
1281.6000;0.0765;-0.8425;
1281.9000;0.0716;-0.8493;
1282.2000;0.0749;-0.8448;
1282.5000;0.0741;-0.8561;
1282.8000;0.0733;-0.8629;
1283.1000;0.0733;-0.8629;
1283.4000;0.0724;-0.8720;
1283.7000;0.0741;-0.8697;
1284.0000;0.0724;-0.8810;
1284.3000;0.0749;-0.8743;
1284.6000;0.0855;-0.8539;
1284.9000;0.0790;-0.8629;
1285.2000;0.0765;-0.8720;
1285.5000;0.0741;-0.8856;
1285.8000;0.0741;-0.8924;
1286.1000;0.0757;-0.8878;
1286.4000;0.0635;-0.8992;
1286.7000;0.0749;-0.8720;
1287.0000;0.0749;-0.8675;
1287.3000;0.0847;-0.8380;
1287.6000;0.0741;-0.8584;
1287.9000;0.0765;-0.8493;
1288.2000;0.0733;-0.8471;
1288.5000;0.0749;-0.8403;
1288.8000;0.0716;-0.8652;
1289.1000;0.0741;-0.8607;
1289.4000;0.0724;-0.8607;
1289.7000;0.0708;-0.8697;
1290.0000;0.0716;-0.8607;
1290.3000;0.0733;-0.8675;
1290.6000;0.0749;-0.8810;
1290.9000;0.0733;-0.8788;
1291.2000;0.0741;-0.8675;
1291.5000;0.0749;-0.8765;
1291.8000;0.0757;-0.8720;
1292.1000;0.0733;-0.8765;
1292.4000;0.0773;-0.8697;
1292.7000;0.0741;-0.8765;
1293.0000;0.0749;-0.8697;
1293.3000;0.0757;-0.8652;
1293.6000;0.0716;-0.8720;
1293.9000;0.0716;-0.8720;
1294.2000;0.0733;-0.8675;
1294.5000;0.0765;-0.8561;
1294.8000;0.0741;-0.8629;
1295.1000;0.0749;-0.8652;
1295.4000;0.0757;-0.8607;
1295.7000;0.0765;-0.8584;
1296.0000;0.0773;-0.8652;
1296.3000;0.0757;-0.8607;
1296.6000;0.0733;-0.8652;
1296.9000;0.0749;-0.8448;
1297.2000;0.0765;-0.8471;
1297.5000;0.0765;-0.8539;
1297.8000;0.0716;-0.8629;
1298.1000;0.0733;-0.8561;
1298.4000;0.0773;-0.8516;
1298.7000;0.0733;-0.8584;
1299.0000;0.0741;-0.8584;
1299.3000;0.0757;-0.8561;
1299.6000;0.0749;-0.8561;
1299.9000;0.0741;-0.8607;
1300.2000;0.0724;-0.8584;
1300.5000;0.0781;-0.8539;
1300.8000;0.0765;-0.8675;
1301.1000;0.0781;-0.8675;
1301.4000;0.0757;-0.8675;
1301.7000;0.0741;-0.8743;
1302.0000;0.0733;-0.8765;
1302.3000;0.0757;-0.8788;
1302.6000;0.0724;-0.8946;
1302.9000;0.0733;-0.8878;
1303.2000;0.0700;-0.8969;
1303.5000;0.0741;-0.8788;
1303.8000;0.0716;-0.8856;
1304.1000;0.0749;-0.8788;
1304.4000;0.0708;-0.8856;
1304.7000;0.0724;-0.8765;
1305.0000;0.0798;-0.8607;
1305.3000;0.0741;-0.8743;
1305.6000;0.0757;-0.8697;
1305.9000;0.0773;-0.8675;
1306.2000;0.0716;-0.8901;
1306.5000;0.0757;-0.8810;
1306.8000;0.0741;-0.8856;
1307.1000;0.0749;-0.8765;
1307.4000;0.0708;-0.8878;
1307.7000;0.0733;-0.8810;
1308.0000;0.0724;-0.8901;
1308.3000;0.0741;-0.8788;
1308.6000;0.0741;-0.8743;
1308.9000;0.0838;-0.8584;
1309.2000;0.0733;-0.8924;
1309.5000;0.0757;-0.8833;
1309.8000;0.0741;-0.8878;
1310.1000;0.0700;-0.8878;
1310.4000;0.0586;-0.9082;
1310.7000;0.0765;-0.8629;
1311.0000;0.0733;-0.8697;
1311.3000;0.0741;-0.8652;
1311.6000;0.0773;-0.8720;
1311.9000;0.0757;-0.8720;
1312.2000;0.0757;-0.8652;
1312.5000;0.0773;-0.8584;
1312.8000;0.0822;-0.8425;
1313.1000;0.0724;-0.8743;
1313.4000;0.0619;-0.9037;
1313.7000;0.0733;-0.8720;
1314.0000;0.0757;-0.8675;
1314.3000;0.0757;-0.8629;
1314.6000;0.0716;-0.8765;
1314.9000;0.0765;-0.8652;
1315.2000;0.0790;-0.8561;
1315.5000;0.0708;-0.8743;
1315.8000;0.0716;-0.8607;
1316.1000;0.0749;-0.8539;
1316.4000;0.0765;-0.8539;
1316.7000;0.0765;-0.8493;
1317.0000;0.0757;-0.8493;
1317.3000;0.0741;-0.8584;
1317.6000;0.0724;-0.8788;
1317.9000;0.0724;-0.8788;
1318.2000;0.0724;-0.8765;
1318.5000;0.0724;-0.8743;
1318.8000;0.0741;-0.8652;
1319.1000;0.0724;-0.8720;
1319.4000;0.0635;-0.8946;
1319.7000;0.0749;-0.8675;
1320.0000;0.0741;-0.8652;
1320.3000;0.0741;-0.8743;
1320.6000;0.0724;-0.8697;
1320.9000;0.0773;-0.8584;
1321.2000;0.0733;-0.8720;
1321.5000;0.0733;-0.8720;
1321.8000;0.0765;-0.8629;
1322.1000;0.0716;-0.8765;
1322.4000;0.0716;-0.8765;
1322.7000;0.0790;-0.8629;
1323.0000;0.0724;-0.8856;
1323.3000;0.0724;-0.8969;
1323.6000;0.0765;-0.8765;
1323.9000;0.0741;-0.8743;
1324.2000;0.0741;-0.8675;
1324.5000;0.0757;-0.8697;
1324.8000;0.0741;-0.8810;
1325.1000;0.0733;-0.8765;
1325.4000;0.0830;-0.8516;
1325.7000;0.0781;-0.8607;
1326.0000;0.0757;-0.8743;
1326.3000;0.0863;-0.8425;
1326.6000;0.0781;-0.8561;
1326.9000;0.0733;-0.8720;
1327.2000;0.0757;-0.8720;
1327.5000;0.0700;-0.8833;
1327.8000;0.0741;-0.8765;
1328.1000;0.0741;-0.8765;
1328.4000;0.0749;-0.8697;
1328.7000;0.0724;-0.8743;
1329.0000;0.0684;-0.8924;
1329.3000;0.0749;-0.8743;
1329.6000;0.0855;-0.8425;
1329.9000;0.0733;-0.8675;
1330.2000;0.0724;-0.8697;
1330.5000;0.0741;-0.8629;
1330.8000;0.0757;-0.8652;
1331.1000;0.0692;-0.8810;
1331.4000;0.0757;-0.8697;
1331.7000;0.0676;-0.8833;
1332.0000;0.0773;-0.8652;
1332.3000;0.0724;-0.8901;
1332.6000;0.0733;-0.8856;
1332.9000;0.0676;-0.8924;
1333.2000;0.0733;-0.8810;
1333.5000;0.0724;-0.8765;
1333.8000;0.0798;-0.8629;
1334.1000;0.0749;-0.8810;
1334.4000;0.0765;-0.8788;
1334.7000;0.0757;-0.8765;
1335.0000;0.0724;-0.8878;
1335.3000;0.0749;-0.8765;
1335.6000;0.0749;-0.8856;
1335.9000;0.0692;-0.8992;
1336.2000;0.0757;-0.8720;
1336.5000;0.0741;-0.8607;
1336.8000;0.0700;-0.8652;
1337.1000;0.0733;-0.8516;
1337.4000;0.0741;-0.8584;
1337.7000;0.0724;-0.8629;
1338.0000;0.0724;-0.8539;
1338.3000;0.0749;-0.8493;
1338.6000;0.0749;-0.8425;
1338.9000;0.0749;-0.8380;
1339.2000;0.0749;-0.8335;
1339.5000;0.0619;-0.8607;
1339.8000;0.0716;-0.8403;
1340.1000;0.0757;-0.8358;
1340.4000;0.0749;-0.8425;
1340.7000;0.0733;-0.8607;
1341.0000;0.0733;-0.8652;
1341.3000;0.0790;-0.8425;
1341.6000;0.0765;-0.8493;
1341.9000;0.0716;-0.8675;
1342.2000;0.0733;-0.8652;
1342.5000;0.0716;-0.8697;
1342.8000;0.0716;-0.8629;
1343.1000;0.0733;-0.8720;
1343.4000;0.0741;-0.8697;
1343.7000;0.0757;-0.8765;
1344.0000;0.0749;-0.8743;
1344.3000;0.0733;-0.8652;
1344.6000;0.0765;-0.8539;
1344.9000;0.0765;-0.8561;
1345.2000;0.0757;-0.8561;
1345.5000;0.0724;-0.8629;
1345.8000;0.0724;-0.8516;
1346.1000;0.0765;-0.8448;
1346.4000;0.0790;-0.8380;
1346.7000;0.0765;-0.8403;
1347.0000;0.0749;-0.8493;
1347.3000;0.0562;-0.8901;
1347.6000;0.0741;-0.8539;
1347.9000;0.0676;-0.8675;
1348.2000;0.0757;-0.8403;
1348.5000;0.0741;-0.8425;
1348.8000;0.0749;-0.8493;
1349.1000;0.0765;-0.8471;
1349.4000;0.0692;-0.8607;
1349.7000;0.0749;-0.8471;
1350.0000;0.0749;-0.8516;
1350.3000;0.0741;-0.8493;
1350.6000;0.0667;-0.8697;
1350.9000;0.0806;-0.8358;
1351.2000;0.0741;-0.8493;
1351.5000;0.0765;-0.8425;
1351.8000;0.0871;-0.8086;
1352.1000;0.0716;-0.8493;
1352.4000;0.0692;-0.8561;
1352.7000;0.0692;-0.8539;
1353.0000;0.0749;-0.8516;
1353.3000;0.0741;-0.8516;
1353.6000;0.0749;-0.8493;
1353.9000;0.0635;-0.8856;
1354.2000;0.0749;-0.8493;
1354.5000;0.0741;-0.8539;
1354.8000;0.0741;-0.8607;
1355.1000;0.0741;-0.8561;
1355.4000;0.0773;-0.8516;
1355.7000;0.0716;-0.8629;
1356.0000;0.0659;-0.8810;
1356.3000;0.0733;-0.8584;
1356.6000;0.0724;-0.8584;
1356.9000;0.0773;-0.8516;
1357.2000;0.0749;-0.8629;
1357.5000;0.0724;-0.8652;
1357.8000;0.0733;-0.8652;
1358.1000;0.0741;-0.8652;
1358.4000;0.0790;-0.8493;
1358.7000;0.0749;-0.8425;
1359.0000;0.0708;-0.8471;
1359.3000;0.0773;-0.8358;
1359.6000;0.0757;-0.8335;
1359.9000;0.0765;-0.8335;
1360.2000;0.0741;-0.8403;
1360.5000;0.0806;-0.8267;
1360.8000;0.0741;-0.8425;
1361.1000;0.0741;-0.8493;
1361.4000;0.0724;-0.8539;
1361.7000;0.0741;-0.8425;
1362.0000;0.0741;-0.8493;
1362.3000;0.0741;-0.8516;
1362.6000;0.0716;-0.8539;
1362.9000;0.0749;-0.8471;
1363.2000;0.0716;-0.8652;
1363.5000;0.0724;-0.8675;
1363.8000;0.0716;-0.8561;
1364.1000;0.0741;-0.8516;
1364.4000;0.0757;-0.8425;
1364.7000;0.0765;-0.8425;
1365.0000;0.0757;-0.8425;
1365.3000;0.0757;-0.8312;
1365.6000;0.0757;-0.8358;
1365.9000;0.0741;-0.8380;
1366.2000;0.0749;-0.8380;
1366.5000;0.0692;-0.8539;
1366.8000;0.0724;-0.8471;
1367.1000;0.0611;-0.8743;
1367.4000;0.0741;-0.8403;
1367.7000;0.0733;-0.8448;
1368.0000;0.0741;-0.8493;
1368.3000;0.0749;-0.8493;
1368.6000;0.0741;-0.8448;
1368.9000;0.0773;-0.8380;
1369.2000;0.0749;-0.8403;
1369.5000;0.0790;-0.8312;
1369.8000;0.0757;-0.8516;
1370.1000;0.0749;-0.8584;
1370.4000;0.0676;-0.8810;
1370.7000;0.0733;-0.8584;
1371.0000;0.0765;-0.8448;
1371.3000;0.0757;-0.8539;
1371.6000;0.0749;-0.8561;
1371.9000;0.0716;-0.8675;
1372.2000;0.0716;-0.8720;
1372.5000;0.0749;-0.8652;
1372.8000;0.0765;-0.8652;
1373.1000;0.0733;-0.8697;
1373.4000;0.0741;-0.8652;
1373.7000;0.0830;-0.8448;
1374.0000;0.0724;-0.8720;
1374.3000;0.0741;-0.8675;
1374.6000;0.0676;-0.8743;
1374.9000;0.0733;-0.8561;
1375.2000;0.0749;-0.8471;
1375.5000;0.0773;-0.8448;
1375.8000;0.0708;-0.8607;
1376.1000;0.0741;-0.8448;
1376.4000;0.0790;-0.8358;
1376.7000;0.0724;-0.8471;
1377.0000;0.0765;-0.8516;
1377.3000;0.0716;-0.8675;
1377.6000;0.0741;-0.8629;
1377.9000;0.0724;-0.8652;
1378.2000;0.0733;-0.8607;
1378.5000;0.0749;-0.8561;
1378.8000;0.0733;-0.8584;
1379.1000;0.0741;-0.8425;
1379.4000;0.0724;-0.8471;
1379.7000;0.0741;-0.8471;
1380.0000;0.0798;-0.8335;
1380.3000;0.0765;-0.8380;
1380.6000;0.0749;-0.8425;
1380.9000;0.0684;-0.8652;
1381.2000;0.0741;-0.8493;
1381.5000;0.0733;-0.8516;
1381.8000;0.0838;-0.8267;
1382.1000;0.0741;-0.8539;
1382.4000;0.0773;-0.8425;
1382.7000;0.0741;-0.8516;
1383.0000;0.0716;-0.8584;
1383.3000;0.0733;-0.8471;
1383.6000;0.0716;-0.8448;
1383.9000;0.0692;-0.8403;
1384.2000;0.0741;-0.8358;
1384.5000;0.0741;-0.8358;
1384.8000;0.0741;-0.8403;
1385.1000;0.0749;-0.8358;
1385.4000;0.0798;-0.8176;
1385.7000;0.0724;-0.8335;
1386.0000;0.0765;-0.8358;
1386.3000;0.0749;-0.8358;
1386.6000;0.0708;-0.8403;
1386.9000;0.0741;-0.8358;
1387.2000;0.0741;-0.8335;
1387.5000;0.0684;-0.8471;
1387.8000;0.0716;-0.8403;
1388.1000;0.0724;-0.8380;
1388.4000;0.0700;-0.8471;
1388.7000;0.0749;-0.8380;
1389.0000;0.0838;-0.8199;
1389.3000;0.0749;-0.8425;
1389.6000;0.0692;-0.8584;
1389.9000;0.0765;-0.8425;
1390.2000;0.0724;-0.8607;
1390.5000;0.0749;-0.8516;
1390.8000;0.0724;-0.8516;
1391.1000;0.0733;-0.8403;
1391.4000;0.0765;-0.8290;
1391.7000;0.0757;-0.8358;
1392.0000;0.0749;-0.8335;
1392.3000;0.0733;-0.8425;
1392.6000;0.0741;-0.8448;
1392.9000;0.0733;-0.8471;
1393.2000;0.0757;-0.8448;
1393.5000;0.0773;-0.8539;
1393.8000;0.0773;-0.8493;
1394.1000;0.0847;-0.8290;
1394.4000;0.0741;-0.8493;
1394.7000;0.0741;-0.8471;
1395.0000;0.0562;-0.8833;
1395.3000;0.0733;-0.8312;
1395.6000;0.0749;-0.8335;
1395.9000;0.0716;-0.8493;
1396.2000;0.0749;-0.8380;
1396.5000;0.0773;-0.8312;
1396.8000;0.0749;-0.8358;
1397.1000;0.0700;-0.8516;
1397.4000;0.0757;-0.8312;
1397.7000;0.0749;-0.8403;
1398.0000;0.0684;-0.8561;
1398.3000;0.0741;-0.8425;
1398.6000;0.0757;-0.8425;
1398.9000;0.0757;-0.8425;
1399.2000;0.0724;-0.8516;
1399.5000;0.0757;-0.8380;
1399.8000;0.0716;-0.8539;
