time/ms;Fluo/V;P700 deltaI/I x10³;
-199.8000;0.0765;-0.9784;
-199.5000;0.0765;-0.9762;
-199.2000;0.0781;-0.9830;
-198.9000;0.0757;-0.9830;
-198.6000;0.0773;-0.9852;
-198.3000;0.0790;-0.9807;
-198.0000;0.0749;-0.9875;
-197.7000;0.0716;-0.9943;
-197.4000;0.0765;-0.9762;
-197.1000;0.0749;-0.9739;
-196.8000;0.0749;-0.9739;
-196.5000;0.0741;-0.9739;
-196.2000;0.0724;-0.9784;
-195.9000;0.0757;-0.9784;
-195.6000;0.0798;-0.9739;
-195.3000;0.0806;-0.9671;
-195.0000;0.0773;-0.9716;
-194.7000;0.0773;-0.9784;
-194.4000;0.0871;-0.9603;
-194.1000;0.0757;-0.9830;
-193.8000;0.0757;-0.9807;
-193.5000;0.0895;-0.9490;
-193.2000;0.0716;-0.9920;
-192.9000;0.0773;-0.9807;
-192.6000;0.0765;-0.9852;
-192.3000;0.0643;-1.0169;
-192.0000;0.0749;-0.9898;
-191.7000;0.0765;-0.9807;
-191.4000;0.0741;-0.9762;
-191.1000;0.0814;-0.9649;
-190.8000;0.0765;-0.9875;
-190.5000;0.0659;-1.0147;
-190.2000;0.0757;-0.9988;
-189.9000;0.0749;-0.9988;
-189.6000;0.0741;-0.9988;
-189.3000;0.0806;-0.9830;
-189.0000;0.0757;-0.9830;
-188.7000;0.0765;-0.9762;
-188.4000;0.0781;-0.9694;
-188.1000;0.0798;-0.9739;
-187.8000;0.0700;-1.0011;
-187.5000;0.0733;-0.9830;
-187.2000;0.0602;-1.0215;
-186.9000;0.0757;-0.9920;
-186.6000;0.0724;-1.0011;
-186.3000;0.0749;-0.9988;
-186.0000;0.0741;-0.9943;
-185.7000;0.0757;-0.9988;
-185.4000;0.0773;-1.0056;
-185.1000;0.0887;-0.9716;
-184.8000;0.0749;-1.0056;
-184.5000;0.0700;-1.0124;
-184.2000;0.0781;-0.9920;
-183.9000;0.0700;-1.0169;
-183.6000;0.0749;-1.0056;
-183.3000;0.0773;-0.9898;
-183.0000;0.0741;-0.9988;
-182.7000;0.0757;-0.9988;
-182.4000;0.0757;-1.0011;
-182.1000;0.0741;-0.9988;
-181.8000;0.0773;-0.9898;
-181.5000;0.0757;-0.9943;
-181.2000;0.0733;-1.0056;
-180.9000;0.0757;-0.9988;
-180.6000;0.0741;-1.0034;
-180.3000;0.0749;-1.0079;
-180.0000;0.0733;-1.0192;
-179.7000;0.0749;-1.0101;
-179.4000;0.0749;-1.0011;
-179.1000;0.0651;-1.0237;
-178.8000;0.0749;-0.9943;
-178.5000;0.0749;-0.9852;
-178.2000;0.0765;-0.9830;
-177.9000;0.0781;-0.9875;
-177.6000;0.0667;-1.0260;
-177.3000;0.0749;-0.9988;
-177.0000;0.0757;-0.9920;
-176.7000;0.0765;-0.9852;
-176.4000;0.0749;-0.9830;
-176.1000;0.0757;-0.9807;
-175.8000;0.0749;-0.9852;
-175.5000;0.0765;-0.9807;
-175.2000;0.0741;-0.9875;
-174.9000;0.0749;-0.9784;
-174.6000;0.0773;-0.9762;
-174.3000;0.0733;-0.9966;
-174.0000;0.0749;-0.9966;
-173.7000;0.0757;-0.9875;
-173.4000;0.0741;-0.9875;
-173.1000;0.0741;-0.9830;
-172.8000;0.0741;-0.9898;
-172.5000;0.0757;-0.9830;
-172.2000;0.0790;-0.9762;
-171.9000;0.0765;-0.9898;
-171.6000;0.0749;-0.9943;
-171.3000;0.0757;-0.9875;
-171.0000;0.0749;-0.9830;
-170.7000;0.0757;-0.9830;
-170.4000;0.0716;-0.9966;
-170.1000;0.0773;-0.9875;
-169.8000;0.0749;-0.9966;
-169.5000;0.0773;-0.9943;
-169.2000;0.0757;-0.9966;
-168.9000;0.0773;-0.9988;
-168.6000;0.0757;-1.0011;
-168.3000;0.0765;-1.0011;
-168.0000;0.0749;-0.9966;
-167.7000;0.0790;-0.9920;
-167.4000;0.0781;-0.9784;
-167.1000;0.0741;-0.9898;
-166.8000;0.0619;-1.0147;
-166.5000;0.0765;-0.9852;
-166.2000;0.0749;-0.9898;
-165.9000;0.0749;-0.9875;
-165.6000;0.0773;-0.9784;
-165.3000;0.0724;-0.9966;
-165.0000;0.0733;-0.9943;
-164.7000;0.0749;-1.0011;
-164.4000;0.0830;-0.9807;
-164.1000;0.0773;-0.9943;
-163.8000;0.0757;-0.9988;
-163.5000;0.0724;-0.9988;
-163.2000;0.0781;-0.9875;
-162.9000;0.0692;-1.0101;
-162.6000;0.0757;-0.9875;
-162.3000;0.0708;-0.9988;
-162.0000;0.0757;-0.9966;
-161.7000;0.0798;-0.9852;
-161.4000;0.0749;-0.9966;
-161.1000;0.0765;-0.9966;
-160.8000;0.0781;-0.9875;
-160.5000;0.0773;-0.9943;
-160.2000;0.0749;-0.9966;
-159.9000;0.0749;-0.9966;
-159.6000;0.0741;-0.9943;
-159.3000;0.0757;-0.9898;
-159.0000;0.0765;-0.9943;
-158.7000;0.0757;-1.0011;
-158.4000;0.0773;-0.9943;
-158.1000;0.0847;-0.9716;
-157.8000;0.0773;-0.9852;
-157.5000;0.0749;-0.9875;
-157.2000;0.0765;-0.9830;
-156.9000;0.0765;-0.9875;
-156.6000;0.0733;-0.9875;
-156.3000;0.0741;-0.9875;
-156.0000;0.0749;-0.9898;
-155.7000;0.0781;-0.9807;
-155.4000;0.0773;-0.9875;
-155.1000;0.0790;-0.9830;
-154.8000;0.0781;-0.9807;
-154.5000;0.0749;-0.9898;
-154.2000;0.0741;-0.9898;
-153.9000;0.0814;-0.9807;
-153.6000;0.0635;-1.0305;
-153.3000;0.0765;-0.9920;
-153.0000;0.0928;-0.9445;
-152.7000;0.0708;-1.0056;
-152.4000;0.0749;-0.9966;
-152.1000;0.0757;-1.0011;
-151.8000;0.0749;-1.0034;
-151.5000;0.0741;-1.0056;
-151.2000;0.0781;-0.9875;
-150.9000;0.0700;-1.0056;
-150.6000;0.0733;-0.9898;
-150.3000;0.0790;-0.9784;
-150.0000;0.0757;-0.9807;
-149.7000;0.0773;-0.9807;
-149.4000;0.0773;-0.9852;
-149.1000;0.0781;-0.9875;
-148.8000;0.0765;-0.9898;
-148.5000;0.0749;-0.9920;
-148.2000;0.0749;-0.9988;
-147.9000;0.0733;-1.0011;
-147.6000;0.0773;-0.9898;
-147.3000;0.0773;-0.9966;
-147.0000;0.0749;-1.0034;
-146.7000;0.0749;-1.0011;
-146.4000;0.0830;-0.9784;
-146.1000;0.0757;-0.9852;
-145.8000;0.0741;-0.9920;
-145.5000;0.0912;-0.9445;
-145.2000;0.0773;-0.9807;
-144.9000;0.0757;-0.9852;
-144.6000;0.0806;-0.9694;
-144.3000;0.0741;-0.9784;
-144.0000;0.0765;-0.9694;
-143.7000;0.0757;-0.9694;
-143.4000;0.0765;-0.9694;
-143.1000;0.0749;-0.9830;
-142.8000;0.0749;-0.9875;
-142.5000;0.0773;-0.9875;
-142.2000;0.0749;-0.9988;
-141.9000;0.0733;-1.0011;
-141.6000;0.0773;-0.9898;
-141.3000;0.0765;-0.9943;
-141.0000;0.0716;-1.0079;
-140.7000;0.0863;-0.9784;
-140.4000;0.0765;-1.0011;
-140.1000;0.0765;-1.0034;
-139.8000;0.0765;-0.9920;
-139.5000;0.0765;-0.9807;
-139.2000;0.0781;-0.9807;
-138.9000;0.0781;-0.9807;
-138.6000;0.0765;-0.9920;
-138.3000;0.0757;-0.9988;
-138.0000;0.0773;-0.9920;
-137.7000;0.0773;-0.9875;
-137.4000;0.0741;-0.9966;
-137.1000;0.0798;-0.9784;
-136.8000;0.0684;-1.0101;
-136.5000;0.0757;-0.9943;
-136.2000;0.0773;-0.9898;
-135.9000;0.0749;-0.9966;
-135.6000;0.0724;-0.9966;
-135.3000;0.0741;-0.9875;
-135.0000;0.0765;-0.9898;
-134.7000;0.0765;-0.9966;
-134.4000;0.0757;-0.9966;
-134.1000;0.0757;-0.9920;
-133.8000;0.0765;-0.9966;
-133.5000;0.0741;-1.0011;
-133.2000;0.0749;-0.9966;
-132.9000;0.0790;-0.9920;
-132.6000;0.0773;-0.9920;
-132.3000;0.0757;-1.0079;
-132.0000;0.0781;-1.0101;
-131.7000;0.0757;-1.0147;
-131.4000;0.0733;-1.0169;
-131.1000;0.0765;-1.0079;
-130.8000;0.0822;-0.9920;
-130.5000;0.0733;-1.0056;
-130.2000;0.0684;-1.0034;
-129.9000;0.0765;-0.9762;
-129.6000;0.0684;-1.0034;
-129.3000;0.0773;-0.9626;
-129.0000;0.0822;-0.9422;
-128.7000;0.0822;-0.9558;
-128.4000;0.0733;-0.9716;
-128.1000;0.0757;-0.9716;
-127.8000;0.0749;-0.9694;
-127.5000;0.0757;-0.9671;
-127.2000;0.0781;-0.9716;
-126.9000;0.0773;-0.9875;
-126.6000;0.0749;-0.9920;
-126.3000;0.0790;-0.9807;
-126.0000;0.0773;-0.9943;
-125.7000;0.0773;-0.9966;
-125.4000;0.0757;-1.0034;
-125.1000;0.0773;-1.0034;
-124.8000;0.0765;-0.9920;
-124.5000;0.0724;-0.9920;
-124.2000;0.0773;-0.9739;
-123.9000;0.0741;-0.9830;
-123.6000;0.0806;-0.9671;
-123.3000;0.0757;-0.9762;
-123.0000;0.0781;-0.9694;
-122.7000;0.0749;-0.9762;
-122.4000;0.0692;-0.9943;
-122.1000;0.0781;-0.9694;
-121.8000;0.0749;-0.9875;
-121.5000;0.0765;-0.9807;
-121.2000;0.0700;-0.9920;
-120.9000;0.0749;-0.9875;
-120.6000;0.0749;-0.9852;
-120.3000;0.0741;-0.9830;
-120.0000;0.0773;-0.9694;
-119.7000;0.0749;-0.9694;
-119.4000;0.0733;-0.9762;
-119.1000;0.0733;-0.9807;
-118.8000;0.0733;-0.9784;
-118.5000;0.0749;-0.9716;
-118.2000;0.0749;-0.9716;
-117.9000;0.0741;-0.9739;
-117.6000;0.0733;-0.9739;
-117.3000;0.0790;-0.9739;
-117.0000;0.0781;-0.9784;
-116.7000;0.0765;-0.9875;
-116.4000;0.0757;-0.9966;
-116.1000;0.0733;-1.0056;
-115.8000;0.0773;-0.9943;
-115.5000;0.0749;-0.9966;
-115.2000;0.0887;-0.9694;
-114.9000;0.0741;-0.9966;
-114.6000;0.0773;-0.9875;
-114.3000;0.0724;-1.0079;
-114.0000;0.0733;-0.9988;
-113.7000;0.0757;-0.9920;
-113.4000;0.0781;-0.9784;
-113.1000;0.0855;-0.9558;
-112.8000;0.0741;-0.9830;
-112.5000;0.0749;-0.9898;
-112.2000;0.0757;-0.9943;
-111.9000;0.0773;-0.9852;
-111.6000;0.0741;-0.9943;
-111.3000;0.0749;-0.9920;
-111.0000;0.0741;-0.9988;
-110.7000;0.0757;-0.9898;
-110.4000;0.0757;-0.9875;
-110.1000;0.0757;-0.9875;
-109.8000;0.0781;-0.9762;
-109.5000;0.0741;-0.9739;
-109.2000;0.0733;-0.9830;
-108.9000;0.0741;-0.9852;
-108.6000;0.0879;-0.9513;
-108.3000;0.0798;-0.9649;
-108.0000;0.0733;-0.9784;
-107.7000;0.0749;-0.9762;
-107.4000;0.0724;-0.9762;
-107.1000;0.0733;-0.9671;
-106.8000;0.0757;-0.9603;
-106.5000;0.0798;-0.9558;
-106.2000;0.0765;-0.9649;
-105.9000;0.0749;-0.9739;
-105.6000;0.0700;-0.9898;
-105.3000;0.0741;-0.9762;
-105.0000;0.0757;-0.9739;
-104.7000;0.0733;-0.9807;
-104.4000;0.0765;-0.9716;
-104.1000;0.0838;-0.9581;
-103.8000;0.0741;-0.9807;
-103.5000;0.0790;-0.9671;
-103.2000;0.0773;-0.9807;
-102.9000;0.0757;-0.9807;
-102.6000;0.0773;-0.9716;
-102.3000;0.0749;-0.9716;
-102.0000;0.0749;-0.9716;
-101.7000;0.0741;-0.9694;
-101.4000;0.0765;-0.9694;
-101.1000;0.0724;-0.9739;
-100.8000;0.0708;-0.9762;
-100.5000;0.0790;-0.9649;
-100.2000;0.0724;-0.9830;
-99.9000;0.0765;-0.9649;
-99.6000;0.0757;-0.9762;
-99.3000;0.0806;-0.9739;
-99.0000;0.0806;-0.9716;
-98.7000;0.0749;-0.9852;
-98.4000;0.0830;-0.9649;
-98.1000;0.0773;-0.9988;
-97.8000;0.0757;-1.0124;
-97.5000;0.0741;-1.0147;
-97.2000;0.0757;-1.0056;
-96.9000;0.0619;-1.0351;
-96.6000;0.0781;-0.9988;
-96.3000;0.0708;-1.0169;
-96.0000;0.0757;-1.0056;
-95.7000;0.0773;-0.9966;
-95.4000;0.0822;-0.9852;
-95.1000;0.0749;-0.9966;
-94.8000;0.0781;-0.9830;
-94.5000;0.0757;-0.9852;
-94.2000;0.0733;-0.9966;
-93.9000;0.0765;-0.9920;
-93.6000;0.0757;-0.9852;
-93.3000;0.0781;-0.9716;
-93.0000;0.0790;-0.9694;
-92.7000;0.0781;-0.9762;
-92.4000;0.0765;-0.9784;
-92.1000;0.0733;-0.9852;
-91.8000;0.0781;-0.9762;
-91.5000;0.0749;-0.9898;
-91.2000;0.0757;-0.9898;
-90.9000;0.0757;-0.9966;
-90.6000;0.0773;-0.9898;
-90.3000;0.0781;-0.9875;
-90.0000;0.0741;-0.9988;
-89.7000;0.0749;-0.9966;
-89.4000;0.0757;-0.9920;
-89.1000;0.0741;-0.9920;
-88.8000;0.0741;-0.9943;
-88.5000;0.0765;-0.9830;
-88.2000;0.0749;-0.9807;
-87.9000;0.0749;-0.9739;
-87.6000;0.0741;-0.9694;
-87.3000;0.0716;-0.9852;
-87.0000;0.0757;-0.9762;
-86.7000;0.0806;-0.9671;
-86.4000;0.0781;-0.9784;
-86.1000;0.0749;-0.9898;
-85.8000;0.0757;-0.9943;
-85.5000;0.0741;-1.0034;
-85.2000;0.0724;-1.0034;
-84.9000;0.0765;-0.9943;
-84.6000;0.0871;-0.9649;
-84.3000;0.0822;-0.9716;
-84.0000;0.0733;-0.9898;
-83.7000;0.0765;-0.9830;
-83.4000;0.0733;-0.9875;
-83.1000;0.0692;-1.0011;
-82.8000;0.0757;-0.9875;
-82.5000;0.0708;-0.9943;
-82.2000;0.0773;-0.9784;
-81.9000;0.0741;-0.9784;
-81.6000;0.0765;-0.9671;
-81.3000;0.0733;-0.9762;
-81.0000;0.0733;-0.9807;
-80.7000;0.0765;-0.9694;
-80.4000;0.0790;-0.9649;
-80.1000;0.0838;-0.9513;
-79.8000;0.0765;-0.9716;
-79.5000;0.0895;-0.9331;
-79.2000;0.0757;-0.9739;
-78.9000;0.0757;-0.9739;
-78.6000;0.0741;-0.9875;
-78.3000;0.0724;-1.0011;
-78.0000;0.0733;-0.9988;
-77.7000;0.0781;-0.9807;
-77.4000;0.0790;-0.9739;
-77.1000;0.0708;-0.9943;
-76.8000;0.0749;-0.9784;
-76.5000;0.0749;-0.9807;
-76.2000;0.0741;-0.9762;
-75.9000;0.0741;-0.9716;
-75.6000;0.0733;-0.9784;
-75.3000;0.0749;-0.9694;
-75.0000;0.0773;-0.9603;
-74.7000;0.0757;-0.9603;
-74.4000;0.0757;-0.9649;
-74.1000;0.0790;-0.9649;
-73.8000;0.0765;-0.9784;
-73.5000;0.0773;-0.9762;
-73.2000;0.0749;-0.9898;
-72.9000;0.0765;-0.9830;
-72.6000;0.0757;-0.9875;
-72.3000;0.0733;-0.9875;
-72.0000;0.0749;-0.9807;
-71.7000;0.0781;-0.9784;
-71.4000;0.0700;-1.0034;
-71.1000;0.0757;-0.9784;
-70.8000;0.0741;-0.9830;
-70.5000;0.0741;-0.9920;
-70.2000;0.0716;-0.9966;
-69.9000;0.0855;-0.9603;
-69.6000;0.0741;-0.9875;
-69.3000;0.0765;-0.9716;
-69.0000;0.0757;-0.9762;
-68.7000;0.0741;-0.9807;
-68.4000;0.0741;-0.9920;
-68.1000;0.0887;-0.9513;
-67.8000;0.0765;-0.9830;
-67.5000;0.0749;-0.9943;
-67.2000;0.0757;-0.9943;
-66.9000;0.0749;-0.9943;
-66.6000;0.0749;-0.9943;
-66.3000;0.0765;-0.9898;
-66.0000;0.0757;-0.9943;
-65.7000;0.0757;-0.9852;
-65.4000;0.0741;-0.9784;
-65.1000;0.0757;-0.9716;
-64.8000;0.0781;-0.9671;
-64.5000;0.0757;-0.9716;
-64.2000;0.0724;-0.9716;
-63.9000;0.0757;-0.9603;
-63.6000;0.0765;-0.9603;
-63.3000;0.0741;-0.9762;
-63.0000;0.0773;-0.9694;
-62.7000;0.0749;-0.9694;
-62.4000;0.0749;-0.9649;
-62.1000;0.0741;-0.9694;
-61.8000;0.0757;-0.9716;
-61.5000;0.0757;-0.9739;
-61.2000;0.0765;-0.9716;
-60.9000;0.0749;-0.9716;
-60.6000;0.0773;-0.9671;
-60.3000;0.0757;-0.9739;
-60.0000;0.0757;-0.9739;
-59.7000;0.0749;-0.9807;
-59.4000;0.0765;-0.9875;
-59.1000;0.0757;-0.9898;
-58.8000;0.0757;-0.9898;
-58.5000;0.0733;-0.9852;
-58.2000;0.0757;-0.9830;
-57.9000;0.0716;-0.9966;
-57.6000;0.0765;-0.9920;
-57.3000;0.0773;-0.9898;
-57.0000;0.0773;-0.9898;
-56.7000;0.0708;-0.9966;
-56.4000;0.0749;-0.9784;
-56.1000;0.0741;-0.9716;
-55.8000;0.0749;-0.9739;
-55.5000;0.0741;-0.9830;
-55.2000;0.0741;-0.9807;
-54.9000;0.0757;-0.9807;
-54.6000;0.0773;-0.9739;
-54.3000;0.0765;-0.9739;
-54.0000;0.0757;-0.9716;
-53.7000;0.0790;-0.9739;
-53.4000;0.0773;-0.9784;
-53.1000;0.0749;-0.9920;
-52.8000;0.0749;-0.9988;
-52.5000;0.0700;-1.0079;
-52.2000;0.0765;-0.9852;
-51.9000;0.0757;-0.9875;
-51.6000;0.0757;-0.9875;
-51.3000;0.0765;-0.9830;
-51.0000;0.0871;-0.9626;
-50.7000;0.0741;-0.9943;
-50.4000;0.0619;-1.0079;
-50.1000;0.0757;-0.9762;
-49.8000;0.0798;-0.9671;
-49.5000;0.0733;-0.9784;
-49.2000;0.0733;-0.9875;
-48.9000;0.0741;-0.9898;
-48.6000;0.0749;-0.9852;
-48.3000;0.0822;-0.9739;
-48.0000;0.0757;-0.9943;
-47.7000;0.0781;-0.9943;
-47.4000;0.0757;-1.0011;
-47.1000;0.0781;-0.9920;
-46.8000;0.0790;-0.9898;
-46.5000;0.0724;-1.0011;
-46.2000;0.0724;-0.9943;
-45.9000;0.0765;-0.9830;
-45.6000;0.0741;-0.9898;
-45.3000;0.0773;-0.9784;
-45.0000;0.0765;-0.9762;
-44.7000;0.0749;-0.9830;
-44.4000;0.0749;-0.9830;
-44.1000;0.0765;-0.9830;
-43.8000;0.0773;-0.9830;
-43.5000;0.0749;-0.9784;
-43.2000;0.0822;-0.9671;
-42.9000;0.0765;-0.9784;
-42.6000;0.0806;-0.9649;
-42.3000;0.0781;-0.9739;
-42.0000;0.0765;-0.9807;
-41.7000;0.0757;-0.9875;
-41.4000;0.0741;-0.9830;
-41.1000;0.0757;-0.9784;
-40.8000;0.0781;-0.9694;
-40.5000;0.0741;-0.9898;
-40.2000;0.0741;-0.9966;
-39.9000;0.0667;-1.0101;
-39.6000;0.0708;-0.9943;
-39.3000;0.0781;-0.9762;
-39.0000;0.0749;-0.9830;
-38.7000;0.0716;-0.9807;
-38.4000;0.0757;-0.9694;
-38.1000;0.0765;-0.9649;
-37.8000;0.0781;-0.9694;
-37.5000;0.0847;-0.9603;
-37.2000;0.0765;-0.9762;
-36.9000;0.0773;-0.9807;
-36.6000;0.0798;-0.9784;
-36.3000;0.0724;-0.9988;
-36.0000;0.0814;-0.9762;
-35.7000;0.0781;-0.9784;
-35.4000;0.0716;-0.9830;
-35.1000;0.0733;-0.9739;
-34.8000;0.0749;-0.9739;
-34.5000;0.0749;-0.9671;
-34.2000;0.0667;-0.9830;
-33.9000;0.0757;-0.9581;
-33.6000;0.0733;-0.9626;
-33.3000;0.0741;-0.9694;
-33.0000;0.0838;-0.9399;
-32.7000;0.0733;-0.9649;
-32.4000;0.0773;-0.9649;
-32.1000;0.0765;-0.9694;
-31.8000;0.0749;-0.9739;
-31.5000;0.0765;-0.9784;
-31.2000;0.0749;-0.9716;
-30.9000;0.0749;-0.9603;
-30.6000;0.0757;-0.9649;
-30.3000;0.0806;-0.9513;
-30.0000;0.0757;-0.9694;
-29.7000;0.0781;-0.9671;
-29.4000;0.0814;-0.9716;
-29.1000;0.0741;-0.9875;
-28.8000;0.0733;-0.9920;
-28.5000;0.0676;-1.0101;
-28.2000;0.0814;-0.9784;
-27.9000;0.0765;-0.9830;
-27.6000;0.0700;-0.9875;
-27.3000;0.0773;-0.9671;
-27.0000;0.0757;-0.9716;
-26.7000;0.0765;-0.9649;
-26.4000;0.0724;-0.9784;
-26.1000;0.0757;-0.9762;
-25.8000;0.0749;-0.9852;
-25.5000;0.0838;-0.9649;
-25.2000;0.0700;-0.9943;
-24.9000;0.0757;-0.9875;
-24.6000;0.0733;-0.9943;
-24.3000;0.0741;-0.9875;
-24.0000;0.0749;-0.9830;
-23.7000;0.0741;-0.9739;
-23.4000;0.0733;-0.9807;
-23.1000;0.0765;-0.9716;
-22.8000;0.0749;-0.9762;
-22.5000;0.0733;-0.9784;
-22.2000;0.0765;-0.9852;
-21.9000;0.0741;-0.9988;
-21.6000;0.0741;-1.0034;
-21.3000;0.0667;-1.0169;
-21.0000;0.0741;-0.9898;
-20.7000;0.0781;-0.9830;
-20.4000;0.0765;-0.9852;
-20.1000;0.0757;-0.9898;
-19.8000;0.0765;-0.9920;
-19.5000;0.0773;-0.9898;
-19.2000;0.0765;-0.9966;
-18.9000;0.0806;-0.9920;
-18.6000;0.0838;-0.9784;
-18.3000;0.0814;-0.9852;
-18.0000;0.0765;-0.9988;
-17.7000;0.0773;-0.9988;
-17.4000;0.0781;-0.9988;
-17.1000;0.0716;-1.0124;
-16.8000;0.0757;-0.9966;
-16.5000;0.0757;-0.9852;
-16.2000;0.0716;-0.9988;
-15.9000;0.0741;-0.9875;
-15.6000;0.0611;-1.0169;
-15.3000;0.0733;-0.9830;
-15.0000;0.0757;-0.9716;
-14.7000;0.0692;-0.9943;
-14.4000;0.0765;-0.9694;
-14.1000;0.0667;-0.9920;
-13.8000;0.0757;-0.9830;
-13.5000;0.0741;-0.9920;
-13.2000;0.0651;-1.0192;
-12.9000;0.0765;-0.9898;
-12.6000;0.0798;-0.9807;
-12.3000;0.0781;-0.9739;
-12.0000;0.0838;-0.9626;
-11.7000;0.0781;-0.9716;
-11.4000;0.0765;-0.9671;
-11.1000;0.0724;-0.9784;
-10.8000;0.0741;-0.9852;
-10.5000;0.0749;-0.9852;
-10.2000;0.0741;-0.9966;
-9.9000;0.0741;-0.9943;
-9.6000;0.0749;-0.9920;
-9.3000;0.0716;-0.9898;
-9.0000;0.0757;-0.9852;
-8.7000;0.0765;-0.9875;
-8.4000;0.0700;-0.9943;
-8.1000;0.0749;-0.9852;
-7.8000;0.0765;-0.9716;
-7.5000;0.0773;-0.9649;
-7.2000;0.0749;-0.9649;
-6.9000;0.0757;-0.9513;
-6.6000;0.0757;-0.9445;
-6.3000;0.0733;-0.9467;
-6.0000;0.0741;-0.9513;
-5.7000;0.0749;-0.9603;
-5.4000;0.0790;-0.9603;
-5.1000;0.0741;-0.9739;
-4.8000;0.0749;-0.9694;
-4.5000;0.0749;-0.9762;
-4.2000;0.0733;-0.9784;
-3.9000;0.0741;-0.9762;
-3.6000;0.0724;-0.9784;
-3.3000;0.0749;-0.9694;
-3.0000;0.0757;-0.9671;
-2.7000;0.0781;-0.9626;
-2.4000;0.0684;-0.9875;
-2.1000;0.0765;-0.9649;
-1.8000;0.0692;-0.9898;
-1.5000;0.0757;-0.9762;
-1.2000;0.0724;-0.9830;
-0.9000;0.0741;-0.9784;
-0.6000;0.0773;-0.9694;
-0.3000;0.0781;-0.9649;
0.0000;0.0781;-0.9649;
0.3000;0.0757;-1.0034;
0.6000;0.0765;-0.9943;
0.9000;0.0790;-0.9739;
1.2000;0.0904;-0.9286;
1.5000;0.0798;-0.9467;
1.8000;0.0871;-0.9196;
2.1000;0.0838;-0.9196;
2.4000;0.0855;-0.9060;
2.7000;0.0773;-0.9241;
3.0000;0.0855;-0.9014;
3.3000;0.0855;-0.8992;
3.6000;0.0879;-0.8878;
3.9000;0.0765;-0.9196;
4.2000;0.0855;-0.8878;
4.5000;0.0838;-0.8833;
4.8000;0.0961;-0.8425;
5.1000;0.0871;-0.8675;
5.4000;0.0847;-0.8675;
5.7000;0.0855;-0.8697;
6.0000;0.0871;-0.8584;
6.3000;0.0969;-0.8358;
6.6000;0.0879;-0.8539;
6.9000;0.0895;-0.8471;
7.2000;0.0814;-0.8720;
7.5000;0.0863;-0.8675;
7.8000;0.0879;-0.8561;
8.1000;0.0863;-0.8561;
8.4000;0.0855;-0.8539;
8.7000;0.0871;-0.8493;
9.0000;0.0887;-0.8561;
9.3000;0.0879;-0.8607;
9.6000;0.0895;-0.8629;
9.9000;0.0847;-0.8720;
10.2000;0.0863;-0.8629;
10.5000;0.0847;-0.8697;
10.8000;0.0847;-0.8720;
11.1000;0.0879;-0.8697;
11.4000;0.0895;-0.8697;
11.7000;0.0822;-0.8833;
12.0000;0.0806;-0.8833;
12.3000;0.0879;-0.8697;
12.6000;0.0879;-0.8652;
12.9000;0.0798;-0.8833;
13.2000;0.0863;-0.8652;
13.5000;0.0920;-0.8539;
13.8000;0.0887;-0.8561;
14.1000;0.0871;-0.8584;
14.4000;0.0871;-0.8584;
14.7000;0.0871;-0.8516;
15.0000;0.0895;-0.8471;
15.3000;0.0822;-0.8629;
15.6000;0.0879;-0.8539;
15.9000;0.0912;-0.8448;
16.2000;0.0879;-0.8539;
16.5000;0.0895;-0.8403;
16.8000;0.0895;-0.8380;
17.1000;0.0879;-0.8403;
17.4000;0.0879;-0.8380;
17.7000;0.0871;-0.8380;
18.0000;0.0887;-0.8312;
18.3000;0.0863;-0.8448;
18.6000;0.0847;-0.8448;
18.9000;0.0863;-0.8380;
19.2000;0.0871;-0.8380;
19.5000;0.0863;-0.8403;
19.8000;0.0871;-0.8471;
20.1000;0.0887;-0.8516;
20.4000;0.0847;-0.8607;
20.7000;0.0887;-0.8629;
21.0000;0.0863;-0.8675;
21.3000;0.0912;-0.8584;
21.6000;0.0879;-0.8720;
21.9000;0.0855;-0.8675;
22.2000;0.0863;-0.8607;
22.5000;0.0871;-0.8584;
22.8000;0.0904;-0.8471;
23.1000;0.0887;-0.8561;
23.4000;0.0855;-0.8561;
23.7000;0.0895;-0.8448;
24.0000;0.0895;-0.8471;
24.3000;0.0847;-0.8516;
24.6000;0.0871;-0.8471;
24.9000;0.0879;-0.8425;
25.2000;0.0895;-0.8380;
25.5000;0.0904;-0.8380;
25.8000;0.0871;-0.8493;
26.1000;0.0904;-0.8448;
26.4000;0.0904;-0.8380;
26.7000;0.0920;-0.8358;
27.0000;0.0887;-0.8312;
27.3000;0.0863;-0.8425;
27.6000;0.0904;-0.8471;
27.9000;0.0830;-0.8629;
28.2000;0.0871;-0.8539;
28.5000;0.0895;-0.8425;
28.8000;0.0887;-0.8471;
29.1000;0.0879;-0.8561;
29.4000;0.0895;-0.8584;
29.7000;0.0879;-0.8584;
30.0000;0.0887;-0.8493;
30.3000;0.0952;-0.8425;
30.6000;0.0912;-0.8607;
30.9000;0.0863;-0.8720;
31.2000;0.0904;-0.8629;
31.5000;0.0871;-0.8743;
31.8000;0.0879;-0.8697;
32.1000;0.0855;-0.8765;
32.4000;0.0904;-0.8675;
32.7000;0.0895;-0.8629;
33.0000;0.0887;-0.8675;
33.3000;0.0879;-0.8697;
33.6000;0.0814;-0.8856;
33.9000;0.0871;-0.8720;
34.2000;0.0887;-0.8697;
34.5000;0.0814;-0.8765;
34.8000;0.0863;-0.8675;
35.1000;0.0920;-0.8516;
35.4000;0.0847;-0.8697;
35.7000;0.0822;-0.8856;
36.0000;0.0895;-0.8743;
36.3000;0.0895;-0.8743;
36.6000;0.0871;-0.8743;
36.9000;0.0887;-0.8743;
37.2000;0.0887;-0.8720;
37.5000;0.0879;-0.8765;
37.8000;0.0887;-0.8720;
38.1000;0.0871;-0.8675;
38.4000;0.0855;-0.8720;
38.7000;0.0879;-0.8607;
39.0000;0.0904;-0.8607;
39.3000;0.0887;-0.8697;
39.6000;0.0871;-0.8675;
39.9000;0.0879;-0.8584;
40.2000;0.0904;-0.8607;
40.5000;0.0895;-0.8652;
40.8000;0.0920;-0.8675;
41.1000;0.0904;-0.8561;
41.4000;0.0904;-0.8493;
41.7000;0.0977;-0.8358;
42.0000;0.0887;-0.8697;
42.3000;0.0887;-0.8629;
42.6000;0.0749;-0.8946;
42.9000;0.0904;-0.8516;
43.2000;0.0904;-0.8516;
43.5000;0.0912;-0.8516;
43.8000;0.0879;-0.8561;
44.1000;0.0887;-0.8471;
44.4000;0.0879;-0.8584;
44.7000;0.0936;-0.8471;
45.0000;0.0904;-0.8539;
45.3000;0.0871;-0.8584;
45.6000;0.0895;-0.8561;
45.9000;0.0904;-0.8584;
46.2000;0.0887;-0.8561;
46.5000;0.0895;-0.8539;
46.8000;0.0936;-0.8403;
47.1000;0.0895;-0.8403;
47.4000;0.0879;-0.8471;
47.7000;0.0855;-0.8493;
48.0000;0.0879;-0.8516;
48.3000;0.0879;-0.8448;
48.6000;0.0895;-0.8403;
48.9000;0.0887;-0.8403;
49.2000;0.0887;-0.8471;
49.5000;0.0895;-0.8425;
49.8000;0.0969;-0.8290;
50.1000;0.0912;-0.8493;
50.4000;0.0879;-0.8607;
50.7000;0.0806;-0.8675;
51.0000;0.0895;-0.8493;
51.3000;0.0879;-0.8425;
51.6000;0.0912;-0.8403;
51.9000;0.0912;-0.8312;
52.2000;0.0895;-0.8358;
52.5000;0.0895;-0.8403;
52.8000;0.0895;-0.8471;
53.1000;0.0912;-0.8471;
53.4000;0.0879;-0.8471;
53.7000;0.0887;-0.8607;
54.0000;0.0895;-0.8675;
54.3000;0.0879;-0.8629;
54.6000;0.0879;-0.8607;
54.9000;0.0928;-0.8493;
55.2000;0.0838;-0.8743;
55.5000;0.0904;-0.8629;
55.8000;0.0895;-0.8720;
56.1000;0.0895;-0.8607;
56.4000;0.0895;-0.8561;
56.7000;0.0855;-0.8652;
57.0000;0.0993;-0.8267;
57.3000;0.0847;-0.8675;
57.6000;0.0895;-0.8539;
57.9000;0.0904;-0.8471;
58.2000;0.0895;-0.8516;
58.5000;0.0879;-0.8607;
58.8000;0.0879;-0.8675;
59.1000;0.0904;-0.8652;
59.4000;0.0920;-0.8584;
59.7000;0.0887;-0.8584;
60.0000;0.0895;-0.8493;
60.3000;0.0904;-0.8539;
60.6000;0.0887;-0.8539;
60.9000;0.0895;-0.8516;
61.2000;0.0895;-0.8561;
61.5000;0.0879;-0.8675;
61.8000;0.0912;-0.8697;
62.1000;0.0912;-0.8697;
62.4000;0.0871;-0.8720;
62.7000;0.0904;-0.8584;
63.0000;0.0895;-0.8607;
63.3000;0.0936;-0.8561;
63.6000;0.0814;-0.8878;
63.9000;0.0879;-0.8675;
64.2000;0.0895;-0.8629;
64.5000;0.0871;-0.8629;
64.8000;0.0863;-0.8629;
65.1000;0.0887;-0.8539;
65.4000;0.0887;-0.8471;
65.7000;0.0912;-0.8539;
66.0000;0.0895;-0.8584;
66.3000;0.0879;-0.8607;
66.6000;0.0985;-0.8403;
66.9000;0.0895;-0.8607;
67.2000;0.0904;-0.8629;
67.5000;0.0887;-0.8652;
67.8000;0.0977;-0.8493;
68.1000;0.0887;-0.8675;
68.4000;0.0887;-0.8675;
68.7000;0.0847;-0.8833;
69.0000;0.0895;-0.8720;
69.3000;0.0912;-0.8539;
69.6000;0.0912;-0.8561;
69.9000;0.0895;-0.8629;
70.2000;0.0879;-0.8697;
70.5000;0.0887;-0.8697;
70.8000;0.0887;-0.8561;
71.1000;0.0895;-0.8516;
71.4000;0.0895;-0.8425;
71.7000;0.0887;-0.8403;
72.0000;0.0871;-0.8448;
72.3000;0.0928;-0.8335;
72.6000;0.0887;-0.8448;
72.9000;0.0863;-0.8516;
73.2000;0.0879;-0.8380;
73.5000;0.0920;-0.8222;
73.8000;0.0904;-0.8312;
74.1000;0.0904;-0.8358;
74.4000;0.0887;-0.8358;
74.7000;0.0879;-0.8448;
75.0000;0.0904;-0.8335;
75.3000;0.0895;-0.8380;
75.6000;0.0904;-0.8471;
75.9000;0.0904;-0.8471;
76.2000;0.0904;-0.8425;
76.5000;0.0920;-0.8516;
76.8000;0.0904;-0.8561;
77.1000;0.0904;-0.8493;
77.4000;0.0895;-0.8561;
77.7000;0.0895;-0.8675;
78.0000;0.0904;-0.8607;
78.3000;0.0969;-0.8380;
78.6000;0.0863;-0.8607;
78.9000;0.0895;-0.8584;
79.2000;0.0920;-0.8471;
79.5000;0.0814;-0.8743;
79.8000;0.0944;-0.8425;
80.1000;0.0904;-0.8493;
80.4000;0.0904;-0.8539;
80.7000;0.0920;-0.8561;
81.0000;0.0944;-0.8516;
81.3000;0.0887;-0.8652;
81.6000;0.0895;-0.8652;
81.9000;0.0920;-0.8561;
82.2000;0.0912;-0.8584;
82.5000;0.0887;-0.8607;
82.8000;0.0879;-0.8584;
83.1000;0.0912;-0.8561;
83.4000;0.1009;-0.8380;
83.7000;0.0993;-0.8425;
84.0000;0.0912;-0.8584;
84.3000;0.0977;-0.8425;
84.6000;0.0863;-0.8720;
84.9000;0.0904;-0.8584;
85.2000;0.0887;-0.8629;
85.5000;0.0904;-0.8697;
85.8000;0.0920;-0.8697;
86.1000;0.0904;-0.8743;
86.4000;0.0895;-0.8720;
86.7000;0.0912;-0.8607;
87.0000;0.0879;-0.8697;
87.3000;0.0952;-0.8516;
87.6000;0.0895;-0.8584;
87.9000;0.0895;-0.8584;
88.2000;0.0879;-0.8561;
88.5000;0.0920;-0.8493;
88.8000;0.0920;-0.8471;
89.1000;0.0985;-0.8380;
89.4000;0.0871;-0.8607;
89.7000;0.0887;-0.8584;
90.0000;0.0895;-0.8607;
90.3000;0.0895;-0.8561;
90.6000;0.0928;-0.8539;
90.9000;0.0895;-0.8607;
91.2000;0.0936;-0.8539;
91.5000;0.0912;-0.8720;
91.8000;0.0904;-0.8743;
92.1000;0.0904;-0.8675;
92.4000;0.0920;-0.8607;
92.7000;0.0944;-0.8448;
93.0000;0.0936;-0.8403;
93.3000;0.0895;-0.8584;
93.6000;0.0895;-0.8607;
93.9000;0.0920;-0.8516;
94.2000;0.0912;-0.8607;
94.5000;0.0887;-0.8607;
94.8000;0.0887;-0.8584;
95.1000;0.0904;-0.8607;
95.4000;0.0904;-0.8675;
95.7000;0.0879;-0.8607;
96.0000;0.0920;-0.8448;
96.3000;0.0904;-0.8358;
96.6000;0.0912;-0.8448;
96.9000;0.0863;-0.8629;
97.2000;0.0879;-0.8539;
97.5000;0.0920;-0.8380;
97.8000;0.0912;-0.8471;
98.1000;0.0961;-0.8425;
98.4000;0.0912;-0.8584;
98.7000;0.0895;-0.8629;
99.0000;0.0952;-0.8403;
99.3000;0.0895;-0.8652;
99.6000;0.0920;-0.8561;
99.9000;0.0904;-0.8516;
100.2000;0.0928;-0.8561;
100.5000;0.0920;-0.8493;
100.8000;0.0961;-0.8335;
101.1000;0.0920;-0.8471;
101.4000;0.0969;-0.8290;
101.7000;0.0904;-0.8425;
102.0000;0.0928;-0.8380;
102.3000;0.0928;-0.8403;
102.6000;0.0936;-0.8335;
102.9000;0.0904;-0.8403;
103.2000;0.0904;-0.8448;
103.5000;0.0904;-0.8471;
103.8000;0.0838;-0.8675;
104.1000;0.0855;-0.8629;
104.4000;0.0904;-0.8539;
104.7000;0.0895;-0.8607;
105.0000;0.0920;-0.8584;
105.3000;0.0912;-0.8539;
105.6000;0.0969;-0.8448;
105.9000;0.0822;-0.8720;
106.2000;0.0912;-0.8403;
106.5000;0.0969;-0.8380;
106.8000;0.0895;-0.8539;
107.1000;0.0952;-0.8425;
107.4000;0.0895;-0.8629;
107.7000;0.0895;-0.8675;
108.0000;0.0912;-0.8652;
108.3000;0.1001;-0.8448;
108.6000;0.0895;-0.8720;
108.9000;0.0855;-0.8765;
109.2000;0.0904;-0.8629;
109.5000;0.0920;-0.8561;
109.8000;0.0879;-0.8584;
110.1000;0.0895;-0.8539;
110.4000;0.0928;-0.8425;
110.7000;0.0895;-0.8516;
111.0000;0.0887;-0.8493;
111.3000;0.0863;-0.8539;
111.6000;0.0912;-0.8425;
111.9000;0.0895;-0.8584;
112.2000;0.0895;-0.8539;
112.5000;0.0887;-0.8652;
112.8000;0.0936;-0.8539;
113.1000;0.0879;-0.8697;
113.4000;0.0912;-0.8516;
113.7000;0.0985;-0.8335;
114.0000;0.0920;-0.8471;
114.3000;0.0904;-0.8493;
114.6000;0.0912;-0.8448;
114.9000;0.0904;-0.8539;
115.2000;0.0887;-0.8720;
115.5000;0.0871;-0.8743;
115.8000;0.0895;-0.8629;
116.1000;0.0912;-0.8539;
116.4000;0.0895;-0.8561;
116.7000;0.0928;-0.8493;
117.0000;0.0895;-0.8561;
117.3000;0.0895;-0.8584;
117.6000;0.0887;-0.8539;
117.9000;0.0928;-0.8516;
118.2000;0.0904;-0.8561;
118.5000;0.0912;-0.8471;
118.8000;0.0895;-0.8539;
119.1000;0.0912;-0.8448;
119.4000;0.0879;-0.8448;
119.7000;0.0790;-0.8720;
120.0000;0.0912;-0.8493;
120.3000;0.0879;-0.8539;
120.6000;0.0895;-0.8493;
120.9000;0.0920;-0.8403;
121.2000;0.0920;-0.8471;
121.5000;0.0895;-0.8471;
121.8000;0.1001;-0.8222;
122.1000;0.0912;-0.8358;
122.4000;0.0887;-0.8493;
122.7000;0.0887;-0.8607;
123.0000;0.0887;-0.8561;
123.3000;0.0895;-0.8584;
123.6000;0.0895;-0.8607;
123.9000;0.0920;-0.8561;
124.2000;0.0912;-0.8561;
124.5000;0.0895;-0.8493;
124.8000;0.0952;-0.8358;
125.1000;0.0912;-0.8425;
125.4000;0.0993;-0.8267;
125.7000;0.0887;-0.8539;
126.0000;0.0887;-0.8516;
126.3000;0.1026;-0.8154;
126.6000;0.0936;-0.8380;
126.9000;0.0887;-0.8493;
127.2000;0.0895;-0.8471;
127.5000;0.0904;-0.8493;
127.8000;0.0904;-0.8493;
128.1000;0.0904;-0.8493;
128.4000;0.0928;-0.8403;
128.7000;0.0895;-0.8539;
129.0000;0.0895;-0.8539;
129.3000;0.0838;-0.8697;
129.6000;0.0920;-0.8584;
129.9000;0.0944;-0.8448;
130.2000;0.0912;-0.8539;
130.5000;0.0855;-0.8584;
130.8000;0.0871;-0.8493;
131.1000;0.0944;-0.8290;
131.4000;0.0920;-0.8403;
131.7000;0.0920;-0.8403;
132.0000;0.0895;-0.8335;
132.3000;0.0895;-0.8290;
132.6000;0.0920;-0.8312;
132.9000;0.0928;-0.8335;
133.2000;0.0920;-0.8471;
133.5000;0.0912;-0.8539;
133.8000;0.0904;-0.8607;
134.1000;0.0895;-0.8652;
134.4000;0.0928;-0.8516;
134.7000;0.0895;-0.8697;
135.0000;0.0871;-0.8810;
135.3000;0.0895;-0.8788;
135.6000;0.0879;-0.8743;
135.9000;0.0887;-0.8743;
136.2000;0.0879;-0.8788;
136.5000;0.0928;-0.8584;
136.8000;0.0879;-0.8720;
137.1000;0.0879;-0.8697;
137.4000;0.0895;-0.8720;
137.7000;0.0920;-0.8629;
138.0000;0.0904;-0.8652;
138.3000;0.0863;-0.8675;
138.6000;0.0879;-0.8720;
138.9000;0.0912;-0.8539;
139.2000;0.0912;-0.8539;
139.5000;0.0920;-0.8493;
139.8000;0.0855;-0.8629;
140.1000;0.0895;-0.8516;
140.4000;0.0904;-0.8471;
140.7000;0.0920;-0.8403;
141.0000;0.0985;-0.8244;
141.3000;0.0912;-0.8403;
141.6000;0.0928;-0.8267;
141.9000;0.0879;-0.8380;
142.2000;0.0936;-0.8290;
142.5000;0.0895;-0.8380;
142.8000;0.0920;-0.8358;
143.1000;0.0895;-0.8471;
143.4000;0.0904;-0.8425;
143.7000;0.0912;-0.8403;
144.0000;0.0879;-0.8516;
144.3000;0.0871;-0.8539;
144.6000;0.0912;-0.8448;
144.9000;0.0961;-0.8267;
145.2000;0.0895;-0.8516;
145.5000;0.0895;-0.8493;
145.8000;0.0912;-0.8561;
146.1000;0.0920;-0.8539;
146.4000;0.0912;-0.8471;
146.7000;0.0920;-0.8403;
147.0000;0.0920;-0.8448;
147.3000;0.0895;-0.8425;
147.6000;0.0887;-0.8380;
147.9000;0.0895;-0.8425;
148.2000;0.0912;-0.8425;
148.5000;0.0920;-0.8312;
148.8000;0.0904;-0.8312;
149.1000;0.0895;-0.8335;
149.4000;0.0887;-0.8312;
149.7000;0.0912;-0.8267;
150.0000;0.0912;-0.8290;
150.3000;0.0814;-0.8584;
150.6000;0.1050;-0.7972;
150.9000;0.0912;-0.8403;
151.2000;0.0887;-0.8516;
151.5000;0.0920;-0.8425;
151.8000;0.0912;-0.8448;
152.1000;0.0895;-0.8448;
152.4000;0.0895;-0.8493;
152.7000;0.0920;-0.8403;
153.0000;0.0895;-0.8471;
153.3000;0.0912;-0.8425;
153.6000;0.0993;-0.8267;
153.9000;0.0904;-0.8471;
154.2000;0.0920;-0.8448;
154.5000;0.0912;-0.8493;
154.8000;0.0895;-0.8493;
155.1000;0.0928;-0.8425;
155.4000;0.0920;-0.8425;
155.7000;0.0871;-0.8584;
156.0000;0.0895;-0.8561;
156.3000;0.0895;-0.8493;
156.6000;0.0895;-0.8629;
156.9000;0.0838;-0.8810;
157.2000;0.0920;-0.8607;
157.5000;0.0920;-0.8516;
157.8000;0.0912;-0.8471;
158.1000;0.1018;-0.8244;
158.4000;0.0904;-0.8516;
158.7000;0.0904;-0.8539;
159.0000;0.0904;-0.8539;
159.3000;0.0871;-0.8697;
159.6000;0.0765;-0.8969;
159.9000;0.0912;-0.8516;
160.2000;0.0912;-0.8493;
160.5000;0.0904;-0.8516;
160.8000;0.0847;-0.8629;
161.1000;0.0961;-0.8335;
161.4000;0.0895;-0.8584;
161.7000;0.0871;-0.8584;
162.0000;0.0912;-0.8493;
162.3000;0.0887;-0.8584;
162.6000;0.0920;-0.8516;
162.9000;0.0904;-0.8561;
163.2000;0.0904;-0.8584;
163.5000;0.0879;-0.8516;
163.8000;0.0928;-0.8358;
164.1000;0.0895;-0.8493;
164.4000;0.0912;-0.8584;
164.7000;0.0912;-0.8561;
165.0000;0.0936;-0.8448;
165.3000;0.0887;-0.8471;
165.6000;0.0887;-0.8493;
165.9000;0.0912;-0.8448;
166.2000;0.0928;-0.8493;
166.5000;0.0855;-0.8652;
166.8000;0.0887;-0.8561;
167.1000;0.0895;-0.8561;
167.4000;0.0887;-0.8493;
167.7000;0.0920;-0.8516;
168.0000;0.0895;-0.8584;
168.3000;0.0904;-0.8584;
168.6000;0.0928;-0.8493;
168.9000;0.0952;-0.8380;
169.2000;0.0944;-0.8335;
169.5000;0.0887;-0.8448;
169.8000;0.0887;-0.8471;
170.1000;0.0912;-0.8380;
170.4000;0.0887;-0.8448;
170.7000;0.0904;-0.8358;
171.0000;0.0920;-0.8380;
171.3000;0.1001;-0.8176;
171.6000;0.0920;-0.8425;
171.9000;0.0879;-0.8493;
172.2000;0.0822;-0.8652;
172.5000;0.0904;-0.8335;
172.8000;0.0912;-0.8358;
173.1000;0.0904;-0.8403;
173.4000;0.0895;-0.8448;
173.7000;0.0904;-0.8403;
174.0000;0.0904;-0.8403;
174.3000;0.0895;-0.8471;
174.6000;0.0895;-0.8493;
174.9000;0.0912;-0.8403;
175.2000;0.0904;-0.8471;
175.5000;0.0912;-0.8471;
175.8000;0.0936;-0.8425;
176.1000;0.0904;-0.8629;
176.4000;0.0912;-0.8607;
176.7000;0.0912;-0.8697;
177.0000;0.0879;-0.8833;
177.3000;0.0904;-0.8720;
177.6000;0.0887;-0.8788;
177.9000;0.0920;-0.8675;
178.2000;0.0912;-0.8697;
178.5000;0.0912;-0.8720;
178.8000;0.0920;-0.8743;
179.1000;0.0904;-0.8810;
179.4000;0.0871;-0.8856;
179.7000;0.0904;-0.8810;
180.0000;0.0904;-0.8810;
180.3000;0.0944;-0.8765;
180.6000;0.0887;-0.8833;
180.9000;0.0904;-0.8810;
181.2000;0.0887;-0.8878;
181.5000;0.0920;-0.8856;
181.8000;0.0838;-0.9037;
182.1000;0.0920;-0.8765;
182.4000;0.0920;-0.8697;
182.7000;0.1009;-0.8493;
183.0000;0.0904;-0.8856;
183.3000;0.0912;-0.8810;
183.6000;0.0912;-0.8810;
183.9000;0.0920;-0.8788;
184.2000;0.0928;-0.8788;
184.5000;0.0920;-0.8788;
184.8000;0.0920;-0.8765;
185.1000;0.0993;-0.8607;
185.4000;0.0920;-0.8788;
185.7000;0.0904;-0.8765;
186.0000;0.0879;-0.8810;
186.3000;0.0912;-0.8675;
186.6000;0.0863;-0.8720;
186.9000;0.0928;-0.8584;
187.2000;0.0830;-0.8788;
187.5000;0.0887;-0.8720;
187.8000;0.0928;-0.8652;
188.1000;0.0912;-0.8697;
188.4000;0.0871;-0.8788;
188.7000;0.0904;-0.8675;
189.0000;0.0904;-0.8607;
189.3000;0.0920;-0.8584;
189.6000;0.0871;-0.8607;
189.9000;0.0887;-0.8584;
190.2000;0.0912;-0.8584;
190.5000;0.0895;-0.8584;
190.8000;0.0920;-0.8607;
191.1000;0.0887;-0.8652;
191.4000;0.0936;-0.8584;
191.7000;0.0912;-0.8584;
192.0000;0.0904;-0.8539;
192.3000;0.0985;-0.8335;
192.6000;0.0863;-0.8697;
192.9000;0.0912;-0.8675;
193.2000;0.0904;-0.8652;
193.5000;0.0904;-0.8539;
193.8000;0.0904;-0.8561;
194.1000;0.0912;-0.8448;
194.4000;0.0928;-0.8380;
194.7000;0.0895;-0.8425;
195.0000;0.0904;-0.8539;
195.3000;0.0847;-0.8561;
195.6000;0.0920;-0.8425;
195.9000;0.0814;-0.8675;
196.2000;0.0855;-0.8675;
196.5000;0.0879;-0.8607;
196.8000;0.0920;-0.8471;
197.1000;0.0920;-0.8471;
197.4000;0.1018;-0.8199;
197.7000;0.0912;-0.8425;
198.0000;0.0936;-0.8312;
198.3000;0.0904;-0.8471;
198.6000;0.0928;-0.8425;
198.9000;0.0993;-0.8312;
199.2000;0.0912;-0.8493;
199.5000;0.0920;-0.8539;
199.8000;0.0847;-0.8675;
200.1000;0.0912;-0.8516;
200.4000;0.0944;-0.8403;
200.7000;0.0895;-0.8607;
201.0000;0.0920;-0.8607;
201.3000;0.0871;-0.8743;
201.6000;0.0920;-0.8607;
201.9000;0.0912;-0.8629;
202.2000;0.0912;-0.8584;
202.5000;0.0871;-0.8607;
202.8000;0.0961;-0.8312;
203.1000;0.0952;-0.8358;
203.4000;0.0895;-0.8471;
203.7000;0.0879;-0.8675;
204.0000;0.0895;-0.8697;
204.3000;0.0895;-0.8675;
204.6000;0.0879;-0.8607;
204.9000;0.0928;-0.8448;
205.2000;0.0904;-0.8539;
205.5000;0.0904;-0.8516;
205.8000;0.0887;-0.8561;
206.1000;0.0887;-0.8652;
206.4000;0.0887;-0.8788;
206.7000;0.0952;-0.8607;
207.0000;0.0912;-0.8720;
207.3000;0.0912;-0.8652;
207.6000;0.0871;-0.8720;
207.9000;0.0895;-0.8675;
208.2000;0.0887;-0.8675;
208.5000;0.0912;-0.8539;
208.8000;0.0920;-0.8539;
209.1000;0.0887;-0.8607;
209.4000;0.0887;-0.8584;
209.7000;0.0912;-0.8607;
210.0000;0.0879;-0.8697;
210.3000;0.0920;-0.8629;
210.6000;0.0871;-0.8697;
210.9000;0.0895;-0.8675;
211.2000;0.0904;-0.8652;
211.5000;0.0904;-0.8652;
211.8000;0.0920;-0.8493;
212.1000;0.0887;-0.8584;
212.4000;0.0879;-0.8584;
212.7000;0.0904;-0.8539;
213.0000;0.0904;-0.8629;
213.3000;0.0920;-0.8697;
213.6000;0.0912;-0.8675;
213.9000;0.0895;-0.8697;
214.2000;0.0936;-0.8607;
214.5000;0.1042;-0.8290;
214.8000;0.0887;-0.8584;
215.1000;0.0928;-0.8448;
215.4000;0.0863;-0.8629;
215.7000;0.0920;-0.8471;
216.0000;0.0928;-0.8312;
216.3000;0.0895;-0.8471;
216.6000;0.1001;-0.8154;
216.9000;0.0912;-0.8425;
217.2000;0.0944;-0.8425;
217.5000;0.0920;-0.8493;
217.8000;0.0887;-0.8607;
218.1000;0.0912;-0.8561;
218.4000;0.0830;-0.8697;
218.7000;0.0912;-0.8493;
219.0000;0.0879;-0.8493;
219.3000;0.0928;-0.8425;
219.6000;0.1066;-0.8154;
219.9000;0.0920;-0.8516;
220.2000;0.0879;-0.8720;
220.5000;0.0904;-0.8675;
220.8000;0.0912;-0.8652;
221.1000;0.0904;-0.8765;
221.4000;0.0928;-0.8629;
221.7000;0.0887;-0.8697;
222.0000;0.0912;-0.8561;
222.3000;0.0944;-0.8471;
222.6000;0.0904;-0.8584;
222.9000;0.0904;-0.8516;
223.2000;0.0912;-0.8448;
223.5000;0.0985;-0.8267;
223.8000;0.0895;-0.8471;
224.1000;0.0912;-0.8403;
224.4000;0.0904;-0.8380;
224.7000;0.0871;-0.8493;
225.0000;0.0895;-0.8584;
225.3000;0.0879;-0.8607;
225.6000;0.0904;-0.8539;
225.9000;0.0871;-0.8675;
226.2000;0.0920;-0.8652;
226.5000;0.0904;-0.8561;
226.8000;0.0887;-0.8697;
227.1000;0.0904;-0.8584;
227.4000;0.0895;-0.8697;
227.7000;0.0920;-0.8720;
228.0000;0.0920;-0.8675;
228.3000;0.0912;-0.8720;
228.6000;0.0912;-0.8810;
228.9000;0.0879;-0.8946;
229.2000;0.0895;-0.8924;
229.5000;0.0863;-0.9014;
229.8000;0.0895;-0.8878;
230.1000;0.0920;-0.8743;
230.4000;0.0887;-0.8788;
230.7000;0.0887;-0.8743;
231.0000;0.0871;-0.8743;
231.3000;0.0904;-0.8720;
231.6000;0.0879;-0.8788;
231.9000;0.0895;-0.8675;
232.2000;0.0928;-0.8584;
232.5000;0.0904;-0.8675;
232.8000;0.0871;-0.8878;
233.1000;0.0904;-0.8856;
233.4000;0.0920;-0.8743;
233.7000;0.0920;-0.8743;
234.0000;0.0912;-0.8675;
234.3000;0.0904;-0.8697;
234.6000;0.0904;-0.8629;
234.9000;0.0879;-0.8629;
235.2000;0.0904;-0.8516;
235.5000;0.0895;-0.8539;
235.8000;0.1091;-0.8108;
236.1000;0.0920;-0.8652;
236.4000;0.0838;-0.8833;
236.7000;0.0904;-0.8652;
237.0000;0.0904;-0.8675;
237.3000;0.0920;-0.8607;
237.6000;0.0936;-0.8584;
237.9000;0.0887;-0.8697;
238.2000;0.0912;-0.8652;
238.5000;0.0928;-0.8539;
238.8000;0.0928;-0.8516;
239.1000;0.0912;-0.8561;
239.4000;0.0928;-0.8516;
239.7000;0.0863;-0.8629;
240.0000;0.0912;-0.8403;
240.3000;0.0879;-0.8448;
240.6000;0.0871;-0.8471;
240.9000;0.0904;-0.8425;
241.2000;0.0912;-0.8471;
241.5000;0.0912;-0.8448;
241.8000;0.0920;-0.8471;
242.1000;0.0904;-0.8584;
242.4000;0.0928;-0.8516;
242.7000;0.0936;-0.8516;
243.0000;0.0879;-0.8675;
243.3000;0.0904;-0.8652;
243.6000;0.0936;-0.8539;
243.9000;0.0904;-0.8697;
244.2000;0.0912;-0.8720;
244.5000;0.0928;-0.8720;
244.8000;0.0920;-0.8607;
245.1000;0.0912;-0.8629;
245.4000;0.0887;-0.8743;
245.7000;0.0895;-0.8765;
246.0000;0.0895;-0.8675;
246.3000;0.0936;-0.8493;
246.6000;0.0993;-0.8290;
246.9000;0.0912;-0.8425;
247.2000;0.0904;-0.8471;
247.5000;0.0847;-0.8539;
247.8000;0.0912;-0.8448;
248.1000;0.0904;-0.8493;
248.4000;0.0895;-0.8539;
248.7000;0.0887;-0.8561;
249.0000;0.0904;-0.8448;
249.3000;0.0887;-0.8493;
249.6000;0.0895;-0.8493;
249.9000;0.0863;-0.8561;
250.2000;0.0936;-0.8471;
250.5000;0.0904;-0.8471;
250.8000;0.0920;-0.8471;
251.1000;0.0904;-0.8516;
251.4000;0.0895;-0.8471;
251.7000;0.0838;-0.8584;
252.0000;0.0895;-0.8516;
252.3000;0.0920;-0.8403;
252.6000;0.0904;-0.8516;
252.9000;0.0920;-0.8380;
253.2000;0.0879;-0.8516;
253.5000;0.0887;-0.8516;
253.8000;0.0863;-0.8607;
254.1000;0.0944;-0.8380;
254.4000;0.0912;-0.8493;
254.7000;0.0871;-0.8652;
255.0000;0.0887;-0.8561;
255.3000;0.0879;-0.8493;
255.6000;0.0879;-0.8539;
255.9000;0.0887;-0.8561;
256.2000;0.0895;-0.8584;
256.5000;0.0904;-0.8539;
256.8000;0.0936;-0.8561;
257.1000;0.0895;-0.8652;
257.4000;0.0928;-0.8493;
257.7000;0.0912;-0.8471;
258.0000;0.0920;-0.8448;
258.3000;0.0912;-0.8471;
258.6000;0.0904;-0.8471;
258.9000;0.0895;-0.8493;
259.2000;0.0928;-0.8448;
259.5000;0.0904;-0.8516;
259.8000;0.0887;-0.8493;
260.1000;0.0895;-0.8448;
260.4000;0.0944;-0.8471;
260.7000;0.0895;-0.8539;
261.0000;0.0904;-0.8493;
261.3000;0.0912;-0.8448;
261.6000;0.0912;-0.8584;
261.9000;0.0936;-0.8584;
262.2000;0.0904;-0.8652;
262.5000;0.0904;-0.8629;
262.8000;0.0879;-0.8629;
263.1000;0.0904;-0.8584;
263.4000;0.0814;-0.8675;
263.7000;0.0904;-0.8471;
264.0000;0.0904;-0.8516;
264.3000;0.0912;-0.8607;
264.6000;0.0912;-0.8629;
264.9000;0.0904;-0.8675;
265.2000;0.0887;-0.8720;
265.5000;0.0904;-0.8720;
265.8000;0.0895;-0.8765;
266.1000;0.0781;-0.8992;
266.4000;0.0912;-0.8607;
266.7000;0.0871;-0.8607;
267.0000;0.0904;-0.8425;
267.3000;0.0912;-0.8380;
267.6000;0.0912;-0.8425;
267.9000;0.0936;-0.8335;
268.2000;0.0904;-0.8493;
268.5000;0.0879;-0.8584;
268.8000;0.0863;-0.8561;
269.1000;0.0920;-0.8516;
269.4000;0.0904;-0.8516;
269.7000;0.0969;-0.8380;
270.0000;0.0887;-0.8652;
270.3000;0.0895;-0.8629;
270.6000;0.0920;-0.8516;
270.9000;0.0895;-0.8607;
271.2000;0.0904;-0.8584;
271.5000;0.0912;-0.8584;
271.8000;0.0961;-0.8493;
272.1000;0.0887;-0.8720;
272.4000;0.1001;-0.8448;
272.7000;0.0879;-0.8607;
273.0000;0.0887;-0.8516;
273.3000;0.0904;-0.8516;
273.6000;0.0912;-0.8561;
273.9000;0.0895;-0.8584;
274.2000;0.0912;-0.8561;
274.5000;0.0928;-0.8561;
274.8000;0.0920;-0.8584;
275.1000;0.0871;-0.8765;
275.4000;0.0904;-0.8697;
275.7000;0.0781;-0.8901;
276.0000;0.0895;-0.8561;
276.3000;0.0912;-0.8516;
276.6000;0.0887;-0.8652;
276.9000;0.0912;-0.8629;
277.2000;0.0871;-0.8697;
277.5000;0.0904;-0.8584;
277.8000;0.0936;-0.8539;
278.1000;0.0912;-0.8493;
278.4000;0.0904;-0.8471;
278.7000;0.0895;-0.8561;
279.0000;0.0895;-0.8493;
279.3000;0.0904;-0.8471;
279.6000;0.0904;-0.8516;
279.9000;0.0895;-0.8607;
280.2000;0.0904;-0.8539;
280.5000;0.0928;-0.8425;
280.8000;0.0936;-0.8380;
281.1000;0.0904;-0.8403;
281.4000;0.0912;-0.8425;
281.7000;0.0912;-0.8448;
282.0000;0.0920;-0.8448;
282.3000;0.0912;-0.8607;
282.6000;0.0936;-0.8675;
282.9000;0.0912;-0.8675;
283.2000;0.0904;-0.8765;
283.5000;0.0822;-0.8901;
283.8000;0.0912;-0.8607;
284.1000;0.0912;-0.8629;
284.4000;0.0961;-0.8493;
284.7000;0.0904;-0.8652;
285.0000;0.0912;-0.8629;
285.3000;0.0895;-0.8675;
285.6000;0.0936;-0.8607;
285.9000;0.0904;-0.8675;
286.2000;0.0904;-0.8675;
286.5000;0.0904;-0.8743;
286.8000;0.0912;-0.8629;
287.1000;0.0887;-0.8629;
287.4000;0.0904;-0.8584;
287.7000;0.0895;-0.8516;
288.0000;0.0961;-0.8403;
288.3000;0.0920;-0.8584;
288.6000;0.0830;-0.8697;
288.9000;0.0912;-0.8561;
289.2000;0.0952;-0.8403;
289.5000;0.0969;-0.8425;
289.8000;0.1009;-0.8290;
290.1000;0.0912;-0.8584;
290.4000;0.0708;-0.9128;
290.7000;0.0904;-0.8584;
291.0000;0.0855;-0.8720;
291.3000;0.0928;-0.8493;
291.6000;0.0920;-0.8629;
291.9000;0.0977;-0.8516;
292.2000;0.0928;-0.8652;
292.5000;0.0838;-0.8924;
292.8000;0.0993;-0.8561;
293.1000;0.0920;-0.8697;
293.4000;0.1009;-0.8561;
293.7000;0.0773;-0.9082;
294.0000;0.0887;-0.8788;
294.3000;0.0920;-0.8697;
294.6000;0.0904;-0.8607;
294.9000;0.0912;-0.8539;
295.2000;0.0912;-0.8448;
295.5000;0.0904;-0.8539;
295.8000;0.0928;-0.8584;
296.1000;0.0920;-0.8561;
296.4000;0.0838;-0.8765;
296.7000;0.0920;-0.8652;
297.0000;0.0904;-0.8675;
297.3000;0.0838;-0.8788;
297.6000;0.0904;-0.8629;
297.9000;0.0904;-0.8539;
298.2000;0.0904;-0.8516;
298.5000;0.0912;-0.8516;
298.8000;0.0887;-0.8652;
299.1000;0.0887;-0.8697;
299.4000;0.0863;-0.8765;
299.7000;0.0895;-0.8697;
300.0000;0.0904;-0.8765;
300.3000;0.0920;-0.8788;
300.6000;0.0912;-0.8743;
300.9000;0.0904;-0.8765;
301.2000;0.0887;-0.8788;
301.5000;0.0887;-0.8720;
301.8000;0.0912;-0.8629;
302.1000;0.0912;-0.8516;
302.4000;0.0912;-0.8493;
302.7000;0.0887;-0.8584;
303.0000;0.0887;-0.8652;
303.3000;0.0920;-0.8652;
303.6000;0.0928;-0.8675;
303.9000;0.0912;-0.8720;
304.2000;0.0887;-0.8765;
304.5000;0.0895;-0.8720;
304.8000;0.0912;-0.8697;
305.1000;0.0887;-0.8675;
305.4000;0.1009;-0.8380;
305.7000;0.0904;-0.8629;
306.0000;0.0912;-0.8516;
306.3000;0.0952;-0.8380;
306.6000;0.0920;-0.8471;
306.9000;0.0904;-0.8471;
307.2000;0.0928;-0.8493;
307.5000;0.0912;-0.8493;
307.8000;0.0887;-0.8539;
308.1000;0.0920;-0.8471;
308.4000;0.0879;-0.8607;
308.7000;0.0895;-0.8516;
309.0000;0.0904;-0.8652;
309.3000;0.0928;-0.8629;
309.6000;0.0920;-0.8675;
309.9000;0.0904;-0.8720;
310.2000;0.0936;-0.8539;
310.5000;0.0879;-0.8675;
310.8000;0.0920;-0.8561;
311.1000;0.0936;-0.8539;
311.4000;0.0904;-0.8652;
311.7000;0.0920;-0.8516;
312.0000;0.0895;-0.8607;
312.3000;0.0920;-0.8607;
312.6000;0.0887;-0.8765;
312.9000;0.0863;-0.8788;
313.2000;0.0741;-0.9105;
313.5000;0.0855;-0.8788;
313.8000;0.0904;-0.8652;
314.1000;0.0904;-0.8652;
314.4000;0.0961;-0.8629;
314.7000;0.0830;-0.8969;
315.0000;0.0912;-0.8743;
315.3000;0.0969;-0.8584;
315.6000;0.0912;-0.8675;
315.9000;0.0912;-0.8743;
316.2000;0.0904;-0.8743;
316.5000;0.0887;-0.8697;
316.8000;0.0920;-0.8607;
317.1000;0.0912;-0.8652;
317.4000;0.0912;-0.8675;
317.7000;0.0847;-0.8878;
318.0000;0.0904;-0.8720;
318.3000;0.0895;-0.8743;
318.6000;0.0895;-0.8675;
318.9000;0.0904;-0.8697;
319.2000;0.0985;-0.8493;
319.5000;0.0928;-0.8629;
319.8000;0.0912;-0.8697;
320.1000;0.0928;-0.8720;
320.4000;0.0936;-0.8720;
320.7000;0.0887;-0.8743;
321.0000;0.0887;-0.8675;
321.3000;0.0928;-0.8675;
321.6000;0.0912;-0.8697;
321.9000;0.0912;-0.8697;
322.2000;0.0895;-0.8765;
322.5000;0.0904;-0.8788;
322.8000;0.0920;-0.8810;
323.1000;0.0904;-0.8697;
323.4000;0.0887;-0.8720;
323.7000;0.0920;-0.8720;
324.0000;0.0944;-0.8675;
324.3000;0.0920;-0.8675;
324.6000;0.0920;-0.8607;
324.9000;0.0871;-0.8697;
325.2000;0.0879;-0.8765;
325.5000;0.0895;-0.8788;
325.8000;0.0904;-0.8765;
326.1000;0.1009;-0.8471;
326.4000;0.0904;-0.8675;
326.7000;0.0928;-0.8584;
327.0000;0.0904;-0.8652;
327.3000;0.0912;-0.8629;
327.6000;0.0920;-0.8493;
327.9000;0.0912;-0.8493;
328.2000;0.0838;-0.8743;
328.5000;0.0928;-0.8629;
328.8000;0.0895;-0.8652;
329.1000;0.0920;-0.8584;
329.4000;0.1026;-0.8290;
329.7000;0.0814;-0.8878;
330.0000;0.0887;-0.8675;
330.3000;0.0887;-0.8788;
330.6000;0.0904;-0.8765;
330.9000;0.0879;-0.8856;
331.2000;0.0871;-0.8833;
331.5000;0.0904;-0.8833;
331.8000;0.0969;-0.8652;
332.1000;0.0904;-0.8743;
332.4000;0.0879;-0.8788;
332.7000;0.1026;-0.8403;
333.0000;0.0928;-0.8607;
333.3000;0.0920;-0.8629;
333.6000;0.0944;-0.8539;
333.9000;0.0912;-0.8675;
334.2000;0.0904;-0.8652;
334.5000;0.0936;-0.8516;
334.8000;0.0879;-0.8652;
335.1000;0.0912;-0.8539;
335.4000;0.0895;-0.8629;
335.7000;0.0936;-0.8561;
336.0000;0.0895;-0.8675;
336.3000;0.0912;-0.8652;
336.6000;0.0912;-0.8607;
336.9000;0.0912;-0.8607;
337.2000;0.0887;-0.8652;
337.5000;0.0887;-0.8697;
337.8000;0.0912;-0.8607;
338.1000;0.0887;-0.8607;
338.4000;0.0936;-0.8471;
338.7000;0.0895;-0.8493;
339.0000;0.0961;-0.8312;
339.3000;0.0871;-0.8539;
339.6000;0.0855;-0.8629;
339.9000;0.0920;-0.8471;
340.2000;0.0904;-0.8448;
340.5000;0.0904;-0.8493;
340.8000;0.0912;-0.8358;
341.1000;0.0920;-0.8312;
341.4000;0.0912;-0.8403;
341.7000;0.0871;-0.8448;
342.0000;0.0920;-0.8244;
342.3000;0.0863;-0.8403;
342.6000;0.0928;-0.8335;
342.9000;0.0895;-0.8403;
343.2000;0.0895;-0.8448;
343.5000;0.0912;-0.8425;
343.8000;0.0920;-0.8448;
344.1000;0.0944;-0.8471;
344.4000;0.0912;-0.8629;
344.7000;0.0871;-0.8788;
345.0000;0.0895;-0.8788;
345.3000;0.0936;-0.8652;
345.6000;0.0904;-0.8720;
345.9000;0.0879;-0.8788;
346.2000;0.0920;-0.8675;
346.5000;0.0887;-0.8675;
346.8000;0.0904;-0.8675;
347.1000;0.0936;-0.8584;
347.4000;0.0887;-0.8629;
347.7000;0.0830;-0.8810;
348.0000;0.0928;-0.8471;
348.3000;0.0895;-0.8652;
348.6000;0.0822;-0.8878;
348.9000;0.0887;-0.8765;
349.2000;0.0936;-0.8629;
349.5000;0.0936;-0.8516;
349.8000;0.0928;-0.8493;
350.1000;0.0920;-0.8516;
350.4000;0.0912;-0.8561;
350.7000;0.0895;-0.8629;
351.0000;0.0952;-0.8561;
351.3000;0.0920;-0.8675;
351.6000;0.0944;-0.8629;
351.9000;0.0887;-0.8788;
352.2000;0.0936;-0.8629;
352.5000;0.0912;-0.8652;
352.8000;0.0887;-0.8788;
353.1000;0.0952;-0.8743;
353.4000;0.0904;-0.8878;
353.7000;0.0928;-0.8788;
354.0000;0.0912;-0.8856;
354.3000;0.0912;-0.8788;
354.6000;0.0912;-0.8833;
354.9000;0.0961;-0.8652;
355.2000;0.0912;-0.8697;
355.5000;0.0912;-0.8720;
355.8000;0.0895;-0.8856;
356.1000;0.0912;-0.8788;
356.4000;0.0993;-0.8584;
356.7000;0.0904;-0.8743;
357.0000;0.0912;-0.8652;
357.3000;0.0928;-0.8629;
357.6000;0.0912;-0.8697;
357.9000;0.0904;-0.8697;
358.2000;0.0920;-0.8697;
358.5000;0.0912;-0.8697;
358.8000;0.0920;-0.8652;
359.1000;0.0904;-0.8675;
359.4000;0.0920;-0.8675;
359.7000;0.0895;-0.8833;
360.0000;0.0879;-0.8810;
360.3000;0.0871;-0.8810;
360.6000;0.0912;-0.8675;
360.9000;0.0920;-0.8629;
361.2000;0.0895;-0.8629;
361.5000;0.0904;-0.8629;
361.8000;0.0879;-0.8743;
362.1000;0.0985;-0.8607;
362.4000;0.0887;-0.8878;
362.7000;0.0912;-0.8788;
363.0000;0.0904;-0.8743;
363.3000;0.0936;-0.8720;
363.6000;0.0887;-0.8833;
363.9000;0.0904;-0.8743;
364.2000;0.0895;-0.8743;
364.5000;0.0977;-0.8584;
364.8000;0.0904;-0.8810;
365.1000;0.0887;-0.8810;
365.4000;0.0928;-0.8652;
365.7000;0.0895;-0.8607;
366.0000;0.0904;-0.8584;
366.3000;0.0904;-0.8561;
366.6000;0.0928;-0.8471;
366.9000;0.0904;-0.8448;
367.2000;0.0912;-0.8403;
367.5000;0.0895;-0.8471;
367.8000;0.0863;-0.8561;
368.1000;0.0887;-0.8516;
368.4000;0.0912;-0.8448;
368.7000;0.0928;-0.8493;
369.0000;0.0928;-0.8584;
369.3000;0.0904;-0.8675;
369.6000;0.0920;-0.8675;
369.9000;0.0928;-0.8743;
370.2000;0.0895;-0.8833;
370.5000;0.0895;-0.8833;
370.8000;0.0912;-0.8788;
371.1000;0.0887;-0.8992;
371.4000;0.0904;-0.8878;
371.7000;0.0961;-0.8743;
372.0000;0.0920;-0.8788;
372.3000;0.0912;-0.8788;
372.6000;0.0895;-0.8833;
372.9000;0.0895;-0.8810;
373.2000;0.0871;-0.8924;
373.5000;0.0912;-0.8810;
373.8000;0.0887;-0.8810;
374.1000;0.0920;-0.8720;
374.4000;0.0887;-0.8788;
374.7000;0.0904;-0.8743;
375.0000;0.0912;-0.8629;
375.3000;0.0912;-0.8629;
375.6000;0.0847;-0.8788;
375.9000;0.0985;-0.8516;
376.2000;0.0912;-0.8720;
376.5000;0.0912;-0.8652;
376.8000;0.0936;-0.8652;
377.1000;0.0928;-0.8652;
377.4000;0.0887;-0.8743;
377.7000;0.0920;-0.8720;
378.0000;0.0952;-0.8629;
378.3000;0.0912;-0.8765;
378.6000;0.0993;-0.8539;
378.9000;0.0912;-0.8720;
379.2000;0.0904;-0.8720;
379.5000;0.0904;-0.8652;
379.8000;0.0904;-0.8629;
380.1000;0.0928;-0.8516;
380.4000;0.0879;-0.8629;
380.7000;0.0912;-0.8697;
381.0000;0.0904;-0.8788;
381.3000;0.0912;-0.8720;
381.6000;0.0879;-0.8833;
381.9000;0.0912;-0.8697;
382.2000;0.0904;-0.8629;
382.5000;0.0912;-0.8675;
382.8000;0.0912;-0.8584;
383.1000;0.0879;-0.8743;
383.4000;0.0904;-0.8720;
383.7000;0.1026;-0.8380;
384.0000;0.0912;-0.8652;
384.3000;0.0904;-0.8652;
384.6000;0.0847;-0.8856;
384.9000;0.0904;-0.8675;
385.2000;0.0895;-0.8720;
385.5000;0.0733;-0.9128;
385.8000;0.0887;-0.8833;
386.1000;0.0830;-0.8969;
386.4000;0.0895;-0.8765;
386.7000;0.0895;-0.8810;
387.0000;0.0912;-0.8720;
387.3000;0.0944;-0.8743;
387.6000;0.0977;-0.8561;
387.9000;0.0895;-0.8743;
388.2000;0.0895;-0.8833;
388.5000;0.0944;-0.8675;
388.8000;0.0920;-0.8788;
389.1000;0.0895;-0.8856;
389.4000;0.0904;-0.8788;
389.7000;0.0904;-0.8720;
390.0000;0.0912;-0.8720;
390.3000;0.0904;-0.8697;
390.6000;0.0871;-0.8788;
390.9000;0.0879;-0.8856;
391.2000;0.0904;-0.8810;
391.5000;0.0895;-0.8765;
391.8000;0.0895;-0.8765;
392.1000;0.0920;-0.8743;
392.4000;0.0912;-0.8810;
392.7000;0.0895;-0.8856;
393.0000;0.0912;-0.8765;
393.3000;0.0928;-0.8697;
393.6000;0.0920;-0.8697;
393.9000;0.0944;-0.8833;
394.2000;0.0912;-0.8924;
394.5000;0.0904;-0.8901;
394.8000;0.0904;-0.8969;
395.1000;0.0912;-0.8833;
395.4000;0.0887;-0.8856;
395.7000;0.0928;-0.8720;
396.0000;0.0863;-0.8924;
396.3000;0.0904;-0.8720;
396.6000;0.0920;-0.8652;
396.9000;0.0904;-0.8720;
397.2000;0.0887;-0.8788;
397.5000;0.0879;-0.8765;
397.8000;0.0904;-0.8629;
398.1000;0.0920;-0.8607;
398.4000;0.0944;-0.8652;
398.7000;0.0904;-0.8720;
399.0000;0.0928;-0.8675;
399.3000;0.0936;-0.8629;
399.6000;0.0830;-0.8901;
399.9000;0.0863;-0.8810;
400.2000;0.0912;-0.8584;
400.5000;0.0912;-0.8629;
400.8000;0.0879;-0.8675;
401.1000;0.0912;-0.8584;
401.4000;0.0928;-0.8493;
401.7000;0.0912;-0.8561;
402.0000;0.0912;-0.8675;
402.3000;0.0920;-0.8652;
402.6000;0.1050;-0.8380;
402.9000;0.0904;-0.8788;
403.2000;0.0912;-0.8675;
403.5000;0.0928;-0.8629;
403.8000;0.0920;-0.8675;
404.1000;0.0936;-0.8584;
404.4000;0.0863;-0.8720;
404.7000;0.0863;-0.8810;
405.0000;0.0895;-0.8675;
405.3000;0.0920;-0.8607;
405.6000;0.0904;-0.8720;
405.9000;0.0912;-0.8652;
406.2000;0.0993;-0.8471;
406.5000;0.0887;-0.8720;
406.8000;0.0904;-0.8652;
407.1000;0.0904;-0.8584;
407.4000;0.0920;-0.8584;
407.7000;0.0969;-0.8403;
408.0000;0.0895;-0.8561;
408.3000;0.0887;-0.8561;
408.6000;0.0912;-0.8448;
408.9000;0.0912;-0.8425;
409.2000;0.0920;-0.8403;
409.5000;0.0912;-0.8516;
409.8000;0.0912;-0.8539;
410.1000;0.0904;-0.8493;
410.4000;0.0895;-0.8516;
410.7000;0.0895;-0.8561;
411.0000;0.0887;-0.8561;
411.3000;0.0895;-0.8516;
411.6000;0.0928;-0.8380;
411.9000;0.0936;-0.8471;
412.2000;0.0985;-0.8312;
412.5000;0.0969;-0.8199;
412.8000;0.0920;-0.8380;
413.1000;0.0912;-0.8425;
413.4000;0.0904;-0.8380;
413.7000;0.0879;-0.8425;
414.0000;0.0895;-0.8425;
414.3000;0.0928;-0.8403;
414.6000;0.0904;-0.8471;
414.9000;0.0879;-0.8516;
415.2000;0.0928;-0.8448;
415.5000;0.0830;-0.8675;
415.8000;0.0773;-0.8901;
416.1000;0.0895;-0.8675;
416.4000;0.0879;-0.8675;
416.7000;0.0887;-0.8743;
417.0000;0.0912;-0.8675;
417.3000;0.0887;-0.8607;
417.6000;0.0895;-0.8539;
417.9000;0.0936;-0.8403;
418.2000;0.0936;-0.8425;
418.5000;0.0977;-0.8290;
418.8000;0.0977;-0.8335;
419.1000;0.0904;-0.8493;
419.4000;0.0969;-0.8358;
419.7000;0.0904;-0.8493;
420.0000;0.0887;-0.8539;
420.3000;0.0830;-0.8720;
420.6000;0.0928;-0.8561;
420.9000;0.0863;-0.8629;
421.2000;0.0887;-0.8629;
421.5000;0.0855;-0.8765;
421.8000;0.0847;-0.8765;
422.1000;0.0912;-0.8629;
422.4000;0.1018;-0.8335;
422.7000;0.0904;-0.8584;
423.0000;0.0904;-0.8448;
423.3000;0.0920;-0.8425;
423.6000;0.0936;-0.8358;
423.9000;0.0961;-0.8267;
424.2000;0.0904;-0.8471;
424.5000;0.0895;-0.8516;
424.8000;0.0912;-0.8471;
425.1000;0.0887;-0.8493;
425.4000;0.0952;-0.8290;
425.7000;0.0961;-0.8358;
426.0000;0.0895;-0.8493;
426.3000;0.0928;-0.8425;
426.6000;0.0920;-0.8448;
426.9000;0.0887;-0.8448;
427.2000;0.0936;-0.8312;
427.5000;0.0912;-0.8403;
427.8000;0.0920;-0.8471;
428.1000;0.0912;-0.8448;
428.4000;0.0904;-0.8539;
428.7000;0.0822;-0.8788;
429.0000;0.0912;-0.8697;
429.3000;0.0855;-0.8924;
429.6000;0.0944;-0.8607;
429.9000;0.0895;-0.8697;
430.2000;0.0879;-0.8720;
430.5000;0.0879;-0.8788;
430.8000;0.0895;-0.8765;
431.1000;0.0904;-0.8788;
431.4000;0.0944;-0.8697;
431.7000;0.0920;-0.8675;
432.0000;0.0895;-0.8765;
432.3000;0.0912;-0.8697;
432.6000;0.0928;-0.8720;
432.9000;0.0904;-0.8810;
433.2000;0.0928;-0.8788;
433.5000;0.0912;-0.8833;
433.8000;0.0904;-0.8901;
434.1000;0.0912;-0.8833;
434.4000;0.0895;-0.8901;
434.7000;0.0895;-0.8924;
435.0000;0.0920;-0.8901;
435.3000;0.0912;-0.8788;
435.6000;0.0895;-0.8810;
435.9000;0.0912;-0.8856;
436.2000;0.0912;-0.8765;
436.5000;0.0879;-0.8765;
436.8000;0.0904;-0.8720;
437.1000;0.0904;-0.8765;
437.4000;0.0895;-0.8765;
437.7000;0.0912;-0.8720;
438.0000;0.0806;-0.8924;
438.3000;0.0928;-0.8584;
438.6000;0.0920;-0.8697;
438.9000;0.0822;-0.8946;
439.2000;0.0904;-0.8697;
439.5000;0.0904;-0.8629;
439.8000;0.0895;-0.8629;
440.1000;0.0887;-0.8675;
440.4000;0.0904;-0.8743;
440.7000;0.0936;-0.8765;
441.0000;0.0838;-0.8946;
441.3000;0.0920;-0.8652;
441.6000;0.0879;-0.8675;
441.9000;0.0904;-0.8652;
442.2000;0.0904;-0.8720;
442.5000;0.0912;-0.8697;
442.8000;0.0904;-0.8720;
443.1000;0.0904;-0.8743;
443.4000;0.0920;-0.8720;
443.7000;0.0904;-0.8743;
444.0000;0.0895;-0.8810;
444.3000;0.0863;-0.8924;
444.6000;0.0920;-0.8743;
444.9000;0.0855;-0.8901;
445.2000;0.0895;-0.8788;
445.5000;0.0936;-0.8652;
445.8000;0.0928;-0.8652;
446.1000;0.0895;-0.8697;
446.4000;0.0847;-0.8833;
446.7000;0.0855;-0.8856;
447.0000;0.0912;-0.8720;
447.3000;0.0912;-0.8743;
447.6000;0.0912;-0.8765;
447.9000;0.0912;-0.8788;
448.2000;0.0920;-0.8901;
448.5000;0.1009;-0.8629;
448.8000;0.0879;-0.8946;
449.1000;0.0838;-0.9082;
449.4000;0.0920;-0.8946;
449.7000;0.0969;-0.8788;
450.0000;0.0781;-0.9263;
450.3000;0.0887;-0.9014;
450.6000;0.0904;-0.8969;
450.9000;0.0855;-0.9060;
451.2000;0.0952;-0.8720;
451.5000;0.0904;-0.8856;
451.8000;0.0928;-0.8810;
452.1000;0.0895;-0.8901;
452.4000;0.0912;-0.8856;
452.7000;0.0912;-0.8878;
453.0000;0.0895;-0.8946;
453.3000;0.0887;-0.8969;
453.6000;0.0969;-0.8743;
453.9000;0.0895;-0.8924;
454.2000;0.0895;-0.8924;
454.5000;0.0895;-0.8924;
454.8000;0.0912;-0.8878;
455.1000;0.0920;-0.8901;
455.4000;0.0904;-0.8901;
455.7000;0.0895;-0.8833;
456.0000;0.0912;-0.8833;
456.3000;0.0887;-0.8833;
456.6000;0.0904;-0.8788;
456.9000;0.0887;-0.8788;
457.2000;0.0904;-0.8743;
457.5000;0.0920;-0.8810;
457.8000;0.0904;-0.8765;
458.1000;0.0904;-0.8720;
458.4000;0.0887;-0.8720;
458.7000;0.0936;-0.8652;
459.0000;0.0895;-0.8788;
459.3000;0.0920;-0.8607;
459.6000;0.0912;-0.8629;
459.9000;0.0895;-0.8856;
460.2000;0.0887;-0.8856;
460.5000;0.0904;-0.8924;
460.8000;0.0887;-0.8924;
461.1000;0.0912;-0.8788;
461.4000;0.0920;-0.8788;
461.7000;0.1058;-0.8493;
462.0000;0.0871;-0.8969;
462.3000;0.0895;-0.8901;
462.6000;0.0765;-0.9241;
462.9000;0.0961;-0.8652;
463.2000;0.0895;-0.8765;
463.5000;0.0887;-0.8765;
463.8000;0.0863;-0.8833;
464.1000;0.0871;-0.8765;
464.4000;0.0904;-0.8720;
464.7000;0.0904;-0.8743;
465.0000;0.0961;-0.8561;
465.3000;0.0920;-0.8697;
465.6000;0.0895;-0.8765;
465.9000;0.0912;-0.8765;
466.2000;0.0895;-0.8810;
466.5000;0.0879;-0.8810;
466.8000;0.0920;-0.8629;
467.1000;0.0904;-0.8629;
467.4000;0.1009;-0.8335;
467.7000;0.0912;-0.8584;
468.0000;0.0895;-0.8697;
468.3000;0.0912;-0.8675;
468.6000;0.0830;-0.9037;
468.9000;0.0904;-0.8833;
469.2000;0.0920;-0.8720;
469.5000;0.0920;-0.8720;
469.8000;0.0928;-0.8743;
470.1000;0.0904;-0.8765;
470.4000;0.0920;-0.8675;
470.7000;0.0904;-0.8765;
471.0000;0.0887;-0.8743;
471.3000;0.0895;-0.8788;
471.6000;0.0912;-0.8697;
471.9000;0.0985;-0.8629;
472.2000;0.0912;-0.8901;
472.5000;0.0952;-0.8810;
472.8000;0.0895;-0.8924;
473.1000;0.0920;-0.8833;
473.4000;0.0912;-0.8788;
473.7000;0.0928;-0.8629;
474.0000;0.0928;-0.8584;
474.3000;0.0904;-0.8652;
474.6000;0.0944;-0.8584;
474.9000;0.0952;-0.8516;
475.2000;0.0920;-0.8516;
475.5000;0.0904;-0.8607;
475.8000;0.0936;-0.8471;
476.1000;0.0904;-0.8516;
476.4000;0.0871;-0.8607;
476.7000;0.0895;-0.8607;
477.0000;0.0920;-0.8652;
477.3000;0.0904;-0.8720;
477.6000;0.0904;-0.8765;
477.9000;0.0912;-0.8765;
478.2000;0.0952;-0.8629;
478.5000;0.0904;-0.8765;
478.8000;0.0912;-0.8743;
479.1000;0.0895;-0.8720;
479.4000;0.0895;-0.8697;
479.7000;0.0912;-0.8629;
480.0000;0.0912;-0.8675;
480.3000;0.0928;-0.8743;
480.6000;0.0887;-0.8833;
480.9000;0.0895;-0.8856;
481.2000;0.0904;-0.8810;
481.5000;0.0920;-0.8697;
481.8000;0.0871;-0.8765;
482.1000;0.0920;-0.8652;
482.4000;0.0928;-0.8675;
482.7000;0.0920;-0.8675;
483.0000;0.0928;-0.8743;
483.3000;0.0920;-0.8765;
483.6000;0.0904;-0.8788;
483.9000;0.0952;-0.8607;
484.2000;0.0887;-0.8788;
484.5000;0.0855;-0.8878;
484.8000;0.0895;-0.8788;
485.1000;0.0855;-0.8924;
485.4000;0.0920;-0.8743;
485.7000;0.0887;-0.8765;
486.0000;0.0904;-0.8788;
486.3000;0.0855;-0.8924;
486.6000;0.0912;-0.8765;
486.9000;0.0838;-0.8878;
487.2000;0.0985;-0.8493;
487.5000;0.0904;-0.8607;
487.8000;0.0863;-0.8743;
488.1000;0.0895;-0.8720;
488.4000;0.0912;-0.8652;
488.7000;0.0920;-0.8561;
489.0000;0.0920;-0.8561;
489.3000;0.0895;-0.8652;
489.6000;0.0895;-0.8697;
489.9000;0.0904;-0.8743;
490.2000;0.0847;-0.8856;
490.5000;0.0952;-0.8652;
490.8000;0.0895;-0.8697;
491.1000;0.0904;-0.8765;
491.4000;0.0895;-0.8675;
491.7000;0.0887;-0.8720;
492.0000;0.0912;-0.8607;
492.3000;0.0904;-0.8561;
492.6000;0.0879;-0.8652;
492.9000;0.0887;-0.8607;
493.2000;0.0920;-0.8697;
493.5000;0.1018;-0.8493;
493.8000;0.0920;-0.8765;
494.1000;0.0912;-0.8697;
494.4000;0.0920;-0.8720;
494.7000;0.0904;-0.8833;
495.0000;0.0895;-0.8901;
495.3000;0.0928;-0.8924;
495.6000;0.0912;-0.9014;
495.9000;0.0904;-0.8992;
496.2000;0.0944;-0.8788;
496.5000;0.0944;-0.8856;
496.8000;0.0879;-0.9014;
497.1000;0.0904;-0.8969;
497.4000;0.0969;-0.8788;
497.7000;0.0912;-0.8969;
498.0000;0.0887;-0.9082;
498.3000;0.0895;-0.9037;
498.6000;0.0863;-0.9128;
498.9000;0.0904;-0.9060;
499.2000;0.0936;-0.8924;
499.5000;0.0887;-0.9014;
499.8000;0.0895;-0.9037;
500.1000;0.0912;-0.9082;
500.4000;0.0912;-0.9105;
500.7000;0.0879;-0.9150;
501.0000;0.0887;-0.9014;
501.3000;0.0879;-0.9037;
501.6000;0.0863;-0.8924;
501.9000;0.0895;-0.8878;
502.2000;0.0928;-0.8743;
502.5000;0.0904;-0.8810;
502.8000;0.0887;-0.8992;
503.1000;0.0904;-0.8924;
503.4000;0.0904;-0.8833;
503.7000;0.0904;-0.8810;
504.0000;0.0912;-0.8788;
504.3000;0.0912;-0.8810;
504.6000;0.0920;-0.8720;
504.9000;0.0912;-0.8788;
505.2000;0.0912;-0.8901;
505.5000;0.0920;-0.8878;
505.8000;0.0895;-0.8969;
506.1000;0.0920;-0.8901;
506.4000;0.0904;-0.8924;
506.7000;0.0904;-0.8878;
507.0000;0.0920;-0.8833;
507.3000;0.0928;-0.8833;
507.6000;0.0887;-0.8856;
507.9000;0.0847;-0.8992;
508.2000;0.0904;-0.8924;
508.5000;0.0920;-0.8969;
508.8000;0.0904;-0.9014;
509.1000;0.0920;-0.8924;
509.4000;0.0887;-0.8969;
509.7000;0.0904;-0.8878;
510.0000;0.0879;-0.8901;
510.3000;0.0904;-0.8878;
510.6000;0.0887;-0.8878;
510.9000;0.0887;-0.8856;
511.2000;0.0920;-0.8810;
511.5000;0.0895;-0.8788;
511.8000;0.0904;-0.8810;
512.1000;0.0904;-0.8856;
512.4000;0.0863;-0.9037;
512.7000;0.0895;-0.8810;
513.0000;0.0928;-0.8765;
513.3000;0.0912;-0.8878;
513.6000;0.0920;-0.8833;
513.9000;0.0912;-0.8810;
514.2000;0.0895;-0.8833;
514.5000;0.0920;-0.8833;
514.8000;0.0895;-0.8924;
515.1000;0.0895;-0.8810;
515.4000;0.0863;-0.8924;
515.7000;0.0928;-0.8720;
516.0000;0.0904;-0.8788;
516.3000;0.0920;-0.8765;
516.6000;0.0863;-0.8878;
516.9000;0.0895;-0.8810;
517.2000;0.0912;-0.8788;
517.5000;0.0895;-0.8743;
517.8000;0.0871;-0.8810;
518.1000;0.0912;-0.8765;
518.4000;0.0904;-0.8833;
518.7000;0.0936;-0.8697;
519.0000;0.0895;-0.8856;
519.3000;0.0904;-0.8946;
519.6000;0.0952;-0.8833;
519.9000;0.0904;-0.8901;
520.2000;0.0887;-0.8833;
520.5000;0.0895;-0.8810;
520.8000;0.0830;-0.8924;
521.1000;0.0912;-0.8720;
521.4000;0.0969;-0.8607;
521.7000;0.0887;-0.8878;
522.0000;0.0904;-0.8856;
522.3000;0.0936;-0.8788;
522.6000;0.0887;-0.8878;
522.9000;0.0912;-0.8856;
523.2000;0.0773;-0.9128;
523.5000;0.0871;-0.8901;
523.8000;0.0928;-0.8788;
524.1000;0.0904;-0.8878;
524.4000;0.0944;-0.8743;
524.7000;0.0904;-0.8833;
525.0000;0.0904;-0.8788;
525.3000;0.0928;-0.8788;
525.6000;0.0879;-0.8856;
525.9000;0.0895;-0.8856;
526.2000;0.0928;-0.8856;
526.5000;0.0822;-0.9105;
526.8000;0.0904;-0.8810;
527.1000;0.0904;-0.8765;
527.4000;0.0912;-0.8810;
527.7000;0.0895;-0.8833;
528.0000;0.0895;-0.8675;
528.3000;0.0895;-0.8629;
528.6000;0.0928;-0.8471;
528.9000;0.0887;-0.8561;
529.2000;0.0904;-0.8584;
529.5000;0.0895;-0.8652;
529.8000;0.0920;-0.8607;
530.1000;0.0879;-0.8675;
530.4000;0.0879;-0.8652;
530.7000;0.0895;-0.8652;
531.0000;0.1058;-0.8312;
531.3000;0.0863;-0.8788;
531.6000;0.0895;-0.8765;
531.9000;0.0863;-0.8833;
532.2000;0.0936;-0.8629;
532.5000;0.0920;-0.8697;
532.8000;0.0912;-0.8765;
533.1000;0.0912;-0.8743;
533.4000;0.0904;-0.8720;
533.7000;0.0879;-0.8856;
534.0000;0.0895;-0.8810;
534.3000;0.0895;-0.8743;
534.6000;0.0912;-0.8720;
534.9000;0.0879;-0.8788;
535.2000;0.0904;-0.8720;
535.5000;0.0887;-0.8743;
535.8000;0.0920;-0.8720;
536.1000;0.0920;-0.8697;
536.4000;0.0985;-0.8607;
536.7000;0.0928;-0.8652;
537.0000;0.0952;-0.8561;
537.3000;0.0944;-0.8516;
537.6000;0.0904;-0.8720;
537.9000;0.0895;-0.8765;
538.2000;0.0863;-0.8810;
538.5000;0.0912;-0.8675;
538.8000;0.0993;-0.8539;
539.1000;0.0912;-0.8697;
539.4000;0.0993;-0.8539;
539.7000;0.1034;-0.8358;
540.0000;0.0912;-0.8675;
540.3000;0.0928;-0.8584;
540.6000;0.0920;-0.8516;
540.9000;0.0928;-0.8561;
541.2000;0.0904;-0.8675;
541.5000;0.0904;-0.8584;
541.8000;0.1026;-0.8403;
542.1000;0.0887;-0.8720;
542.4000;0.0920;-0.8697;
542.7000;0.0904;-0.8675;
543.0000;0.0879;-0.8788;
543.3000;0.0920;-0.8675;
543.6000;0.0920;-0.8675;
543.9000;0.0912;-0.8697;
544.2000;0.0895;-0.8765;
544.5000;0.0912;-0.8810;
544.8000;0.0920;-0.8765;
545.1000;0.0993;-0.8561;
545.4000;0.1001;-0.8539;
545.7000;0.0928;-0.8743;
546.0000;0.0904;-0.8833;
546.3000;0.0928;-0.8810;
546.6000;0.0904;-0.8765;
546.9000;0.0920;-0.8720;
547.2000;0.0887;-0.8833;
547.5000;0.0912;-0.8833;
547.8000;0.0928;-0.8856;
548.1000;0.0912;-0.8833;
548.4000;0.0936;-0.8833;
548.7000;0.0904;-0.8901;
549.0000;0.0904;-0.8901;
549.3000;0.0895;-0.8924;
549.6000;0.0904;-0.8833;
549.9000;0.0920;-0.8743;
550.2000;0.0928;-0.8675;
550.5000;0.0838;-0.8810;
550.8000;0.0895;-0.8652;
551.1000;0.0904;-0.8629;
551.4000;0.0936;-0.8561;
551.7000;0.0904;-0.8652;
552.0000;0.0904;-0.8652;
552.3000;0.0895;-0.8652;
552.6000;0.0904;-0.8607;
552.9000;0.0895;-0.8629;
553.2000;0.0912;-0.8561;
553.5000;0.0912;-0.8539;
553.8000;0.0895;-0.8539;
554.1000;0.0920;-0.8448;
554.4000;0.0871;-0.8516;
554.7000;0.0904;-0.8493;
555.0000;0.0920;-0.8448;
555.3000;0.0887;-0.8629;
555.6000;0.0912;-0.8629;
555.9000;0.0887;-0.8584;
556.2000;0.0904;-0.8516;
556.5000;0.0912;-0.8539;
556.8000;0.0920;-0.8448;
557.1000;0.0887;-0.8561;
557.4000;0.0912;-0.8539;
557.7000;0.0928;-0.8629;
558.0000;0.0912;-0.8652;
558.3000;0.0863;-0.8720;
558.6000;0.0879;-0.8697;
558.9000;0.0936;-0.8539;
559.2000;0.0920;-0.8516;
559.5000;0.0928;-0.8561;
559.8000;0.0912;-0.8629;
560.1000;0.0920;-0.8652;
560.4000;0.0969;-0.8607;
560.7000;0.0904;-0.8697;
561.0000;0.0895;-0.8675;
561.3000;0.0904;-0.8675;
561.6000;0.0895;-0.8697;
561.9000;0.0961;-0.8561;
562.2000;0.0928;-0.8652;
562.5000;0.0920;-0.8675;
562.8000;0.0961;-0.8607;
563.1000;0.0912;-0.8675;
563.4000;0.0912;-0.8607;
563.7000;0.0920;-0.8516;
564.0000;0.0895;-0.8493;
564.3000;0.0912;-0.8471;
564.6000;0.0904;-0.8584;
564.9000;0.0895;-0.8584;
565.2000;0.0904;-0.8629;
565.5000;0.0895;-0.8652;
565.8000;0.1009;-0.8380;
566.1000;0.0879;-0.8675;
566.4000;0.1034;-0.8380;
566.7000;0.0936;-0.8539;
567.0000;0.0879;-0.8652;
567.3000;0.0871;-0.8697;
567.6000;0.0912;-0.8539;
567.9000;0.0879;-0.8652;
568.2000;0.0904;-0.8493;
568.5000;0.0887;-0.8561;
568.8000;0.0928;-0.8471;
569.1000;0.0920;-0.8471;
569.4000;0.0904;-0.8652;
569.7000;0.0912;-0.8561;
570.0000;0.0944;-0.8471;
570.3000;0.0928;-0.8471;
570.6000;0.0912;-0.8561;
570.9000;0.0920;-0.8561;
571.2000;0.0887;-0.8675;
571.5000;0.0814;-0.8901;
571.8000;0.0895;-0.8607;
572.1000;0.0904;-0.8629;
572.4000;0.0936;-0.8561;
572.7000;0.0879;-0.8697;
573.0000;0.0895;-0.8765;
573.3000;0.0920;-0.8720;
573.6000;0.0920;-0.8697;
573.9000;0.0904;-0.8697;
574.2000;0.0895;-0.8652;
574.5000;0.0904;-0.8675;
574.8000;0.0871;-0.8743;
575.1000;0.0895;-0.8743;
575.4000;0.0879;-0.8743;
575.7000;0.0952;-0.8629;
576.0000;0.0895;-0.8765;
576.3000;0.0895;-0.8720;
576.6000;0.0879;-0.8765;
576.9000;0.0912;-0.8720;
577.2000;0.0920;-0.8720;
577.5000;0.0887;-0.8878;
577.8000;0.0961;-0.8743;
578.1000;0.0944;-0.8833;
578.4000;0.0887;-0.8946;
578.7000;0.0887;-0.8924;
579.0000;0.0912;-0.8833;
579.3000;0.0847;-0.8946;
579.6000;0.0944;-0.8652;
579.9000;0.0912;-0.8652;
580.2000;0.0904;-0.8697;
580.5000;0.0928;-0.8675;
580.8000;0.0887;-0.8720;
581.1000;0.0830;-0.8833;
581.4000;0.0920;-0.8607;
581.7000;0.0806;-0.8878;
582.0000;0.0904;-0.8561;
582.3000;0.1083;-0.8063;
582.6000;0.0847;-0.8629;
582.9000;0.0928;-0.8425;
583.2000;0.0977;-0.8380;
583.5000;0.0887;-0.8652;
583.8000;0.0895;-0.8652;
584.1000;0.0904;-0.8652;
584.4000;0.0912;-0.8607;
584.7000;0.0887;-0.8720;
585.0000;0.0912;-0.8629;
585.3000;0.0920;-0.8652;
585.6000;0.0838;-0.8765;
585.9000;0.0904;-0.8720;
586.2000;0.0895;-0.8743;
586.5000;0.0912;-0.8697;
586.8000;0.0969;-0.8516;
587.1000;0.0887;-0.8629;
587.4000;0.0912;-0.8539;
587.7000;0.0879;-0.8561;
588.0000;0.0920;-0.8448;
588.3000;0.0904;-0.8380;
588.6000;0.0904;-0.8358;
588.9000;0.1034;-0.8063;
589.2000;0.0887;-0.8448;
589.5000;0.0806;-0.8743;
589.8000;0.0985;-0.8222;
590.1000;0.0912;-0.8403;
590.4000;0.0904;-0.8516;
590.7000;0.0904;-0.8493;
591.0000;0.0912;-0.8539;
591.3000;0.0863;-0.8697;
591.6000;0.0912;-0.8652;
591.9000;0.0895;-0.8720;
592.2000;0.0944;-0.8539;
592.5000;0.0993;-0.8312;
592.8000;0.0887;-0.8403;
593.1000;0.0912;-0.8290;
593.4000;0.0863;-0.8493;
593.7000;0.0952;-0.8312;
594.0000;0.0993;-0.8358;
594.3000;0.0871;-0.8765;
594.6000;0.0887;-0.8743;
594.9000;0.0904;-0.8652;
595.2000;0.0928;-0.8697;
595.5000;0.0871;-0.8743;
595.8000;0.0895;-0.8607;
596.1000;0.0887;-0.8652;
596.4000;0.0895;-0.8584;
596.7000;0.1009;-0.8403;
597.0000;0.0895;-0.8720;
597.3000;0.0895;-0.8652;
597.6000;0.0887;-0.8743;
597.9000;0.0904;-0.8697;
598.2000;0.0912;-0.8652;
598.5000;0.0928;-0.8584;
598.8000;0.0920;-0.8629;
599.1000;0.0879;-0.8629;
599.4000;0.0920;-0.8607;
599.7000;0.0871;-0.8697;
600.0000;0.0887;-0.8743;
600.3000;0.0904;-0.8833;
600.6000;0.0895;-0.8788;
600.9000;0.0904;-0.8833;
601.2000;0.0912;-0.8924;
601.5000;0.0887;-0.8969;
601.8000;0.0855;-0.9196;
602.1000;0.0838;-0.9286;
602.4000;0.0879;-0.9263;
602.7000;0.0871;-0.9377;
603.0000;0.0871;-0.9467;
603.3000;0.0855;-0.9445;
603.6000;0.0847;-0.9603;
603.9000;0.0847;-0.9694;
604.2000;0.0838;-0.9807;
604.5000;0.0855;-0.9762;
604.8000;0.0863;-0.9852;
605.1000;0.0920;-0.9784;
605.4000;0.0847;-0.9920;
605.7000;0.0863;-0.9875;
606.0000;0.0781;-0.9943;
606.3000;0.0757;-1.0056;
606.6000;0.0887;-0.9739;
606.9000;0.0838;-0.9943;
607.2000;0.0879;-0.9966;
607.5000;0.0838;-0.9988;
607.8000;0.0855;-0.9943;
608.1000;0.0830;-0.9830;
608.4000;0.0830;-0.9898;
608.7000;0.0822;-0.9943;
609.0000;0.0879;-0.9875;
609.3000;0.0830;-1.0011;
609.6000;0.0904;-0.9784;
609.9000;0.0838;-0.9966;
610.2000;0.0830;-1.0034;
610.5000;0.0806;-1.0101;
610.8000;0.0814;-1.0101;
611.1000;0.0838;-1.0034;
611.4000;0.0822;-1.0034;
611.7000;0.0773;-1.0101;
612.0000;0.0838;-1.0011;
612.3000;0.0838;-1.0034;
612.6000;0.0838;-0.9966;
612.9000;0.0724;-1.0215;
613.2000;0.0830;-0.9988;
613.5000;0.0798;-0.9988;
613.8000;0.0806;-1.0011;
614.1000;0.0790;-1.0011;
614.4000;0.0912;-0.9852;
614.7000;0.0790;-1.0124;
615.0000;0.0790;-1.0034;
615.3000;0.0830;-0.9943;
615.6000;0.0806;-1.0056;
615.9000;0.0830;-0.9943;
616.2000;0.0749;-1.0147;
616.5000;0.0830;-0.9943;
616.8000;0.0790;-1.0011;
617.1000;0.0895;-0.9830;
617.4000;0.0936;-0.9807;
617.7000;0.0773;-1.0260;
618.0000;0.0814;-1.0101;
618.3000;0.0741;-1.0215;
618.6000;0.0822;-1.0079;
618.9000;0.0765;-1.0305;
619.2000;0.0773;-1.0260;
619.5000;0.0847;-1.0011;
619.8000;0.0773;-1.0169;
620.1000;0.0790;-1.0124;
620.4000;0.0790;-1.0056;
620.7000;0.0790;-1.0147;
621.0000;0.0781;-1.0192;
621.3000;0.0781;-1.0192;
621.6000;0.0765;-1.0237;
621.9000;0.0806;-1.0169;
622.2000;0.0781;-1.0237;
622.5000;0.0781;-1.0124;
622.8000;0.0790;-1.0056;
623.1000;0.0814;-1.0034;
623.4000;0.0765;-1.0079;
623.7000;0.0822;-1.0011;
624.0000;0.0806;-1.0034;
624.3000;0.0790;-1.0079;
624.6000;0.0781;-1.0079;
624.9000;0.0684;-1.0328;
625.2000;0.0830;-0.9920;
625.5000;0.0765;-1.0124;
625.8000;0.0773;-1.0237;
626.1000;0.0741;-1.0328;
626.4000;0.0798;-1.0169;
626.7000;0.0757;-1.0328;
627.0000;0.0790;-1.0237;
627.3000;0.0781;-1.0215;
627.6000;0.0790;-1.0101;
627.9000;0.0814;-1.0101;
628.2000;0.0790;-1.0147;
628.5000;0.0855;-1.0056;
628.8000;0.0863;-0.9966;
629.1000;0.0733;-1.0192;
629.4000;0.0765;-1.0011;
629.7000;0.0798;-0.9966;
630.0000;0.0651;-1.0351;
630.3000;0.0716;-1.0215;
630.6000;0.0773;-1.0079;
630.9000;0.0798;-0.9988;
631.2000;0.0781;-1.0011;
631.5000;0.0773;-1.0034;
631.8000;0.0716;-1.0192;
632.1000;0.0773;-1.0011;
632.4000;0.0781;-0.9920;
632.7000;0.0773;-0.9943;
633.0000;0.0773;-0.9920;
633.3000;0.0781;-1.0056;
633.6000;0.0708;-1.0215;
633.9000;0.0716;-1.0237;
634.2000;0.0773;-1.0079;
634.5000;0.0790;-0.9966;
634.8000;0.0879;-0.9762;
635.1000;0.0781;-0.9920;
635.4000;0.0838;-0.9830;
635.7000;0.0602;-1.0373;
636.0000;0.0773;-1.0034;
636.3000;0.0814;-0.9988;
636.6000;0.0765;-1.0124;
636.9000;0.0765;-1.0056;
637.2000;0.0741;-1.0101;
637.5000;0.0790;-0.9966;
637.8000;0.0790;-1.0034;
638.1000;0.0814;-1.0034;
638.4000;0.0684;-1.0328;
638.7000;0.0798;-1.0056;
639.0000;0.0798;-1.0169;
639.3000;0.0781;-1.0169;
639.6000;0.0667;-1.0441;
639.9000;0.0749;-1.0192;
640.2000;0.0790;-1.0101;
640.5000;0.0790;-0.9988;
640.8000;0.0749;-1.0034;
641.1000;0.0749;-1.0034;
641.4000;0.0822;-0.9852;
641.7000;0.0781;-0.9898;
642.0000;0.0806;-0.9830;
642.3000;0.0757;-0.9966;
642.6000;0.0757;-0.9988;
642.9000;0.0790;-0.9943;
643.2000;0.0790;-0.9966;
643.5000;0.0757;-1.0147;
643.8000;0.0781;-1.0101;
644.1000;0.0773;-1.0147;
644.4000;0.0781;-1.0101;
644.7000;0.0765;-1.0192;
645.0000;0.0757;-1.0305;
645.3000;0.0757;-1.0215;
645.6000;0.0781;-1.0147;
645.9000;0.0781;-1.0215;
646.2000;0.0781;-1.0237;
646.5000;0.0749;-1.0283;
646.8000;0.0773;-1.0237;
647.1000;0.0741;-1.0441;
647.4000;0.0765;-1.0351;
647.7000;0.0757;-1.0419;
648.0000;0.0822;-1.0079;
648.3000;0.0765;-1.0101;
648.6000;0.0733;-1.0192;
648.9000;0.0741;-1.0124;
649.2000;0.0798;-0.9966;
649.5000;0.0749;-1.0011;
649.8000;0.0765;-1.0079;
650.1000;0.0781;-1.0079;
650.4000;0.0773;-1.0079;
650.7000;0.0741;-1.0169;
651.0000;0.0757;-1.0101;
651.3000;0.0814;-1.0011;
651.6000;0.0741;-1.0147;
651.9000;0.0765;-1.0101;
652.2000;0.0749;-1.0101;
652.5000;0.0773;-1.0056;
652.8000;0.0806;-0.9966;
653.1000;0.0724;-1.0169;
653.4000;0.0765;-1.0034;
653.7000;0.0708;-1.0147;
654.0000;0.0733;-1.0169;
654.3000;0.0700;-1.0283;
654.6000;0.0773;-1.0147;
654.9000;0.0773;-1.0192;
655.2000;0.0765;-1.0169;
655.5000;0.0757;-1.0169;
655.8000;0.0741;-1.0192;
656.1000;0.0749;-1.0215;
656.4000;0.0773;-1.0079;
656.7000;0.0773;-1.0056;
657.0000;0.0790;-1.0011;
657.3000;0.0765;-1.0101;
657.6000;0.0822;-0.9875;
657.9000;0.0765;-1.0034;
658.2000;0.0749;-1.0101;
658.5000;0.0765;-1.0034;
658.8000;0.0659;-1.0283;
659.1000;0.0757;-1.0056;
659.4000;0.0733;-1.0169;
659.7000;0.0838;-0.9988;
660.0000;0.0773;-1.0192;
660.3000;0.0765;-1.0237;
660.6000;0.0830;-1.0056;
660.9000;0.0749;-1.0260;
661.2000;0.0741;-1.0237;
661.5000;0.0749;-1.0147;
661.8000;0.0790;-1.0011;
662.1000;0.0765;-0.9966;
662.4000;0.0765;-0.9943;
662.7000;0.0749;-0.9966;
663.0000;0.0749;-1.0147;
663.3000;0.0733;-1.0260;
663.6000;0.0659;-1.0373;
663.9000;0.0757;-1.0101;
664.2000;0.0757;-1.0124;
664.5000;0.0765;-1.0101;
664.8000;0.0781;-1.0056;
665.1000;0.0798;-1.0034;
665.4000;0.0757;-1.0192;
665.7000;0.0757;-1.0169;
666.0000;0.0773;-1.0169;
666.3000;0.0757;-1.0283;
666.6000;0.0830;-1.0056;
666.9000;0.0749;-1.0101;
667.2000;0.0871;-0.9784;
667.5000;0.0741;-1.0147;
667.8000;0.0716;-1.0147;
668.1000;0.0749;-1.0079;
668.4000;0.0741;-1.0056;
668.7000;0.0757;-1.0011;
669.0000;0.0830;-0.9830;
669.3000;0.0749;-0.9943;
669.6000;0.0765;-0.9943;
669.9000;0.0724;-1.0147;
670.2000;0.0781;-1.0124;
670.5000;0.0741;-1.0147;
670.8000;0.0733;-1.0215;
671.1000;0.0724;-1.0101;
671.4000;0.0741;-1.0169;
671.7000;0.0757;-1.0192;
672.0000;0.0781;-1.0079;
672.3000;0.0765;-1.0124;
672.6000;0.0765;-1.0147;
672.9000;0.0741;-1.0192;
673.2000;0.0757;-1.0124;
673.5000;0.0757;-1.0034;
673.8000;0.0781;-0.9920;
674.1000;0.0822;-0.9852;
674.4000;0.0749;-1.0056;
674.7000;0.0659;-1.0351;
675.0000;0.0749;-1.0101;
675.3000;0.0773;-0.9943;
675.6000;0.0757;-0.9988;
675.9000;0.0781;-0.9920;
676.2000;0.0741;-1.0056;
676.5000;0.0667;-1.0215;
676.8000;0.0749;-1.0034;
677.1000;0.0798;-0.9875;
677.4000;0.0741;-0.9966;
677.7000;0.0741;-0.9966;
678.0000;0.0749;-1.0011;
678.3000;0.0643;-1.0373;
678.6000;0.0765;-1.0101;
678.9000;0.0733;-1.0147;
679.2000;0.0773;-1.0056;
679.5000;0.0749;-1.0079;
679.8000;0.0765;-1.0056;
680.1000;0.0757;-1.0169;
680.4000;0.0765;-1.0169;
680.7000;0.0733;-1.0215;
681.0000;0.0773;-1.0124;
681.3000;0.0741;-1.0147;
681.6000;0.0741;-1.0079;
681.9000;0.0749;-0.9988;
682.2000;0.0757;-0.9988;
682.5000;0.0781;-1.0011;
682.8000;0.0773;-1.0124;
683.1000;0.0724;-1.0283;
683.4000;0.0749;-1.0260;
683.7000;0.0741;-1.0305;
684.0000;0.0749;-1.0283;
684.3000;0.0724;-1.0305;
684.6000;0.0708;-1.0351;
684.9000;0.0757;-1.0237;
685.2000;0.0733;-1.0328;
685.5000;0.0749;-1.0305;
685.8000;0.0757;-1.0305;
686.1000;0.0790;-1.0260;
686.4000;0.0757;-1.0351;
686.7000;0.0757;-1.0419;
687.0000;0.0757;-1.0464;
687.3000;0.0781;-1.0373;
687.6000;0.0822;-1.0215;
687.9000;0.0757;-1.0373;
688.2000;0.0757;-1.0419;
688.5000;0.0741;-1.0373;
688.8000;0.0757;-1.0441;
689.1000;0.0781;-1.0328;
689.4000;0.0724;-1.0396;
689.7000;0.0765;-1.0260;
690.0000;0.0733;-1.0328;
690.3000;0.0749;-1.0305;
690.6000;0.0667;-1.0554;
690.9000;0.0749;-1.0419;
691.2000;0.0765;-1.0237;
691.5000;0.0757;-1.0215;
691.8000;0.0741;-1.0351;
692.1000;0.0692;-1.0464;
692.4000;0.0733;-1.0419;
692.7000;0.0741;-1.0351;
693.0000;0.0716;-1.0419;
693.3000;0.0749;-1.0283;
693.6000;0.0765;-1.0305;
693.9000;0.0773;-1.0351;
694.2000;0.0741;-1.0464;
694.5000;0.0749;-1.0396;
694.8000;0.0724;-1.0532;
695.1000;0.0757;-1.0441;
695.4000;0.0708;-1.0532;
695.7000;0.0733;-1.0487;
696.0000;0.0855;-1.0237;
696.3000;0.0741;-1.0487;
696.6000;0.0773;-1.0283;
696.9000;0.0757;-1.0260;
697.2000;0.0716;-1.0351;
697.5000;0.0741;-1.0260;
697.8000;0.0733;-1.0215;
698.1000;0.0733;-1.0215;
698.4000;0.0757;-1.0124;
698.7000;0.0871;-0.9830;
699.0000;0.0733;-1.0169;
699.3000;0.0855;-0.9920;
699.6000;0.0716;-1.0283;
699.9000;0.0757;-1.0192;
700.2000;0.0814;-1.0011;
700.5000;0.0708;-1.0305;
700.8000;0.0790;-1.0056;
701.1000;0.0724;-1.0237;
701.4000;0.0749;-1.0147;
701.7000;0.0773;-1.0079;
702.0000;0.0741;-1.0124;
702.3000;0.0724;-1.0101;
702.6000;0.0749;-1.0124;
702.9000;0.0773;-1.0034;
703.2000;0.0757;-1.0056;
703.5000;0.0635;-1.0305;
703.8000;0.0765;-0.9966;
704.1000;0.0724;-1.0056;
704.4000;0.0757;-1.0034;
704.7000;0.0757;-0.9966;
705.0000;0.0790;-0.9920;
705.3000;0.0765;-0.9988;
705.6000;0.0749;-1.0101;
705.9000;0.0757;-1.0034;
706.2000;0.0773;-1.0056;
706.5000;0.0757;-1.0034;
706.8000;0.0733;-1.0079;
707.1000;0.0724;-1.0034;
707.4000;0.0741;-0.9988;
707.7000;0.0773;-0.9830;
708.0000;0.0847;-0.9694;
708.3000;0.0724;-1.0101;
708.6000;0.0757;-1.0079;
708.9000;0.0741;-1.0124;
709.2000;0.0765;-1.0124;
709.5000;0.0724;-1.0237;
709.8000;0.0757;-1.0192;
710.1000;0.0757;-1.0169;
710.4000;0.0749;-1.0192;
710.7000;0.0757;-1.0101;
711.0000;0.0733;-1.0124;
711.3000;0.0700;-1.0237;
711.6000;0.0790;-1.0056;
711.9000;0.0708;-1.0237;
712.2000;0.0724;-1.0101;
712.5000;0.0741;-1.0079;
712.8000;0.0741;-1.0101;
713.1000;0.0724;-1.0215;
713.4000;0.0757;-1.0124;
713.7000;0.0806;-1.0011;
714.0000;0.0822;-0.9920;
714.3000;0.0741;-1.0101;
714.6000;0.0700;-1.0192;
714.9000;0.0741;-1.0101;
715.2000;0.0749;-1.0011;
715.5000;0.0741;-1.0101;
715.8000;0.0781;-0.9988;
716.1000;0.0708;-1.0237;
716.4000;0.0733;-1.0169;
716.7000;0.0733;-1.0147;
717.0000;0.0724;-1.0237;
717.3000;0.0708;-1.0283;
717.6000;0.0724;-1.0237;
717.9000;0.0741;-1.0192;
718.2000;0.0733;-1.0147;
718.5000;0.0749;-1.0079;
718.8000;0.0724;-1.0101;
719.1000;0.0741;-1.0056;
719.4000;0.0741;-1.0034;
719.7000;0.0757;-0.9898;
720.0000;0.0733;-0.9898;
720.3000;0.0847;-0.9649;
720.6000;0.0724;-1.0011;
720.9000;0.0806;-0.9920;
721.2000;0.0773;-1.0124;
721.5000;0.0749;-1.0237;
721.8000;0.0749;-1.0237;
722.1000;0.0716;-1.0351;
722.4000;0.0773;-1.0169;
722.7000;0.0724;-1.0305;
723.0000;0.0757;-1.0215;
723.3000;0.0724;-1.0328;
723.6000;0.0757;-1.0215;
723.9000;0.0733;-1.0305;
724.2000;0.0790;-1.0305;
724.5000;0.0716;-1.0509;
724.8000;0.0733;-1.0487;
725.1000;0.0733;-1.0487;
725.4000;0.0757;-1.0351;
725.7000;0.0749;-1.0260;
726.0000;0.0757;-1.0192;
726.3000;0.0716;-1.0328;
726.6000;0.0741;-1.0373;
726.9000;0.0724;-1.0464;
727.2000;0.0724;-1.0419;
727.5000;0.0667;-1.0532;
727.8000;0.0749;-1.0260;
728.1000;0.0733;-1.0305;
728.4000;0.0708;-1.0260;
728.7000;0.0716;-1.0283;
729.0000;0.0798;-1.0079;
729.3000;0.0757;-1.0147;
729.6000;0.0741;-1.0147;
729.9000;0.0773;-1.0034;
730.2000;0.0757;-1.0034;
730.5000;0.0741;-1.0192;
730.8000;0.0724;-1.0169;
731.1000;0.0757;-1.0192;
731.4000;0.0741;-1.0192;
731.7000;0.0733;-1.0192;
732.0000;0.0692;-1.0328;
732.3000;0.0716;-1.0305;
732.6000;0.0757;-1.0192;
732.9000;0.0716;-1.0305;
733.2000;0.0667;-1.0464;
733.5000;0.0716;-1.0328;
733.8000;0.0619;-1.0577;
734.1000;0.0773;-1.0192;
734.4000;0.0757;-1.0215;
734.7000;0.0684;-1.0419;
735.0000;0.0741;-1.0260;
735.3000;0.0716;-1.0260;
735.6000;0.0724;-1.0260;
735.9000;0.0667;-1.0396;
736.2000;0.0741;-1.0260;
736.5000;0.0749;-1.0351;
736.8000;0.0733;-1.0351;
737.1000;0.0749;-1.0351;
737.4000;0.0749;-1.0305;
737.7000;0.0749;-1.0305;
738.0000;0.0814;-1.0147;
738.3000;0.0733;-1.0305;
738.6000;0.0733;-1.0237;
738.9000;0.0749;-1.0215;
739.2000;0.0765;-1.0101;
739.5000;0.0749;-1.0169;
739.8000;0.0757;-1.0192;
740.1000;0.0724;-1.0260;
740.4000;0.0806;-1.0124;
740.7000;0.0749;-1.0215;
741.0000;0.0733;-1.0056;
741.3000;0.0733;-1.0079;
741.6000;0.0741;-1.0192;
741.9000;0.0741;-1.0147;
742.2000;0.0716;-1.0192;
742.5000;0.0749;-1.0101;
742.8000;0.0741;-1.0101;
743.1000;0.0692;-1.0192;
743.4000;0.0749;-1.0124;
743.7000;0.0724;-1.0192;
744.0000;0.0749;-1.0124;
744.3000;0.0733;-1.0215;
744.6000;0.0749;-1.0147;
744.9000;0.0741;-1.0260;
745.2000;0.0733;-1.0283;
745.5000;0.0814;-1.0079;
745.8000;0.0741;-1.0215;
746.1000;0.0700;-1.0396;
746.4000;0.0757;-1.0237;
746.7000;0.0749;-1.0260;
747.0000;0.0667;-1.0441;
747.3000;0.0765;-1.0192;
747.6000;0.0733;-1.0283;
747.9000;0.0733;-1.0305;
748.2000;0.0700;-1.0305;
748.5000;0.0700;-1.0237;
748.8000;0.0733;-1.0147;
749.1000;0.0733;-1.0147;
749.4000;0.0757;-1.0056;
749.7000;0.0708;-1.0260;
750.0000;0.0749;-1.0192;
750.3000;0.0765;-1.0101;
750.6000;0.0773;-1.0056;
750.9000;0.0741;-1.0169;
751.2000;0.0724;-1.0237;
751.5000;0.0806;-1.0079;
751.8000;0.0724;-1.0237;
752.1000;0.0741;-1.0101;
752.4000;0.0749;-1.0079;
752.7000;0.0749;-1.0260;
753.0000;0.0733;-1.0328;
753.3000;0.0741;-1.0283;
753.6000;0.0765;-1.0147;
753.9000;0.0716;-1.0169;
754.2000;0.0749;-1.0192;
754.5000;0.0765;-1.0147;
754.8000;0.0757;-1.0169;
755.1000;0.0765;-1.0124;
755.4000;0.0773;-1.0169;
755.7000;0.0741;-1.0192;
756.0000;0.0757;-1.0147;
756.3000;0.0749;-1.0101;
756.6000;0.0741;-1.0124;
756.9000;0.0757;-1.0011;
757.2000;0.0773;-0.9988;
757.5000;0.0749;-1.0034;
757.8000;0.0757;-0.9988;
758.1000;0.0757;-0.9966;
758.4000;0.0749;-0.9988;
758.7000;0.0733;-1.0079;
759.0000;0.0741;-1.0056;
759.3000;0.0733;-1.0056;
759.6000;0.0749;-0.9988;
759.9000;0.0855;-0.9784;
760.2000;0.0757;-0.9943;
760.5000;0.0733;-1.0079;
760.8000;0.0749;-0.9920;
761.1000;0.0773;-0.9830;
761.4000;0.0741;-0.9943;
761.7000;0.0749;-0.9920;
762.0000;0.0733;-1.0011;
762.3000;0.0757;-0.9943;
762.6000;0.0749;-0.9943;
762.9000;0.0757;-0.9966;
763.2000;0.0741;-1.0056;
763.5000;0.0724;-1.0124;
763.8000;0.0773;-0.9988;
764.1000;0.0724;-1.0056;
764.4000;0.0773;-0.9988;
764.7000;0.0741;-1.0101;
765.0000;0.0757;-1.0124;
765.3000;0.0781;-0.9988;
765.6000;0.0895;-0.9739;
765.9000;0.0757;-1.0034;
766.2000;0.0708;-1.0079;
766.5000;0.0733;-1.0056;
766.8000;0.0676;-1.0101;
767.1000;0.0635;-1.0260;
767.4000;0.0741;-1.0011;
767.7000;0.0676;-1.0169;
768.0000;0.0757;-0.9943;
768.3000;0.0741;-0.9966;
768.6000;0.0798;-0.9807;
768.9000;0.0773;-0.9920;
769.2000;0.0659;-1.0215;
769.5000;0.0749;-1.0056;
769.8000;0.0749;-0.9988;
770.1000;0.0741;-0.9988;
770.4000;0.0773;-0.9784;
770.7000;0.0733;-0.9966;
771.0000;0.0790;-0.9852;
771.3000;0.0676;-1.0101;
771.6000;0.0741;-0.9875;
771.9000;0.0741;-0.9966;
772.2000;0.0733;-0.9988;
772.5000;0.0716;-0.9988;
772.8000;0.0724;-0.9966;
773.1000;0.0741;-0.9966;
773.4000;0.0765;-0.9898;
773.7000;0.0757;-0.9966;
774.0000;0.0749;-1.0056;
774.3000;0.0757;-1.0056;
774.6000;0.0773;-1.0056;
774.9000;0.0741;-1.0056;
775.2000;0.0741;-1.0011;
775.5000;0.0806;-0.9830;
775.8000;0.0733;-0.9988;
776.1000;0.0822;-0.9784;
776.4000;0.0749;-0.9898;
776.7000;0.0724;-0.9988;
777.0000;0.0749;-0.9898;
777.3000;0.0757;-0.9920;
777.6000;0.0733;-0.9988;
777.9000;0.0716;-0.9920;
778.2000;0.0757;-0.9875;
778.5000;0.0741;-1.0034;
778.8000;0.0724;-1.0034;
779.1000;0.0724;-1.0034;
779.4000;0.0749;-1.0056;
779.7000;0.0765;-0.9988;
780.0000;0.0798;-0.9852;
780.3000;0.0765;-0.9830;
780.6000;0.0716;-0.9830;
780.9000;0.0757;-0.9852;
781.2000;0.0749;-0.9784;
781.5000;0.0741;-0.9830;
781.8000;0.0651;-1.0079;
782.1000;0.0724;-0.9898;
782.4000;0.0757;-0.9762;
782.7000;0.0757;-0.9762;
783.0000;0.0733;-0.9762;
783.3000;0.0733;-0.9739;
783.6000;0.0765;-0.9694;
783.9000;0.0741;-0.9626;
784.2000;0.0765;-0.9649;
784.5000;0.0708;-0.9807;
784.8000;0.0741;-0.9784;
785.1000;0.0724;-0.9852;
785.4000;0.0684;-1.0011;
785.7000;0.0733;-0.9875;
786.0000;0.0733;-1.0011;
786.3000;0.0773;-0.9920;
786.6000;0.0724;-0.9988;
786.9000;0.0724;-1.0056;
787.2000;0.0733;-1.0056;
787.5000;0.0741;-1.0011;
787.8000;0.0659;-1.0169;
788.1000;0.0733;-0.9943;
788.4000;0.0684;-1.0101;
788.7000;0.0741;-0.9898;
789.0000;0.0765;-0.9852;
789.3000;0.0741;-0.9988;
789.6000;0.0700;-1.0124;
789.9000;0.0733;-0.9988;
790.2000;0.0806;-0.9739;
790.5000;0.0773;-0.9875;
790.8000;0.0773;-0.9852;
791.1000;0.0692;-1.0124;
791.4000;0.0741;-1.0011;
791.7000;0.0798;-0.9966;
792.0000;0.0733;-1.0147;
792.3000;0.0863;-0.9852;
792.6000;0.0773;-1.0011;
792.9000;0.0741;-1.0147;
793.2000;0.0716;-1.0101;
793.5000;0.0708;-1.0034;
793.8000;0.0781;-0.9852;
794.1000;0.0749;-1.0034;
794.4000;0.0741;-0.9988;
794.7000;0.0749;-0.9830;
795.0000;0.0863;-0.9626;
795.3000;0.0733;-0.9920;
795.6000;0.0676;-1.0056;
795.9000;0.0741;-0.9920;
796.2000;0.0733;-0.9898;
796.5000;0.0749;-0.9852;
796.8000;0.0757;-0.9920;
797.1000;0.0741;-0.9988;
797.4000;0.0741;-0.9898;
797.7000;0.0733;-0.9875;
798.0000;0.0847;-0.9694;
798.3000;0.0716;-1.0034;
798.6000;0.0716;-1.0034;
798.9000;0.0659;-1.0124;
799.2000;0.0741;-0.9966;
799.5000;0.0847;-0.9739;
799.8000;0.0781;-0.9875;
800.1000;0.0765;-1.0011;
800.4000;0.0814;-0.9943;
800.7000;0.0741;-1.0101;
801.0000;0.0741;-1.0056;
801.3000;0.0741;-0.9966;
801.6000;0.0708;-1.0124;
801.9000;0.0741;-0.9988;
802.2000;0.0716;-1.0079;
802.5000;0.0765;-0.9966;
802.8000;0.0741;-1.0056;
803.1000;0.0757;-1.0011;
803.4000;0.0733;-1.0034;
803.7000;0.0847;-0.9716;
804.0000;0.0749;-1.0011;
804.3000;0.0773;-0.9943;
804.6000;0.0773;-0.9852;
804.9000;0.0749;-1.0011;
805.2000;0.0790;-0.9875;
805.5000;0.0822;-0.9852;
805.8000;0.0749;-1.0101;
806.1000;0.0781;-0.9875;
806.4000;0.0781;-0.9807;
806.7000;0.0708;-0.9943;
807.0000;0.0765;-0.9784;
807.3000;0.0781;-0.9649;
807.6000;0.0716;-0.9852;
807.9000;0.0765;-0.9739;
808.2000;0.0733;-0.9807;
808.5000;0.0708;-0.9807;
808.8000;0.0765;-0.9716;
809.1000;0.0749;-0.9694;
809.4000;0.0749;-0.9694;
809.7000;0.0724;-0.9807;
810.0000;0.0741;-0.9762;
810.3000;0.0757;-0.9739;
810.6000;0.0724;-0.9716;
810.9000;0.0733;-0.9716;
811.2000;0.0741;-0.9649;
811.5000;0.0733;-0.9513;
811.8000;0.0798;-0.9490;
812.1000;0.0733;-0.9807;
812.4000;0.0741;-0.9875;
812.7000;0.0749;-0.9830;
813.0000;0.0716;-0.9807;
813.3000;0.0724;-0.9762;
813.6000;0.0757;-0.9649;
813.9000;0.0741;-0.9784;
814.2000;0.0749;-0.9875;
814.5000;0.0749;-0.9852;
814.8000;0.0716;-0.9898;
815.1000;0.0757;-0.9716;
815.4000;0.0773;-0.9694;
815.7000;0.0757;-0.9694;
816.0000;0.0667;-0.9966;
816.3000;0.0733;-0.9784;
816.6000;0.0700;-0.9852;
816.9000;0.0757;-0.9830;
817.2000;0.0806;-0.9694;
817.5000;0.0757;-0.9762;
817.8000;0.0716;-0.9875;
818.1000;0.0708;-0.9943;
818.4000;0.0757;-0.9875;
818.7000;0.0773;-0.9762;
819.0000;0.0806;-0.9671;
819.3000;0.0757;-0.9784;
819.6000;0.0716;-0.9852;
819.9000;0.0724;-0.9898;
820.2000;0.0757;-0.9784;
820.5000;0.0733;-0.9807;
820.8000;0.0749;-0.9852;
821.1000;0.0733;-0.9920;
821.4000;0.0741;-0.9875;
821.7000;0.0749;-0.9920;
822.0000;0.0733;-0.9966;
822.3000;0.0757;-0.9920;
822.6000;0.0757;-0.9875;
822.9000;0.0733;-0.9852;
823.2000;0.0741;-0.9875;
823.5000;0.0741;-0.9852;
823.8000;0.0708;-0.9920;
824.1000;0.0741;-0.9807;
824.4000;0.0855;-0.9467;
824.7000;0.0716;-0.9852;
825.0000;0.0749;-0.9762;
825.3000;0.0724;-0.9898;
825.6000;0.0708;-0.9875;
825.9000;0.0733;-0.9784;
826.2000;0.0741;-0.9830;
826.5000;0.0765;-0.9807;
826.8000;0.0733;-0.9920;
827.1000;0.0724;-0.9988;
827.4000;0.0757;-0.9966;
827.7000;0.0716;-1.0056;
828.0000;0.0757;-0.9988;
828.3000;0.0741;-1.0056;
828.6000;0.0749;-1.0056;
828.9000;0.0790;-0.9943;
829.2000;0.0757;-0.9920;
829.5000;0.0749;-0.9920;
829.8000;0.0757;-0.9875;
830.1000;0.0733;-0.9920;
830.4000;0.0757;-0.9830;
830.7000;0.0847;-0.9603;
831.0000;0.0749;-0.9875;
831.3000;0.0692;-0.9988;
831.6000;0.0749;-0.9875;
831.9000;0.0733;-0.9898;
832.2000;0.0741;-0.9898;
832.5000;0.0749;-0.9898;
832.8000;0.0724;-0.9988;
833.1000;0.0611;-1.0283;
833.4000;0.0724;-0.9966;
833.7000;0.0741;-0.9920;
834.0000;0.0724;-0.9898;
834.3000;0.0741;-0.9875;
834.6000;0.0700;-1.0011;
834.9000;0.0749;-0.9943;
835.2000;0.0757;-0.9739;
835.5000;0.0724;-0.9830;
835.8000;0.0741;-0.9875;
836.1000;0.0757;-0.9784;
836.4000;0.0741;-0.9762;
836.7000;0.0757;-0.9852;
837.0000;0.0765;-0.9830;
837.3000;0.0765;-0.9830;
837.6000;0.0708;-0.9920;
837.9000;0.0733;-0.9852;
838.2000;0.0708;-0.9830;
838.5000;0.0741;-0.9762;
838.8000;0.0716;-0.9762;
839.1000;0.0708;-0.9852;
839.4000;0.0733;-0.9807;
839.7000;0.0741;-0.9898;
840.0000;0.0749;-0.9943;
840.3000;0.0749;-0.9875;
840.6000;0.0749;-0.9852;
840.9000;0.0741;-0.9875;
841.2000;0.0741;-0.9830;
841.5000;0.0708;-0.9875;
841.8000;0.0741;-0.9920;
842.1000;0.0627;-1.0237;
842.4000;0.0749;-0.9943;
842.7000;0.0733;-0.9988;
843.0000;0.0700;-1.0079;
843.3000;0.0765;-0.9920;
843.6000;0.0667;-1.0169;
843.9000;0.0749;-0.9988;
844.2000;0.0733;-1.0034;
844.5000;0.0741;-0.9966;
844.8000;0.0741;-0.9898;
845.1000;0.0716;-0.9920;
845.4000;0.0635;-1.0124;
845.7000;0.0741;-0.9807;
846.0000;0.0773;-0.9694;
846.3000;0.0741;-0.9784;
846.6000;0.0733;-0.9807;
846.9000;0.0741;-0.9739;
847.2000;0.0733;-0.9716;
847.5000;0.0749;-0.9716;
847.8000;0.0724;-0.9784;
848.1000;0.0700;-0.9852;
848.4000;0.0773;-0.9716;
848.7000;0.0765;-0.9739;
849.0000;0.0724;-0.9875;
849.3000;0.0773;-0.9807;
849.6000;0.0773;-0.9739;
849.9000;0.0757;-0.9784;
850.2000;0.0749;-0.9875;
850.5000;0.0741;-0.9875;
850.8000;0.0749;-0.9898;
851.1000;0.0741;-0.9875;
851.4000;0.0765;-0.9807;
851.7000;0.0741;-0.9852;
852.0000;0.0806;-0.9649;
852.3000;0.0757;-0.9830;
852.6000;0.0749;-0.9784;
852.9000;0.0741;-0.9807;
853.2000;0.0773;-0.9784;
853.5000;0.0659;-1.0147;
853.8000;0.0757;-0.9875;
854.1000;0.0733;-0.9920;
854.4000;0.0814;-0.9671;
854.7000;0.0765;-0.9784;
855.0000;0.0667;-1.0034;
855.3000;0.0741;-0.9943;
855.6000;0.0749;-0.9898;
855.9000;0.0724;-0.9875;
856.2000;0.0724;-0.9875;
856.5000;0.0692;-0.9920;
856.8000;0.0733;-0.9830;
857.1000;0.0716;-0.9920;
857.4000;0.0741;-0.9784;
857.7000;0.0733;-0.9830;
858.0000;0.0749;-0.9807;
858.3000;0.0749;-0.9784;
858.6000;0.0749;-0.9762;
858.9000;0.0700;-0.9875;
859.2000;0.0838;-0.9490;
859.5000;0.0765;-0.9694;
859.8000;0.0724;-0.9830;
860.1000;0.0765;-0.9762;
860.4000;0.0749;-0.9807;
860.7000;0.0692;-0.9875;
861.0000;0.0765;-0.9739;
861.3000;0.0757;-0.9671;
861.6000;0.0757;-0.9739;
861.9000;0.0741;-0.9762;
862.2000;0.0733;-0.9784;
862.5000;0.0749;-0.9739;
862.8000;0.0651;-0.9920;
863.1000;0.0724;-0.9784;
863.4000;0.0692;-0.9830;
863.7000;0.0741;-0.9762;
864.0000;0.0733;-0.9830;
864.3000;0.0635;-1.0011;
864.6000;0.0895;-0.9422;
864.9000;0.0765;-0.9739;
865.2000;0.0741;-0.9716;
865.5000;0.0716;-0.9739;
865.8000;0.0724;-0.9898;
866.1000;0.0741;-0.9830;
866.4000;0.0643;-1.0101;
866.7000;0.0773;-0.9716;
867.0000;0.0708;-0.9898;
867.3000;0.0733;-0.9830;
867.6000;0.0667;-0.9966;
867.9000;0.0724;-0.9852;
868.2000;0.0692;-0.9898;
868.5000;0.0733;-0.9807;
868.8000;0.0741;-0.9716;
869.1000;0.0838;-0.9422;
869.4000;0.0716;-0.9762;
869.7000;0.0757;-0.9671;
870.0000;0.0757;-0.9694;
870.3000;0.0749;-0.9739;
870.6000;0.0684;-0.9988;
870.9000;0.0724;-0.9830;
871.2000;0.0716;-0.9920;
871.5000;0.0749;-0.9807;
871.8000;0.0741;-0.9739;
872.1000;0.0879;-0.9309;
872.4000;0.0724;-0.9694;
872.7000;0.0716;-0.9716;
873.0000;0.0741;-0.9762;
873.3000;0.0765;-0.9739;
873.6000;0.0773;-0.9762;
873.9000;0.0741;-0.9852;
874.2000;0.0708;-0.9943;
874.5000;0.0773;-0.9784;
874.8000;0.0765;-0.9784;
875.1000;0.0724;-0.9830;
875.4000;0.0749;-0.9739;
875.7000;0.0700;-0.9807;
876.0000;0.0765;-0.9671;
876.3000;0.0724;-0.9716;
876.6000;0.0741;-0.9649;
876.9000;0.0741;-0.9671;
877.2000;0.0822;-0.9422;
877.5000;0.0749;-0.9558;
877.8000;0.0733;-0.9558;
878.1000;0.0757;-0.9535;
878.4000;0.0716;-0.9649;
878.7000;0.0733;-0.9694;
879.0000;0.0733;-0.9694;
879.3000;0.0708;-0.9762;
879.6000;0.0741;-0.9716;
879.9000;0.0724;-0.9739;
880.2000;0.0627;-0.9943;
880.5000;0.0724;-0.9762;
880.8000;0.0741;-0.9716;
881.1000;0.0635;-1.0056;
881.4000;0.0733;-0.9739;
881.7000;0.0847;-0.9535;
882.0000;0.0741;-0.9830;
882.3000;0.0798;-0.9807;
882.6000;0.0651;-1.0124;
882.9000;0.0716;-0.9920;
883.2000;0.0814;-0.9535;
883.5000;0.0733;-0.9671;
883.8000;0.0724;-0.9716;
884.1000;0.0806;-0.9490;
884.4000;0.0798;-0.9513;
884.7000;0.0741;-0.9581;
885.0000;0.0773;-0.9558;
885.3000;0.0757;-0.9603;
885.6000;0.0757;-0.9603;
885.9000;0.0765;-0.9558;
886.2000;0.0733;-0.9626;
886.5000;0.0733;-0.9626;
886.8000;0.0757;-0.9626;
887.1000;0.0733;-0.9694;
887.4000;0.0724;-0.9807;
887.7000;0.0765;-0.9649;
888.0000;0.0749;-0.9603;
888.3000;0.0733;-0.9649;
888.6000;0.0724;-0.9649;
888.9000;0.0716;-0.9649;
889.2000;0.0757;-0.9603;
889.5000;0.0765;-0.9671;
889.8000;0.0716;-0.9716;
890.1000;0.0643;-0.9988;
890.4000;0.0733;-0.9784;
890.7000;0.0749;-0.9716;
891.0000;0.0667;-0.9898;
891.3000;0.0741;-0.9716;
891.6000;0.0749;-0.9671;
891.9000;0.0741;-0.9716;
892.2000;0.0757;-0.9716;
892.5000;0.0814;-0.9603;
892.8000;0.0733;-0.9807;
893.1000;0.0733;-0.9807;
893.4000;0.0741;-0.9784;
893.7000;0.0765;-0.9762;
894.0000;0.0741;-0.9830;
894.3000;0.0733;-0.9784;
894.6000;0.0781;-0.9558;
894.9000;0.0733;-0.9694;
895.2000;0.0708;-0.9830;
895.5000;0.0741;-0.9784;
895.8000;0.0741;-0.9875;
896.1000;0.0716;-0.9988;
896.4000;0.0765;-0.9898;
896.7000;0.0741;-0.9920;
897.0000;0.0757;-0.9875;
897.3000;0.0716;-0.9943;
897.6000;0.0781;-0.9784;
897.9000;0.0733;-0.9830;
898.2000;0.0798;-0.9694;
898.5000;0.0749;-0.9716;
898.8000;0.0716;-0.9649;
899.1000;0.0741;-0.9649;
899.4000;0.0757;-0.9626;
899.7000;0.0578;-1.0056;
900.0000;0.0733;-0.9739;
900.3000;0.0716;-0.9830;
900.6000;0.0724;-0.9875;
900.9000;0.0676;-0.9875;
901.2000;0.0659;-0.9920;
901.5000;0.0741;-0.9784;
901.8000;0.0733;-0.9875;
902.1000;0.0741;-0.9875;
902.4000;0.0733;-0.9966;
902.7000;0.0749;-0.9943;
903.0000;0.0724;-0.9943;
903.3000;0.0700;-0.9920;
903.6000;0.0708;-0.9898;
903.9000;0.0684;-1.0034;
904.2000;0.0757;-0.9807;
904.5000;0.0724;-0.9784;
904.8000;0.0733;-0.9807;
905.1000;0.0667;-1.0056;
905.4000;0.0749;-0.9920;
905.7000;0.0781;-0.9898;
906.0000;0.0684;-1.0011;
906.3000;0.0830;-0.9603;
906.6000;0.0724;-0.9807;
906.9000;0.0773;-0.9762;
907.2000;0.0684;-0.9898;
907.5000;0.0724;-0.9830;
907.8000;0.0790;-0.9694;
908.1000;0.0757;-0.9716;
908.4000;0.0635;-0.9966;
908.7000;0.0733;-0.9739;
909.0000;0.0741;-0.9830;
909.3000;0.0733;-0.9830;
909.6000;0.0733;-0.9830;
909.9000;0.0684;-0.9966;
910.2000;0.0790;-0.9716;
910.5000;0.0814;-0.9603;
910.8000;0.0724;-0.9784;
911.1000;0.0773;-0.9626;
911.4000;0.0757;-0.9784;
911.7000;0.0757;-0.9784;
912.0000;0.0733;-0.9830;
912.3000;0.0749;-0.9807;
912.6000;0.0724;-0.9739;
912.9000;0.0724;-0.9739;
913.2000;0.0741;-0.9694;
913.5000;0.0708;-0.9784;
913.8000;0.0733;-0.9581;
914.1000;0.0733;-0.9513;
914.4000;0.0708;-0.9626;
914.7000;0.0741;-0.9671;
915.0000;0.0724;-0.9739;
915.3000;0.0724;-0.9671;
915.6000;0.0724;-0.9739;
915.9000;0.0757;-0.9784;
916.2000;0.0724;-0.9784;
916.5000;0.0790;-0.9649;
916.8000;0.0733;-0.9784;
917.1000;0.0757;-0.9671;
917.4000;0.0765;-0.9739;
917.7000;0.0749;-0.9716;
918.0000;0.0741;-0.9739;
918.3000;0.0749;-0.9739;
918.6000;0.0757;-0.9694;
918.9000;0.0733;-0.9784;
919.2000;0.0757;-0.9762;
919.5000;0.0724;-0.9830;
919.8000;0.0741;-0.9807;
920.1000;0.0733;-0.9807;
920.4000;0.0741;-0.9830;
920.7000;0.0741;-0.9852;
921.0000;0.0716;-0.9943;
921.3000;0.0684;-0.9988;
921.6000;0.0676;-1.0079;
921.9000;0.0708;-1.0011;
922.2000;0.0708;-1.0011;
922.5000;0.0733;-0.9875;
922.8000;0.0716;-0.9898;
923.1000;0.0733;-0.9762;
923.4000;0.0733;-0.9762;
923.7000;0.0757;-0.9626;
924.0000;0.0716;-0.9739;
924.3000;0.0773;-0.9671;
924.6000;0.0765;-0.9671;
924.9000;0.0749;-0.9649;
925.2000;0.0773;-0.9581;
925.5000;0.0757;-0.9626;
925.8000;0.0749;-0.9694;
926.1000;0.0749;-0.9739;
926.4000;0.0757;-0.9716;
926.7000;0.0741;-0.9716;
927.0000;0.0708;-0.9694;
927.3000;0.0757;-0.9581;
927.6000;0.0749;-0.9603;
927.9000;0.0781;-0.9558;
928.2000;0.0700;-0.9762;
928.5000;0.0741;-0.9716;
928.8000;0.0749;-0.9694;
929.1000;0.0781;-0.9535;
929.4000;0.0733;-0.9716;
929.7000;0.0749;-0.9784;
930.0000;0.0773;-0.9762;
930.3000;0.0749;-0.9875;
930.6000;0.0741;-0.9784;
930.9000;0.0741;-0.9739;
931.2000;0.0798;-0.9626;
931.5000;0.0724;-0.9716;
931.8000;0.0798;-0.9558;
932.1000;0.0724;-0.9739;
932.4000;0.0790;-0.9513;
932.7000;0.0733;-0.9762;
933.0000;0.0733;-0.9716;
933.3000;0.0749;-0.9649;
933.6000;0.0724;-0.9739;
933.9000;0.0724;-0.9807;
934.2000;0.0733;-0.9739;
934.5000;0.0733;-0.9739;
934.8000;0.0724;-0.9716;
935.1000;0.0741;-0.9671;
935.4000;0.0749;-0.9626;
935.7000;0.0724;-0.9739;
936.0000;0.0667;-0.9852;
936.3000;0.0749;-0.9762;
936.6000;0.0757;-0.9784;
936.9000;0.0708;-0.9966;
937.2000;0.0749;-0.9852;
937.5000;0.0855;-0.9513;
937.8000;0.0757;-0.9739;
938.1000;0.0741;-0.9739;
938.4000;0.0659;-1.0011;
938.7000;0.0724;-0.9875;
939.0000;0.0733;-0.9852;
939.3000;0.0733;-0.9898;
939.6000;0.0741;-0.9898;
939.9000;0.0757;-0.9852;
940.2000;0.0773;-0.9807;
940.5000;0.0765;-0.9807;
940.8000;0.0733;-0.9694;
941.1000;0.0733;-0.9671;
941.4000;0.0716;-0.9762;
941.7000;0.0773;-0.9626;
942.0000;0.0708;-0.9852;
942.3000;0.0749;-0.9762;
942.6000;0.0741;-0.9784;
942.9000;0.0790;-0.9716;
943.2000;0.0724;-0.9807;
943.5000;0.0765;-0.9762;
943.8000;0.0733;-0.9807;
944.1000;0.0749;-0.9784;
944.4000;0.0733;-0.9739;
944.7000;0.0765;-0.9558;
945.0000;0.0716;-0.9694;
945.3000;0.0724;-0.9671;
945.6000;0.0781;-0.9513;
945.9000;0.0708;-0.9762;
946.2000;0.0806;-0.9603;
946.5000;0.0749;-0.9762;
946.8000;0.0765;-0.9716;
947.1000;0.0749;-0.9739;
947.4000;0.0733;-0.9762;
947.7000;0.0806;-0.9581;
948.0000;0.0716;-0.9739;
948.3000;0.0708;-0.9716;
948.6000;0.0733;-0.9649;
948.9000;0.0733;-0.9558;
949.2000;0.0741;-0.9513;
949.5000;0.0724;-0.9558;
949.8000;0.0724;-0.9603;
950.1000;0.0741;-0.9626;
950.4000;0.0749;-0.9603;
950.7000;0.0757;-0.9558;
951.0000;0.0724;-0.9558;
951.3000;0.0741;-0.9490;
951.6000;0.0765;-0.9354;
951.9000;0.0847;-0.9060;
952.2000;0.0749;-0.9399;
952.5000;0.0749;-0.9399;
952.8000;0.0733;-0.9581;
953.1000;0.0741;-0.9603;
953.4000;0.0733;-0.9716;
953.7000;0.0790;-0.9603;
954.0000;0.0765;-0.9807;
954.3000;0.0749;-0.9852;
954.6000;0.0733;-0.9898;
954.9000;0.0724;-0.9988;
955.2000;0.0749;-0.9784;
955.5000;0.0798;-0.9671;
955.8000;0.0733;-0.9852;
956.1000;0.0749;-0.9852;
956.4000;0.0708;-0.9852;
956.7000;0.0741;-0.9784;
957.0000;0.0773;-0.9716;
957.3000;0.0724;-0.9898;
957.6000;0.0749;-0.9830;
957.9000;0.0733;-0.9898;
958.2000;0.0757;-0.9830;
958.5000;0.0643;-1.0101;
958.8000;0.0700;-0.9852;
959.1000;0.0757;-0.9739;
959.4000;0.0765;-0.9671;
959.7000;0.0716;-0.9784;
960.0000;0.0749;-0.9694;
960.3000;0.0757;-0.9603;
960.6000;0.0724;-0.9739;
960.9000;0.0733;-0.9694;
961.2000;0.0749;-0.9716;
961.5000;0.0749;-0.9762;
961.8000;0.0765;-0.9603;
962.1000;0.0822;-0.9490;
962.4000;0.0716;-0.9830;
962.7000;0.0798;-0.9626;
963.0000;0.0741;-0.9807;
963.3000;0.0733;-0.9784;
963.6000;0.0741;-0.9739;
963.9000;0.0619;-1.0011;
964.2000;0.0724;-0.9762;
964.5000;0.0741;-0.9649;
964.8000;0.0733;-0.9694;
965.1000;0.0757;-0.9716;
965.4000;0.0733;-0.9807;
965.7000;0.0757;-0.9807;
966.0000;0.0724;-0.9830;
966.3000;0.0757;-0.9671;
966.6000;0.0716;-0.9784;
966.9000;0.0741;-0.9739;
967.2000;0.0733;-0.9784;
967.5000;0.0733;-0.9762;
967.8000;0.0692;-0.9875;
968.1000;0.0749;-0.9784;
968.4000;0.0757;-0.9807;
968.7000;0.0733;-0.9875;
969.0000;0.0611;-1.0101;
969.3000;0.0733;-0.9875;
969.6000;0.0733;-0.9898;
969.9000;0.0724;-0.9875;
970.2000;0.0749;-0.9852;
970.5000;0.0814;-0.9784;
970.8000;0.0733;-0.9920;
971.1000;0.0749;-0.9852;
971.4000;0.0765;-0.9784;
971.7000;0.0749;-0.9807;
972.0000;0.0724;-0.9762;
972.3000;0.0741;-0.9626;
972.6000;0.0611;-0.9988;
972.9000;0.0798;-0.9535;
973.2000;0.0716;-0.9716;
973.5000;0.0700;-0.9694;
973.8000;0.0741;-0.9513;
974.1000;0.0724;-0.9535;
974.4000;0.0716;-0.9603;
974.7000;0.0684;-0.9671;
975.0000;0.0708;-0.9739;
975.3000;0.0741;-0.9739;
975.6000;0.0895;-0.9377;
975.9000;0.0741;-0.9762;
976.2000;0.0651;-0.9920;
976.5000;0.0724;-0.9807;
976.8000;0.0749;-0.9716;
977.1000;0.0822;-0.9581;
977.4000;0.0716;-1.0011;
977.7000;0.0798;-0.9830;
978.0000;0.0724;-1.0011;
978.3000;0.0700;-1.0124;
978.6000;0.0871;-0.9762;
978.9000;0.0790;-0.9966;
979.2000;0.0651;-1.0305;
979.5000;0.0716;-0.9988;
979.8000;0.0741;-0.9830;
980.1000;0.0708;-0.9852;
980.4000;0.0749;-0.9694;
980.7000;0.0781;-0.9671;
981.0000;0.0741;-0.9852;
981.3000;0.0733;-0.9852;
981.6000;0.0733;-0.9852;
981.9000;0.0716;-0.9852;
982.2000;0.0765;-0.9739;
982.5000;0.0757;-0.9852;
982.8000;0.0781;-0.9943;
983.1000;0.0716;-1.0079;
983.4000;0.0716;-1.0079;
983.7000;0.0757;-0.9943;
984.0000;0.0773;-0.9943;
984.3000;0.0724;-1.0034;
984.6000;0.0757;-0.9988;
984.9000;0.0757;-0.9943;
985.2000;0.0724;-1.0056;
985.5000;0.0749;-0.9920;
985.8000;0.0716;-1.0011;
986.1000;0.0724;-0.9920;
986.4000;0.0724;-0.9966;
986.7000;0.0716;-1.0011;
987.0000;0.0659;-1.0147;
987.3000;0.0716;-1.0011;
987.6000;0.0741;-0.9875;
987.9000;0.0749;-0.9807;
988.2000;0.0749;-0.9694;
988.5000;0.0749;-0.9671;
988.8000;0.0716;-0.9739;
989.1000;0.0741;-0.9603;
989.4000;0.0749;-0.9603;
989.7000;0.0741;-0.9626;
990.0000;0.0716;-0.9626;
990.3000;0.0700;-0.9671;
990.6000;0.0724;-0.9649;
990.9000;0.0741;-0.9716;
991.2000;0.0724;-0.9807;
991.5000;0.0790;-0.9671;
991.8000;0.0724;-0.9852;
992.1000;0.0733;-0.9898;
992.4000;0.0716;-0.9852;
992.7000;0.0733;-0.9852;
993.0000;0.0741;-0.9920;
993.3000;0.0830;-0.9716;
993.6000;0.0749;-0.9830;
993.9000;0.0741;-0.9875;
994.2000;0.0708;-0.9988;
994.5000;0.0741;-0.9830;
994.8000;0.0749;-0.9762;
995.1000;0.0741;-0.9716;
995.4000;0.0741;-0.9626;
995.7000;0.0708;-0.9739;
996.0000;0.0765;-0.9626;
996.3000;0.0733;-0.9694;
996.6000;0.0594;-1.0124;
996.9000;0.0724;-0.9739;
997.2000;0.0733;-0.9649;
997.5000;0.0724;-0.9671;
997.8000;0.0733;-0.9716;
998.1000;0.0733;-0.9784;
998.4000;0.0733;-0.9762;
998.7000;0.0781;-0.9603;
999.0000;0.0741;-0.9739;
999.3000;0.0741;-0.9649;
999.6000;0.0814;-0.9490;
999.9000;0.0798;-0.9467;
1000.2000;0.0733;-0.9581;
1000.5000;0.0741;-0.9490;
1000.8000;0.0757;-0.9513;
1001.1000;0.0676;-0.9649;
1001.4000;0.0798;-0.9377;
1001.7000;0.0676;-0.9762;
1002.0000;0.0773;-0.9422;
1002.3000;0.0733;-0.9603;
1002.6000;0.0684;-0.9784;
1002.9000;0.0749;-0.9626;
1003.2000;0.0741;-0.9694;
1003.5000;0.0773;-0.9513;
1003.8000;0.0741;-0.9694;
1004.1000;0.0724;-0.9671;
1004.4000;0.0757;-0.9626;
1004.7000;0.0708;-0.9694;
1005.0000;0.0659;-0.9852;
1005.3000;0.0765;-0.9581;
1005.6000;0.0749;-0.9649;
1005.9000;0.0733;-0.9535;
1006.2000;0.0676;-0.9784;
1006.5000;0.0741;-0.9603;
1006.8000;0.0724;-0.9581;
1007.1000;0.0741;-0.9558;
1007.4000;0.0700;-0.9671;
1007.7000;0.0741;-0.9535;
1008.0000;0.0749;-0.9513;
1008.3000;0.0733;-0.9581;
1008.6000;0.0765;-0.9671;
1008.9000;0.0733;-0.9694;
1009.2000;0.0781;-0.9581;
1009.5000;0.0741;-0.9603;
1009.8000;0.0757;-0.9626;
1010.1000;0.0749;-0.9626;
1010.4000;0.0741;-0.9671;
1010.7000;0.0716;-0.9807;
1011.0000;0.0757;-0.9784;
1011.3000;0.0724;-0.9784;
1011.6000;0.0765;-0.9762;
1011.9000;0.0741;-0.9694;
1012.2000;0.0716;-0.9649;
1012.5000;0.0724;-0.9581;
1012.8000;0.0798;-0.9490;
1013.1000;0.0765;-0.9649;
1013.4000;0.0724;-0.9739;
1013.7000;0.0814;-0.9558;
1014.0000;0.0611;-1.0056;
1014.3000;0.0716;-0.9784;
1014.6000;0.0700;-0.9784;
1014.9000;0.0749;-0.9694;
1015.2000;0.0733;-0.9762;
1015.5000;0.0847;-0.9558;
1015.8000;0.0716;-0.9875;
1016.1000;0.0749;-0.9807;
1016.4000;0.0741;-0.9762;
1016.7000;0.0733;-0.9762;
1017.0000;0.0684;-0.9966;
1017.3000;0.0741;-0.9807;
1017.6000;0.0733;-0.9807;
1017.9000;0.0765;-0.9603;
1018.2000;0.0724;-0.9716;
1018.5000;0.0692;-0.9830;
1018.8000;0.0757;-0.9671;
1019.1000;0.0741;-0.9603;
1019.4000;0.0733;-0.9581;
1019.7000;0.0757;-0.9535;
1020.0000;0.0749;-0.9603;
1020.3000;0.0741;-0.9716;
1020.6000;0.0684;-0.9784;
1020.9000;0.0724;-0.9694;
1021.2000;0.0733;-0.9694;
1021.5000;0.0724;-0.9739;
1021.8000;0.0757;-0.9739;
1022.1000;0.0708;-0.9739;
1022.4000;0.0724;-0.9739;
1022.7000;0.0733;-0.9762;
1023.0000;0.0700;-0.9807;
1023.3000;0.0716;-0.9762;
1023.6000;0.0741;-0.9649;
1023.9000;0.0765;-0.9671;
1024.2000;0.0708;-0.9739;
1024.5000;0.0659;-0.9852;
1024.8000;0.0757;-0.9535;
1025.1000;0.0692;-0.9694;
1025.4000;0.0733;-0.9581;
1025.7000;0.0741;-0.9626;
1026.0000;0.0684;-0.9875;
1026.3000;0.0741;-0.9739;
1026.6000;0.0773;-0.9626;
1026.9000;0.0765;-0.9626;
1027.2000;0.0757;-0.9762;
1027.5000;0.0765;-0.9784;
1027.8000;0.0733;-0.9852;
1028.1000;0.0724;-0.9943;
1028.4000;0.0716;-0.9943;
1028.7000;0.0765;-0.9898;
1029.0000;0.0733;-0.9943;
1029.3000;0.0724;-0.9830;
1029.6000;0.0741;-0.9694;
1029.9000;0.0724;-0.9762;
1030.2000;0.0733;-0.9649;
1030.5000;0.0806;-0.9445;
1030.8000;0.0749;-0.9535;
1031.1000;0.0749;-0.9513;
1031.4000;0.0716;-0.9626;
1031.7000;0.0708;-0.9581;
1032.0000;0.0847;-0.9286;
1032.3000;0.0708;-0.9694;
1032.6000;0.0798;-0.9535;
1032.9000;0.0733;-0.9649;
1033.2000;0.0749;-0.9671;
1033.5000;0.0749;-0.9626;
1033.8000;0.0749;-0.9649;
1034.1000;0.0757;-0.9558;
1034.4000;0.0749;-0.9581;
1034.7000;0.0741;-0.9535;
1035.0000;0.0733;-0.9558;
1035.3000;0.0773;-0.9558;
1035.6000;0.0781;-0.9558;
1035.9000;0.0741;-0.9649;
1036.2000;0.0708;-0.9716;
1036.5000;0.0708;-0.9626;
1036.8000;0.0741;-0.9626;
1037.1000;0.0765;-0.9649;
1037.4000;0.0708;-0.9852;
1037.7000;0.0708;-0.9852;
1038.0000;0.0716;-0.9807;
1038.3000;0.0667;-1.0011;
1038.6000;0.0741;-0.9739;
1038.9000;0.0733;-0.9739;
1039.2000;0.0757;-0.9716;
1039.5000;0.0773;-0.9739;
1039.8000;0.0733;-0.9807;
1040.1000;0.0741;-0.9739;
1040.4000;0.0749;-0.9739;
1040.7000;0.0806;-0.9558;
1041.0000;0.0749;-0.9694;
1041.3000;0.0667;-0.9784;
1041.6000;0.0716;-0.9626;
1041.9000;0.0716;-0.9626;
1042.2000;0.0724;-0.9694;
1042.5000;0.0733;-0.9649;
1042.8000;0.0749;-0.9558;
1043.1000;0.0757;-0.9581;
1043.4000;0.0733;-0.9649;
1043.7000;0.0741;-0.9603;
1044.0000;0.0749;-0.9603;
1044.3000;0.0773;-0.9513;
1044.6000;0.0838;-0.9422;
1044.9000;0.0643;-0.9966;
1045.2000;0.0733;-0.9784;
1045.5000;0.0757;-0.9784;
1045.8000;0.0733;-0.9784;
1046.1000;0.0733;-0.9649;
1046.4000;0.0757;-0.9626;
1046.7000;0.0741;-0.9649;
1047.0000;0.0741;-0.9694;
1047.3000;0.0733;-0.9762;
1047.6000;0.0716;-0.9784;
1047.9000;0.0659;-0.9988;
1048.2000;0.0741;-0.9807;
1048.5000;0.0708;-0.9875;
1048.8000;0.0724;-0.9762;
1049.1000;0.0733;-0.9694;
1049.4000;0.0733;-0.9694;
1049.7000;0.0733;-0.9784;
1050.0000;0.0724;-0.9852;
1050.3000;0.0765;-0.9807;
1050.6000;0.0733;-0.9875;
1050.9000;0.0773;-0.9852;
1051.2000;0.0684;-1.0079;
1051.5000;0.0757;-0.9943;
1051.8000;0.0724;-0.9988;
1052.1000;0.0749;-0.9966;
1052.4000;0.0765;-0.9943;
1052.7000;0.0716;-1.0056;
1053.0000;0.0741;-0.9966;
1053.3000;0.0716;-1.0056;
1053.6000;0.0822;-0.9739;
1053.9000;0.0806;-0.9762;
1054.2000;0.0757;-0.9943;
1054.5000;0.0773;-0.9966;
1054.8000;0.0749;-1.0011;
1055.1000;0.0781;-0.9898;
1055.4000;0.0749;-0.9966;
1055.7000;0.0773;-0.9988;
1056.0000;0.0749;-1.0034;
1056.3000;0.0733;-0.9988;
1056.6000;0.0749;-0.9830;
1056.9000;0.0765;-0.9762;
1057.2000;0.0765;-0.9739;
1057.5000;0.0708;-0.9875;
1057.8000;0.0716;-0.9898;
1058.1000;0.0708;-0.9920;
1058.4000;0.0765;-0.9807;
1058.7000;0.0733;-0.9852;
1059.0000;0.0594;-1.0147;
1059.3000;0.0708;-0.9875;
1059.6000;0.0733;-0.9784;
1059.9000;0.0724;-0.9762;
1060.2000;0.0749;-0.9739;
1060.5000;0.0741;-0.9716;
1060.8000;0.0741;-0.9716;
1061.1000;0.0724;-0.9807;
1061.4000;0.0716;-0.9762;
1061.7000;0.0733;-0.9671;
1062.0000;0.0724;-0.9716;
1062.3000;0.0765;-0.9535;
1062.6000;0.0724;-0.9626;
1062.9000;0.0716;-0.9626;
1063.2000;0.0724;-0.9671;
1063.5000;0.0757;-0.9535;
1063.8000;0.0733;-0.9626;
1064.1000;0.0708;-0.9694;
1064.4000;0.0724;-0.9762;
1064.7000;0.0741;-0.9784;
1065.0000;0.0757;-0.9784;
1065.3000;0.0749;-0.9784;
1065.6000;0.0749;-0.9784;
1065.9000;0.0781;-0.9671;
1066.2000;0.0765;-0.9807;
1066.5000;0.0724;-0.9830;
1066.8000;0.0733;-0.9784;
1067.1000;0.0757;-0.9762;
1067.4000;0.0757;-0.9762;
1067.7000;0.0700;-0.9943;
1068.0000;0.0716;-0.9920;
1068.3000;0.0619;-1.0124;
1068.6000;0.0733;-0.9875;
1068.9000;0.0733;-0.9898;
1069.2000;0.0733;-0.9830;
1069.5000;0.0749;-0.9762;
1069.8000;0.0765;-0.9784;
1070.1000;0.0733;-0.9830;
1070.4000;0.0749;-0.9830;
1070.7000;0.0741;-0.9966;
1071.0000;0.0733;-1.0011;
1071.3000;0.0692;-1.0079;
1071.6000;0.0724;-1.0011;
1071.9000;0.0708;-1.0011;
1072.2000;0.0773;-0.9739;
1072.5000;0.0741;-0.9830;
1072.8000;0.0749;-0.9875;
1073.1000;0.0684;-1.0011;
1073.4000;0.0708;-0.9875;
1073.7000;0.0724;-0.9830;
1074.0000;0.0741;-0.9830;
1074.3000;0.0749;-0.9784;
1074.6000;0.0667;-0.9943;
1074.9000;0.0741;-0.9784;
1075.2000;0.0773;-0.9716;
1075.5000;0.0716;-0.9875;
1075.8000;0.0765;-0.9739;
1076.1000;0.0757;-0.9830;
1076.4000;0.0724;-0.9852;
1076.7000;0.0716;-0.9830;
1077.0000;0.0643;-1.0101;
1077.3000;0.0733;-0.9875;
1077.6000;0.0733;-0.9875;
1077.9000;0.0757;-0.9852;
1078.2000;0.0741;-0.9830;
1078.5000;0.0692;-1.0034;
1078.8000;0.0749;-0.9920;
1079.1000;0.0749;-0.9920;
1079.4000;0.0684;-0.9988;
1079.7000;0.0741;-0.9762;
1080.0000;0.0757;-0.9649;
1080.3000;0.0765;-0.9558;
1080.6000;0.0733;-0.9626;
1080.9000;0.0798;-0.9535;
1081.2000;0.0733;-0.9716;
1081.5000;0.0749;-0.9739;
1081.8000;0.0708;-0.9784;
1082.1000;0.0724;-0.9716;
1082.4000;0.0733;-0.9739;
1082.7000;0.0733;-0.9784;
1083.0000;0.0749;-0.9784;
1083.3000;0.0724;-0.9852;
1083.6000;0.0724;-0.9852;
1083.9000;0.0781;-0.9716;
1084.2000;0.0724;-0.9875;
1084.5000;0.0700;-0.9966;
1084.8000;0.0757;-0.9830;
1085.1000;0.0757;-0.9739;
1085.4000;0.0676;-0.9966;
1085.7000;0.0749;-0.9762;
1086.0000;0.0757;-0.9807;
1086.3000;0.0765;-0.9807;
1086.6000;0.0749;-0.9807;
1086.9000;0.0724;-0.9943;
1087.2000;0.0757;-0.9875;
1087.5000;0.0757;-0.9898;
1087.8000;0.0790;-0.9739;
1088.1000;0.0716;-0.9784;
1088.4000;0.0741;-0.9626;
1088.7000;0.0724;-0.9649;
1089.0000;0.0790;-0.9581;
1089.3000;0.0724;-0.9716;
1089.6000;0.0741;-0.9716;
1089.9000;0.0749;-0.9716;
1090.2000;0.0741;-0.9716;
1090.5000;0.0733;-0.9830;
1090.8000;0.0716;-0.9898;
1091.1000;0.0741;-0.9716;
1091.4000;0.0765;-0.9649;
1091.7000;0.0708;-0.9784;
1092.0000;0.0716;-0.9716;
1092.3000;0.0724;-0.9581;
1092.6000;0.0741;-0.9626;
1092.9000;0.0733;-0.9626;
1093.2000;0.0741;-0.9581;
1093.5000;0.0724;-0.9716;
1093.8000;0.0716;-0.9694;
1094.1000;0.0692;-0.9716;
1094.4000;0.0724;-0.9671;
1094.7000;0.0716;-0.9739;
1095.0000;0.0798;-0.9581;
1095.3000;0.0757;-0.9694;
1095.6000;0.0716;-0.9626;
1095.9000;0.0749;-0.9558;
1096.2000;0.0741;-0.9581;
1096.5000;0.0741;-0.9535;
1096.8000;0.0814;-0.9354;
1097.1000;0.0594;-0.9898;
1097.4000;0.0733;-0.9535;
1097.7000;0.0757;-0.9445;
1098.0000;0.0676;-0.9671;
1098.3000;0.0716;-0.9535;
1098.6000;0.0741;-0.9558;
1098.9000;0.0757;-0.9513;
1099.2000;0.0733;-0.9603;
1099.5000;0.0757;-0.9626;
1099.8000;0.0741;-0.9558;
1100.1000;0.0741;-0.9513;
1100.4000;0.0733;-0.9649;
1100.7000;0.0741;-0.9739;
1101.0000;0.0724;-0.9671;
1101.3000;0.0733;-0.9603;
1101.6000;0.0724;-0.9716;
1101.9000;0.0724;-0.9649;
1102.2000;0.0724;-0.9694;
1102.5000;0.0741;-0.9784;
1102.8000;0.0749;-0.9739;
1103.1000;0.0741;-0.9762;
1103.4000;0.0733;-0.9762;
1103.7000;0.0724;-0.9716;
1104.0000;0.0765;-0.9603;
1104.3000;0.0716;-0.9762;
1104.6000;0.0724;-0.9716;
1104.9000;0.0757;-0.9649;
1105.2000;0.0741;-0.9739;
1105.5000;0.0749;-0.9739;
1105.8000;0.0733;-0.9898;
1106.1000;0.0741;-0.9966;
1106.4000;0.0716;-0.9943;
1106.7000;0.0757;-0.9807;
1107.0000;0.0708;-0.9875;
1107.3000;0.0733;-0.9830;
1107.6000;0.0724;-0.9716;
1107.9000;0.0724;-0.9739;
1108.2000;0.0733;-0.9649;
1108.5000;0.0773;-0.9467;
1108.8000;0.0749;-0.9535;
1109.1000;0.0724;-0.9581;
1109.4000;0.0749;-0.9558;
1109.7000;0.0733;-0.9739;
1110.0000;0.0741;-0.9694;
1110.3000;0.0765;-0.9535;
1110.6000;0.0765;-0.9581;
1110.9000;0.0749;-0.9716;
1111.2000;0.0757;-0.9649;
1111.5000;0.0733;-0.9626;
1111.8000;0.0749;-0.9649;
1112.1000;0.0790;-0.9535;
1112.4000;0.0733;-0.9649;
1112.7000;0.0741;-0.9626;
1113.0000;0.0741;-0.9581;
1113.3000;0.0724;-0.9535;
1113.6000;0.0741;-0.9558;
1113.9000;0.0724;-0.9603;
1114.2000;0.0733;-0.9649;
1114.5000;0.0765;-0.9603;
1114.8000;0.0724;-0.9762;
1115.1000;0.0757;-0.9626;
1115.4000;0.0716;-0.9716;
1115.7000;0.0741;-0.9739;
1116.0000;0.0741;-0.9671;
1116.3000;0.0733;-0.9716;
1116.6000;0.0757;-0.9581;
1116.9000;0.0741;-0.9649;
1117.2000;0.0700;-0.9762;
1117.5000;0.0724;-0.9716;
1117.8000;0.0741;-0.9581;
1118.1000;0.0692;-0.9694;
1118.4000;0.0724;-0.9558;
1118.7000;0.0724;-0.9535;
1119.0000;0.0741;-0.9535;
1119.3000;0.0757;-0.9445;
1119.6000;0.0733;-0.9513;
1119.9000;0.0733;-0.9490;
1120.2000;0.0741;-0.9422;
1120.5000;0.0733;-0.9558;
1120.8000;0.0757;-0.9513;
1121.1000;0.0806;-0.9399;
1121.4000;0.0676;-0.9762;
1121.7000;0.0724;-0.9649;
1122.0000;0.0749;-0.9558;
1122.3000;0.0708;-0.9671;
1122.6000;0.0700;-0.9739;
1122.9000;0.0708;-0.9762;
1123.2000;0.0773;-0.9558;
1123.5000;0.0749;-0.9581;
1123.8000;0.0700;-0.9649;
1124.1000;0.0570;-0.9852;
1124.4000;0.0692;-0.9603;
1124.7000;0.0765;-0.9422;
1125.0000;0.0716;-0.9558;
1125.3000;0.0716;-0.9490;
1125.6000;0.0676;-0.9513;
1125.9000;0.0749;-0.9422;
1126.2000;0.0741;-0.9535;
1126.5000;0.0716;-0.9535;
1126.8000;0.0749;-0.9490;
1127.1000;0.0692;-0.9581;
1127.4000;0.0741;-0.9422;
1127.7000;0.0716;-0.9535;
1128.0000;0.0676;-0.9558;
1128.3000;0.0749;-0.9467;
1128.6000;0.0708;-0.9581;
1128.9000;0.0619;-0.9898;
1129.2000;0.0724;-0.9581;
1129.5000;0.0724;-0.9581;
1129.8000;0.0733;-0.9558;
1130.1000;0.0708;-0.9626;
1130.4000;0.0741;-0.9626;
1130.7000;0.0724;-0.9649;
1131.0000;0.0724;-0.9626;
1131.3000;0.0781;-0.9535;
1131.6000;0.0765;-0.9558;
1131.9000;0.0749;-0.9694;
1132.2000;0.0757;-0.9626;
1132.5000;0.0765;-0.9603;
1132.8000;0.0765;-0.9581;
1133.1000;0.0676;-0.9898;
1133.4000;0.0733;-0.9716;
1133.7000;0.0765;-0.9558;
1134.0000;0.0757;-0.9603;
1134.3000;0.0749;-0.9784;
1134.6000;0.0757;-0.9807;
1134.9000;0.0733;-0.9739;
1135.2000;0.0708;-0.9830;
1135.5000;0.0757;-0.9739;
1135.8000;0.0741;-0.9739;
1136.1000;0.0741;-0.9716;
1136.4000;0.0724;-0.9762;
1136.7000;0.0643;-0.9988;
1137.0000;0.0741;-0.9807;
1137.3000;0.0741;-0.9807;
1137.6000;0.0741;-0.9762;
1137.9000;0.0724;-0.9762;
1138.2000;0.0733;-0.9671;
1138.5000;0.0749;-0.9671;
1138.8000;0.0741;-0.9603;
1139.1000;0.0757;-0.9445;
1139.4000;0.0741;-0.9513;
1139.7000;0.0757;-0.9581;
1140.0000;0.0724;-0.9694;
1140.3000;0.0733;-0.9535;
1140.6000;0.0724;-0.9626;
1140.9000;0.0847;-0.9286;
1141.2000;0.0757;-0.9558;
1141.5000;0.0781;-0.9422;
1141.8000;0.0741;-0.9513;
1142.1000;0.0741;-0.9558;
1142.4000;0.0724;-0.9581;
1142.7000;0.0733;-0.9581;
1143.0000;0.0733;-0.9603;
1143.3000;0.0724;-0.9581;
1143.6000;0.0749;-0.9581;
1143.9000;0.0741;-0.9626;
1144.2000;0.0733;-0.9716;
1144.5000;0.0700;-0.9694;
1144.8000;0.0716;-0.9581;
1145.1000;0.0667;-0.9694;
1145.4000;0.0741;-0.9422;
1145.7000;0.0757;-0.9399;
1146.0000;0.0830;-0.9241;
1146.3000;0.0749;-0.9377;
1146.6000;0.0830;-0.9354;
1146.9000;0.0724;-0.9671;
1147.2000;0.0716;-0.9762;
1147.5000;0.0773;-0.9739;
1147.8000;0.0716;-0.9920;
1148.1000;0.0627;-1.0124;
1148.4000;0.0724;-0.9852;
1148.7000;0.0790;-0.9694;
1149.0000;0.0741;-0.9671;
1149.3000;0.0733;-0.9716;
1149.6000;0.0733;-0.9784;
1149.9000;0.0741;-0.9716;
1150.2000;0.0733;-0.9671;
1150.5000;0.0733;-0.9671;
1150.8000;0.0716;-0.9671;
1151.1000;0.0749;-0.9581;
1151.4000;0.0798;-0.9535;
1151.7000;0.0724;-0.9784;
1152.0000;0.0684;-0.9898;
1152.3000;0.0749;-0.9739;
1152.6000;0.0692;-0.9852;
1152.9000;0.0741;-0.9830;
1153.2000;0.0724;-0.9807;
1153.5000;0.0708;-0.9762;
1153.8000;0.0749;-0.9716;
1154.1000;0.0724;-0.9762;
1154.4000;0.0822;-0.9422;
1154.7000;0.0749;-0.9581;
1155.0000;0.0749;-0.9649;
1155.3000;0.0716;-0.9716;
1155.6000;0.0700;-0.9807;
1155.9000;0.0716;-0.9671;
1156.2000;0.0741;-0.9581;
1156.5000;0.0724;-0.9694;
1156.8000;0.0716;-0.9807;
1157.1000;0.0741;-0.9716;
1157.4000;0.0724;-0.9716;
1157.7000;0.0724;-0.9649;
1158.0000;0.0741;-0.9649;
1158.3000;0.0741;-0.9694;
1158.6000;0.0741;-0.9671;
1158.9000;0.0716;-0.9649;
1159.2000;0.0741;-0.9535;
1159.5000;0.0765;-0.9377;
1159.8000;0.0733;-0.9467;
1160.1000;0.0757;-0.9558;
1160.4000;0.0676;-0.9762;
1160.7000;0.0749;-0.9535;
1161.0000;0.0765;-0.9558;
1161.3000;0.0733;-0.9603;
1161.6000;0.0757;-0.9558;
1161.9000;0.0733;-0.9603;
1162.2000;0.0733;-0.9626;
1162.5000;0.0765;-0.9513;
1162.8000;0.0724;-0.9581;
1163.1000;0.0733;-0.9581;
1163.4000;0.0724;-0.9603;
1163.7000;0.0724;-0.9649;
1164.0000;0.0724;-0.9694;
1164.3000;0.0814;-0.9399;
1164.6000;0.0733;-0.9581;
1164.9000;0.0741;-0.9649;
1165.2000;0.0733;-0.9603;
1165.5000;0.0757;-0.9445;
1165.8000;0.0733;-0.9535;
1166.1000;0.0724;-0.9603;
1166.4000;0.0749;-0.9581;
1166.7000;0.0716;-0.9739;
1167.0000;0.0724;-0.9762;
1167.3000;0.0749;-0.9671;
1167.6000;0.0716;-0.9830;
1167.9000;0.0781;-0.9716;
1168.2000;0.0733;-0.9762;
1168.5000;0.0749;-0.9716;
1168.8000;0.0733;-0.9762;
1169.1000;0.0773;-0.9626;
1169.4000;0.0773;-0.9535;
1169.7000;0.0700;-0.9603;
1170.0000;0.0724;-0.9513;
1170.3000;0.0733;-0.9513;
1170.6000;0.0765;-0.9467;
1170.9000;0.0749;-0.9467;
1171.2000;0.0741;-0.9513;
1171.5000;0.0700;-0.9603;
1171.8000;0.0627;-0.9784;
1172.1000;0.0724;-0.9581;
1172.4000;0.0724;-0.9558;
1172.7000;0.0724;-0.9603;
1173.0000;0.0733;-0.9671;
1173.3000;0.0724;-0.9558;
1173.6000;0.0708;-0.9649;
1173.9000;0.0716;-0.9581;
1174.2000;0.0749;-0.9558;
1174.5000;0.0724;-0.9558;
1174.8000;0.0708;-0.9581;
1175.1000;0.0733;-0.9581;
1175.4000;0.0741;-0.9581;
1175.7000;0.0741;-0.9581;
1176.0000;0.0708;-0.9649;
1176.3000;0.0741;-0.9513;
1176.6000;0.0749;-0.9490;
1176.9000;0.0741;-0.9467;
1177.2000;0.0733;-0.9399;
1177.5000;0.0724;-0.9286;
1177.8000;0.0724;-0.9399;
1178.1000;0.0733;-0.9445;
1178.4000;0.0741;-0.9377;
1178.7000;0.0733;-0.9490;
1179.0000;0.0741;-0.9445;
1179.3000;0.0757;-0.9377;
1179.6000;0.0749;-0.9513;
1179.9000;0.0749;-0.9581;
1180.2000;0.0716;-0.9626;
1180.5000;0.0855;-0.9218;
1180.8000;0.0733;-0.9513;
1181.1000;0.0749;-0.9535;
1181.4000;0.0749;-0.9581;
1181.7000;0.0741;-0.9490;
1182.0000;0.0733;-0.9535;
1182.3000;0.0724;-0.9603;
1182.6000;0.0741;-0.9558;
1182.9000;0.0741;-0.9558;
1183.2000;0.0749;-0.9649;
1183.5000;0.0716;-0.9762;
1183.8000;0.0676;-1.0034;
1184.1000;0.0749;-0.9784;
1184.4000;0.0757;-0.9739;
1184.7000;0.0773;-0.9762;
1185.0000;0.0765;-0.9784;
1185.3000;0.0724;-0.9852;
1185.6000;0.0749;-0.9716;
1185.9000;0.0749;-0.9649;
1186.2000;0.0749;-0.9558;
1186.5000;0.0716;-0.9762;
1186.8000;0.0757;-0.9581;
1187.1000;0.0749;-0.9649;
1187.4000;0.0749;-0.9535;
1187.7000;0.0749;-0.9513;
1188.0000;0.0790;-0.9422;
1188.3000;0.0749;-0.9535;
1188.6000;0.0716;-0.9649;
1188.9000;0.0822;-0.9399;
1189.2000;0.0676;-0.9852;
1189.5000;0.0708;-0.9626;
1189.8000;0.0724;-0.9603;
1190.1000;0.0724;-0.9626;
1190.4000;0.0741;-0.9558;
1190.7000;0.0749;-0.9513;
1191.0000;0.0716;-0.9626;
1191.3000;0.0741;-0.9603;
1191.6000;0.0781;-0.9513;
1191.9000;0.0765;-0.9513;
1192.2000;0.0749;-0.9603;
1192.5000;0.0724;-0.9671;
1192.8000;0.0733;-0.9581;
1193.1000;0.0733;-0.9558;
1193.4000;0.0741;-0.9581;
1193.7000;0.0741;-0.9649;
1194.0000;0.0724;-0.9603;
1194.3000;0.0757;-0.9535;
1194.6000;0.0757;-0.9490;
1194.9000;0.0855;-0.9263;
1195.2000;0.0749;-0.9490;
1195.5000;0.0814;-0.9377;
1195.8000;0.0741;-0.9558;
1196.1000;0.0724;-0.9626;
1196.4000;0.0757;-0.9513;
1196.7000;0.0757;-0.9513;
1197.0000;0.0765;-0.9445;
1197.3000;0.0716;-0.9558;
1197.6000;0.0724;-0.9558;
1197.9000;0.0659;-0.9807;
1198.2000;0.0733;-0.9490;
1198.5000;0.0724;-0.9581;
1198.8000;0.0733;-0.9513;
1199.1000;0.0741;-0.9422;
1199.4000;0.0724;-0.9513;
1199.7000;0.0724;-0.9535;
1200.0000;0.0724;-0.9535;
1200.3000;0.0733;-0.9513;
1200.6000;0.0700;-0.9490;
1200.9000;0.0733;-0.9467;
1201.2000;0.0659;-0.9694;
1201.5000;0.0733;-0.9558;
1201.8000;0.0806;-0.9558;
1202.1000;0.0724;-0.9671;
1202.4000;0.0822;-0.9445;
1202.7000;0.0773;-0.9581;
1203.0000;0.0749;-0.9581;
1203.3000;0.0619;-0.9875;
1203.6000;0.0554;-1.0056;
1203.9000;0.0733;-0.9671;
1204.2000;0.0733;-0.9581;
1204.5000;0.0790;-0.9445;
1204.8000;0.0733;-0.9603;
1205.1000;0.0724;-0.9626;
1205.4000;0.0798;-0.9422;
1205.7000;0.0741;-0.9649;
1206.0000;0.0716;-0.9694;
1206.3000;0.0749;-0.9581;
1206.6000;0.0733;-0.9603;
1206.9000;0.0741;-0.9671;
1207.2000;0.0741;-0.9716;
1207.5000;0.0741;-0.9671;
1207.8000;0.0830;-0.9467;
1208.1000;0.0708;-0.9739;
1208.4000;0.0749;-0.9581;
1208.7000;0.0724;-0.9649;
1209.0000;0.0700;-0.9694;
1209.3000;0.0757;-0.9535;
1209.6000;0.0708;-0.9649;
1209.9000;0.0765;-0.9535;
1210.2000;0.0757;-0.9558;
1210.5000;0.0692;-0.9830;
1210.8000;0.0733;-0.9807;
1211.1000;0.0757;-0.9739;
1211.4000;0.0733;-0.9694;
1211.7000;0.0757;-0.9694;
1212.0000;0.0822;-0.9490;
1212.3000;0.0733;-0.9671;
1212.6000;0.0733;-0.9671;
1212.9000;0.0724;-0.9716;
1213.2000;0.0692;-0.9784;
1213.5000;0.0724;-0.9694;
1213.8000;0.0733;-0.9716;
1214.1000;0.0594;-1.0034;
1214.4000;0.0741;-0.9694;
1214.7000;0.0724;-0.9830;
1215.0000;0.0708;-0.9852;
1215.3000;0.0733;-0.9784;
1215.6000;0.0724;-0.9807;
1215.9000;0.0749;-0.9762;
1216.2000;0.0724;-0.9694;
1216.5000;0.0724;-0.9716;
1216.8000;0.0733;-0.9716;
1217.1000;0.0773;-0.9626;
1217.4000;0.0659;-0.9898;
1217.7000;0.0741;-0.9649;
1218.0000;0.0741;-0.9671;
1218.3000;0.0733;-0.9694;
1218.6000;0.0741;-0.9626;
1218.9000;0.0765;-0.9649;
1219.2000;0.0733;-0.9852;
1219.5000;0.0749;-0.9830;
1219.8000;0.0749;-0.9807;
1220.1000;0.0733;-0.9830;
1220.4000;0.0822;-0.9649;
1220.7000;0.0733;-0.9920;
1221.0000;0.0749;-0.9875;
1221.3000;0.0733;-0.9943;
1221.6000;0.0724;-0.9898;
1221.9000;0.0749;-0.9784;
1222.2000;0.0757;-0.9694;
1222.5000;0.0741;-0.9739;
1222.8000;0.0757;-0.9649;
1223.1000;0.0741;-0.9671;
1223.4000;0.0716;-0.9716;
1223.7000;0.0765;-0.9535;
1224.0000;0.0741;-0.9626;
1224.3000;0.0724;-0.9649;
1224.6000;0.0806;-0.9513;
1224.9000;0.0741;-0.9671;
1225.2000;0.0765;-0.9649;
1225.5000;0.0798;-0.9649;
1225.8000;0.0765;-0.9762;
1226.1000;0.0765;-0.9830;
1226.4000;0.0798;-0.9581;
1226.7000;0.0676;-0.9920;
1227.0000;0.0749;-0.9830;
1227.3000;0.0741;-0.9898;
1227.6000;0.0798;-0.9671;
1227.9000;0.0716;-0.9920;
1228.2000;0.0594;-1.0169;
1228.5000;0.0676;-1.0011;
1228.8000;0.0749;-0.9762;
1229.1000;0.0708;-0.9807;
1229.4000;0.0741;-0.9716;
1229.7000;0.0757;-0.9807;
1230.0000;0.0741;-0.9762;
1230.3000;0.0733;-0.9875;
1230.6000;0.0757;-0.9898;
1230.9000;0.0749;-0.9830;
1231.2000;0.0757;-0.9852;
1231.5000;0.0749;-0.9807;
1231.8000;0.0733;-0.9807;
1232.1000;0.0724;-0.9762;
1232.4000;0.0724;-0.9807;
1232.7000;0.0741;-0.9762;
1233.0000;0.0765;-0.9762;
1233.3000;0.0749;-0.9784;
1233.6000;0.0724;-0.9807;
1233.9000;0.0700;-0.9943;
1234.2000;0.0700;-0.9807;
1234.5000;0.0773;-0.9626;
1234.8000;0.0724;-0.9762;
1235.1000;0.0757;-0.9716;
1235.4000;0.0741;-0.9694;
1235.7000;0.0733;-0.9694;
1236.0000;0.0757;-0.9558;
1236.3000;0.0741;-0.9671;
1236.6000;0.0733;-0.9649;
1236.9000;0.0741;-0.9603;
1237.2000;0.0765;-0.9445;
1237.5000;0.0741;-0.9535;
1237.8000;0.0724;-0.9603;
1238.1000;0.0708;-0.9671;
1238.4000;0.0667;-0.9784;
1238.7000;0.0716;-0.9762;
1239.0000;0.0790;-0.9603;
1239.3000;0.0749;-0.9581;
1239.6000;0.0741;-0.9626;
1239.9000;0.0757;-0.9581;
1240.2000;0.0757;-0.9581;
1240.5000;0.0757;-0.9603;
1240.8000;0.0749;-0.9581;
1241.1000;0.0806;-0.9467;
1241.4000;0.0667;-0.9762;
1241.7000;0.0692;-0.9671;
1242.0000;0.0733;-0.9581;
1242.3000;0.0741;-0.9535;
1242.6000;0.0676;-0.9716;
1242.9000;0.0887;-0.9286;
1243.2000;0.0741;-0.9671;
1243.5000;0.0733;-0.9694;
1243.8000;0.0676;-0.9784;
1244.1000;0.0733;-0.9649;
1244.4000;0.0838;-0.9535;
1244.7000;0.0741;-0.9807;
1245.0000;0.0790;-0.9626;
1245.3000;0.0733;-0.9739;
1245.6000;0.0741;-0.9807;
1245.9000;0.0676;-0.9920;
1246.2000;0.0733;-0.9739;
1246.5000;0.0733;-0.9694;
1246.8000;0.0741;-0.9671;
1247.1000;0.0749;-0.9649;
1247.4000;0.0757;-0.9513;
1247.7000;0.0798;-0.9467;
1248.0000;0.0757;-0.9603;
1248.3000;0.0757;-0.9445;
1248.6000;0.0749;-0.9354;
1248.9000;0.0749;-0.9445;
1249.2000;0.0708;-0.9490;
1249.5000;0.0676;-0.9558;
1249.8000;0.0716;-0.9558;
1250.1000;0.0700;-0.9649;
1250.4000;0.0765;-0.9535;
1250.7000;0.0700;-0.9739;
1251.0000;0.0724;-0.9716;
1251.3000;0.0806;-0.9490;
1251.6000;0.0716;-0.9852;
1251.9000;0.0733;-0.9784;
1252.2000;0.0700;-0.9716;
1252.5000;0.0724;-0.9716;
1252.8000;0.0724;-0.9784;
1253.1000;0.0733;-0.9852;
1253.4000;0.0749;-0.9762;
1253.7000;0.0627;-1.0147;
1254.0000;0.0733;-0.9807;
1254.3000;0.0765;-0.9694;
1254.6000;0.0733;-0.9830;
1254.9000;0.0749;-0.9852;
1255.2000;0.0749;-0.9784;
1255.5000;0.0741;-0.9739;
1255.8000;0.0757;-0.9784;
1256.1000;0.0741;-0.9807;
1256.4000;0.0781;-0.9739;
1256.7000;0.0749;-0.9784;
1257.0000;0.0724;-0.9898;
1257.3000;0.0724;-0.9807;
1257.6000;0.0741;-0.9694;
1257.9000;0.0749;-0.9671;
1258.2000;0.0741;-0.9626;
1258.5000;0.0741;-0.9671;
1258.8000;0.0790;-0.9558;
1259.1000;0.0733;-0.9739;
1259.4000;0.0700;-0.9875;
1259.7000;0.0716;-0.9875;
1260.0000;0.0700;-0.9898;
1260.3000;0.0838;-0.9603;
1260.6000;0.0757;-0.9784;
1260.9000;0.0741;-0.9830;
1261.2000;0.0659;-1.0011;
1261.5000;0.0781;-0.9762;
1261.8000;0.0733;-0.9852;
1262.1000;0.0700;-0.9943;
1262.4000;0.0700;-0.9920;
1262.7000;0.0765;-0.9739;
1263.0000;0.0741;-0.9807;
1263.3000;0.0716;-0.9852;
1263.6000;0.0765;-0.9762;
1263.9000;0.0708;-0.9966;
1264.2000;0.0749;-0.9807;
1264.5000;0.0773;-0.9807;
1264.8000;0.0733;-0.9830;
1265.1000;0.0749;-0.9694;
1265.4000;0.0749;-0.9626;
1265.7000;0.0741;-0.9626;
1266.0000;0.0741;-0.9671;
1266.3000;0.0765;-0.9626;
1266.6000;0.0757;-0.9694;
1266.9000;0.0708;-0.9852;
1267.2000;0.0733;-0.9830;
1267.5000;0.0724;-0.9852;
1267.8000;0.0757;-0.9807;
1268.1000;0.0724;-0.9807;
1268.4000;0.0765;-0.9626;
1268.7000;0.0733;-0.9649;
1269.0000;0.0716;-0.9694;
1269.3000;0.0741;-0.9626;
1269.6000;0.0716;-0.9739;
1269.9000;0.0733;-0.9671;
1270.2000;0.0733;-0.9603;
1270.5000;0.0741;-0.9694;
1270.8000;0.0806;-0.9603;
1271.1000;0.0733;-0.9852;
1271.4000;0.0822;-0.9535;
1271.7000;0.0749;-0.9716;
1272.0000;0.0741;-0.9649;
1272.3000;0.0733;-0.9671;
1272.6000;0.0733;-0.9716;
1272.9000;0.0733;-0.9716;
1273.2000;0.0724;-0.9739;
1273.5000;0.0708;-0.9807;
1273.8000;0.0749;-0.9784;
1274.1000;0.0773;-0.9830;
1274.4000;0.0749;-0.9807;
1274.7000;0.0733;-0.9739;
1275.0000;0.0757;-0.9716;
1275.3000;0.0871;-0.9399;
1275.6000;0.0708;-0.9626;
1275.9000;0.0790;-0.9445;
1276.2000;0.0733;-0.9671;
1276.5000;0.0716;-0.9762;
1276.8000;0.0741;-0.9671;
1277.1000;0.0749;-0.9626;
1277.4000;0.0716;-0.9649;
1277.7000;0.0716;-0.9694;
1278.0000;0.0765;-0.9784;
1278.3000;0.0724;-0.9830;
1278.6000;0.0757;-0.9784;
1278.9000;0.0749;-0.9739;
1279.2000;0.0741;-0.9784;
1279.5000;0.0733;-0.9852;
1279.8000;0.0716;-0.9920;
1280.1000;0.0733;-0.9830;
1280.4000;0.0741;-0.9784;
1280.7000;0.0733;-0.9716;
1281.0000;0.0724;-0.9671;
1281.3000;0.0765;-0.9649;
1281.6000;0.0822;-0.9513;
1281.9000;0.0838;-0.9558;
1282.2000;0.0749;-0.9784;
1282.5000;0.0708;-0.9784;
1282.8000;0.0733;-0.9716;
1283.1000;0.0724;-0.9739;
1283.4000;0.0708;-0.9807;
1283.7000;0.0765;-0.9716;
1284.0000;0.0741;-0.9807;
1284.3000;0.0806;-0.9603;
1284.6000;0.0838;-0.9558;
1284.9000;0.0708;-0.9852;
1285.2000;0.0724;-0.9830;
1285.5000;0.0635;-1.0011;
1285.8000;0.0741;-0.9716;
1286.1000;0.0749;-0.9716;
1286.4000;0.0733;-0.9671;
1286.7000;0.0741;-0.9716;
1287.0000;0.0733;-0.9784;
1287.3000;0.0757;-0.9671;
1287.6000;0.0716;-0.9807;
1287.9000;0.0790;-0.9649;
1288.2000;0.0749;-0.9830;
1288.5000;0.0741;-0.9830;
1288.8000;0.0773;-0.9784;
1289.1000;0.0741;-1.0079;
1289.4000;0.0757;-1.0034;
1289.7000;0.0765;-0.9988;
1290.0000;0.0733;-1.0079;
1290.3000;0.0741;-0.9988;
1290.6000;0.0773;-0.9784;
1290.9000;0.0765;-0.9830;
1291.2000;0.0741;-0.9875;
1291.5000;0.0741;-0.9875;
1291.8000;0.0724;-0.9988;
1292.1000;0.0716;-0.9920;
1292.4000;0.0741;-0.9875;
1292.7000;0.0724;-0.9898;
1293.0000;0.0733;-0.9875;
1293.3000;0.0724;-0.9920;
1293.6000;0.0724;-0.9988;
1293.9000;0.0724;-1.0011;
1294.2000;0.0716;-0.9988;
1294.5000;0.0773;-0.9784;
1294.8000;0.0741;-0.9875;
1295.1000;0.0733;-0.9898;
1295.4000;0.0684;-1.0056;
1295.7000;0.0733;-0.9943;
1296.0000;0.0741;-0.9807;
1296.3000;0.0749;-0.9784;
1296.6000;0.0700;-0.9943;
1296.9000;0.0749;-0.9762;
1297.2000;0.0838;-0.9490;
1297.5000;0.0733;-0.9694;
1297.8000;0.0700;-0.9784;
1298.1000;0.0724;-0.9830;
1298.4000;0.0749;-0.9739;
1298.7000;0.0749;-0.9649;
1299.0000;0.0741;-0.9671;
1299.3000;0.0700;-0.9716;
1299.6000;0.0741;-0.9671;
1299.9000;0.0733;-0.9671;
1300.2000;0.0733;-0.9626;
1300.5000;0.0749;-0.9558;
1300.8000;0.0741;-0.9581;
1301.1000;0.0741;-0.9581;
1301.4000;0.0749;-0.9603;
1301.7000;0.0716;-0.9694;
1302.0000;0.0741;-0.9694;
1302.3000;0.0757;-0.9626;
1302.6000;0.0741;-0.9716;
1302.9000;0.0798;-0.9649;
1303.2000;0.0724;-0.9875;
1303.5000;0.0749;-0.9739;
1303.8000;0.0749;-0.9739;
1304.1000;0.0741;-0.9739;
1304.4000;0.0781;-0.9603;
1304.7000;0.0716;-0.9739;
1305.0000;0.0627;-0.9966;
1305.3000;0.0765;-0.9581;
1305.6000;0.0741;-0.9671;
1305.9000;0.0781;-0.9603;
1306.2000;0.0708;-0.9830;
1306.5000;0.0733;-0.9830;
1306.8000;0.0716;-0.9943;
1307.1000;0.0781;-0.9784;
1307.4000;0.0733;-0.9988;
1307.7000;0.0733;-0.9898;
1308.0000;0.0724;-0.9988;
1308.3000;0.0716;-0.9966;
1308.6000;0.0741;-0.9943;
1308.9000;0.0716;-0.9988;
1309.2000;0.0741;-0.9830;
1309.5000;0.0659;-0.9988;
1309.8000;0.0757;-0.9626;
1310.1000;0.0757;-0.9649;
1310.4000;0.0684;-0.9852;
1310.7000;0.0749;-0.9739;
1311.0000;0.0733;-0.9739;
1311.3000;0.0716;-0.9762;
1311.6000;0.0749;-0.9739;
1311.9000;0.0806;-0.9671;
1312.2000;0.0757;-0.9716;
1312.5000;0.0651;-0.9966;
1312.8000;0.0708;-0.9784;
1313.1000;0.0724;-0.9807;
1313.4000;0.0749;-0.9716;
1313.7000;0.0741;-0.9762;
1314.0000;0.0724;-0.9807;
1314.3000;0.0733;-0.9784;
1314.6000;0.0765;-0.9694;
1314.9000;0.0724;-0.9716;
1315.2000;0.0733;-0.9716;
1315.5000;0.0765;-0.9739;
1315.8000;0.0733;-0.9830;
1316.1000;0.0749;-0.9784;
1316.4000;0.0749;-0.9739;
1316.7000;0.0708;-0.9830;
1317.0000;0.0716;-0.9807;
1317.3000;0.0741;-0.9739;
1317.6000;0.0757;-0.9807;
1317.9000;0.0790;-0.9603;
1318.2000;0.0798;-0.9626;
1318.5000;0.0635;-1.0034;
1318.8000;0.0749;-0.9581;
1319.1000;0.0733;-0.9671;
1319.4000;0.0619;-0.9875;
1319.7000;0.0692;-0.9671;
1320.0000;0.0749;-0.9603;
1320.3000;0.0757;-0.9581;
1320.6000;0.0692;-0.9830;
1320.9000;0.0716;-0.9716;
1321.2000;0.0733;-0.9671;
1321.5000;0.0724;-0.9649;
1321.8000;0.0724;-0.9626;
1322.1000;0.0741;-0.9626;
1322.4000;0.0757;-0.9513;
1322.7000;0.0724;-0.9649;
1323.0000;0.0733;-0.9581;
1323.3000;0.0741;-0.9626;
1323.6000;0.0724;-0.9649;
1323.9000;0.0765;-0.9535;
1324.2000;0.0724;-0.9467;
1324.5000;0.0708;-0.9535;
1324.8000;0.0781;-0.9331;
1325.1000;0.0741;-0.9513;
1325.4000;0.0757;-0.9399;
1325.7000;0.0749;-0.9445;
1326.0000;0.0708;-0.9603;
1326.3000;0.0733;-0.9626;
1326.6000;0.0733;-0.9581;
1326.9000;0.0741;-0.9694;
1327.2000;0.0749;-0.9603;
1327.5000;0.0733;-0.9694;
1327.8000;0.0749;-0.9626;
1328.1000;0.0749;-0.9694;
1328.4000;0.0765;-0.9626;
1328.7000;0.0733;-0.9671;
1329.0000;0.0814;-0.9445;
1329.3000;0.0798;-0.9445;
1329.6000;0.0733;-0.9626;
1329.9000;0.0733;-0.9490;
1330.2000;0.0708;-0.9603;
1330.5000;0.0733;-0.9467;
1330.8000;0.0749;-0.9422;
1331.1000;0.0806;-0.9263;
1331.4000;0.0749;-0.9422;
1331.7000;0.0733;-0.9399;
1332.0000;0.0749;-0.9399;
1332.3000;0.0741;-0.9422;
1332.6000;0.0733;-0.9331;
1332.9000;0.0773;-0.9286;
1333.2000;0.0716;-0.9513;
1333.5000;0.0659;-0.9739;
1333.8000;0.0733;-0.9558;
1334.1000;0.0781;-0.9535;
1334.4000;0.0741;-0.9694;
1334.7000;0.0741;-0.9784;
1335.0000;0.0749;-0.9762;
1335.3000;0.0741;-0.9807;
1335.6000;0.0757;-0.9739;
1335.9000;0.0733;-0.9898;
1336.2000;0.0724;-1.0034;
1336.5000;0.0765;-0.9920;
1336.8000;0.0741;-1.0079;
1337.1000;0.0773;-0.9988;
1337.4000;0.0733;-1.0011;
1337.7000;0.0724;-0.9943;
1338.0000;0.0716;-0.9898;
1338.3000;0.0741;-0.9716;
1338.6000;0.0749;-0.9558;
1338.9000;0.0765;-0.9558;
1339.2000;0.0724;-0.9739;
1339.5000;0.0749;-0.9581;
1339.8000;0.0733;-0.9603;
1340.1000;0.0733;-0.9513;
1340.4000;0.0757;-0.9558;
1340.7000;0.0716;-0.9671;
1341.0000;0.0708;-0.9558;
1341.3000;0.0733;-0.9467;
1341.6000;0.0822;-0.9331;
1341.9000;0.0757;-0.9558;
1342.2000;0.0741;-0.9694;
1342.5000;0.0667;-0.9898;
1342.8000;0.0724;-0.9694;
1343.1000;0.0708;-0.9739;
1343.4000;0.0724;-0.9671;
1343.7000;0.0676;-0.9807;
1344.0000;0.0741;-0.9581;
1344.3000;0.0790;-0.9467;
1344.6000;0.0651;-0.9807;
1344.9000;0.0741;-0.9671;
1345.2000;0.0749;-0.9649;
1345.5000;0.0700;-0.9762;
1345.8000;0.0724;-0.9694;
1346.1000;0.0741;-0.9671;
1346.4000;0.0749;-0.9603;
1346.7000;0.0781;-0.9581;
1347.0000;0.0749;-0.9649;
1347.3000;0.0724;-0.9739;
1347.6000;0.0757;-0.9694;
1347.9000;0.0733;-0.9784;
1348.2000;0.0733;-0.9784;
1348.5000;0.0733;-0.9807;
1348.8000;0.0741;-0.9966;
1349.1000;0.0765;-0.9920;
1349.4000;0.0749;-0.9920;
1349.7000;0.0741;-0.9875;
1350.0000;0.0741;-0.9830;
1350.3000;0.0716;-0.9898;
1350.6000;0.0724;-0.9875;
1350.9000;0.0724;-0.9762;
1351.2000;0.0733;-0.9671;
1351.5000;0.0724;-0.9671;
1351.8000;0.0757;-0.9535;
1352.1000;0.0733;-0.9535;
1352.4000;0.0733;-0.9558;
1352.7000;0.0781;-0.9445;
1353.0000;0.0749;-0.9558;
1353.3000;0.0757;-0.9581;
1353.6000;0.0692;-0.9716;
1353.9000;0.0757;-0.9581;
1354.2000;0.0741;-0.9649;
1354.5000;0.0757;-0.9581;
1354.8000;0.0716;-0.9649;
1355.1000;0.0765;-0.9490;
1355.4000;0.0757;-0.9467;
1355.7000;0.0765;-0.9513;
1356.0000;0.0773;-0.9535;
1356.3000;0.0741;-0.9581;
1356.6000;0.0741;-0.9558;
1356.9000;0.0749;-0.9558;
1357.2000;0.0781;-0.9558;
1357.5000;0.0741;-0.9558;
1357.8000;0.0733;-0.9535;
1358.1000;0.0781;-0.9490;
1358.4000;0.0733;-0.9581;
1358.7000;0.0708;-0.9581;
1359.0000;0.0724;-0.9581;
1359.3000;0.0741;-0.9603;
1359.6000;0.0724;-0.9603;
1359.9000;0.0733;-0.9671;
1360.2000;0.0741;-0.9649;
1360.5000;0.0814;-0.9467;
1360.8000;0.0765;-0.9558;
1361.1000;0.0749;-0.9581;
1361.4000;0.0749;-0.9535;
1361.7000;0.0619;-0.9920;
1362.0000;0.0724;-0.9649;
1362.3000;0.0749;-0.9603;
1362.6000;0.0716;-0.9739;
1362.9000;0.0749;-0.9716;
1363.2000;0.0708;-0.9807;
1363.5000;0.0724;-0.9830;
1363.8000;0.0708;-0.9966;
1364.1000;0.0716;-0.9988;
1364.4000;0.0757;-0.9943;
1364.7000;0.0741;-1.0011;
1365.0000;0.0708;-1.0079;
1365.3000;0.0741;-1.0079;
1365.6000;0.0733;-1.0034;
1365.9000;0.0749;-0.9920;
1366.2000;0.0749;-0.9943;
1366.5000;0.0757;-0.9852;
1366.8000;0.0749;-0.9807;
1367.1000;0.0749;-0.9852;
1367.4000;0.0790;-0.9694;
1367.7000;0.0765;-0.9649;
1368.0000;0.0724;-0.9649;
1368.3000;0.0733;-0.9739;
1368.6000;0.0741;-0.9694;
1368.9000;0.0733;-0.9739;
1369.2000;0.0733;-0.9762;
1369.5000;0.0708;-0.9875;
1369.8000;0.0773;-0.9694;
1370.1000;0.0733;-0.9784;
1370.4000;0.0716;-0.9784;
1370.7000;0.0757;-0.9671;
1371.0000;0.0724;-0.9784;
1371.3000;0.0741;-0.9807;
1371.6000;0.0716;-0.9762;
1371.9000;0.0757;-0.9603;
1372.2000;0.0749;-0.9513;
1372.5000;0.0749;-0.9558;
1372.8000;0.0724;-0.9649;
1373.1000;0.0741;-0.9558;
1373.4000;0.0749;-0.9626;
1373.7000;0.0757;-0.9649;
1374.0000;0.0724;-0.9739;
1374.3000;0.0733;-0.9603;
1374.6000;0.0773;-0.9535;
1374.9000;0.0749;-0.9649;
1375.2000;0.0733;-0.9784;
1375.5000;0.0757;-0.9716;
1375.8000;0.0741;-0.9739;
1376.1000;0.0749;-0.9807;
1376.4000;0.0611;-1.0079;
1376.7000;0.0733;-0.9807;
1377.0000;0.0733;-0.9830;
1377.3000;0.0684;-0.9875;
1377.6000;0.0822;-0.9513;
1377.9000;0.0765;-0.9694;
1378.2000;0.0716;-0.9784;
1378.5000;0.0708;-0.9694;
1378.8000;0.0741;-0.9603;
1379.1000;0.0765;-0.9513;
1379.4000;0.0904;-0.9218;
1379.7000;0.0684;-0.9716;
1380.0000;0.0733;-0.9649;
1380.3000;0.0733;-0.9649;
1380.6000;0.0733;-0.9603;
1380.9000;0.0871;-0.9377;
1381.2000;0.0773;-0.9603;
1381.5000;0.0733;-0.9716;
1381.8000;0.0741;-0.9762;
1382.1000;0.0765;-0.9671;
1382.4000;0.0676;-0.9852;
1382.7000;0.0741;-0.9649;
1383.0000;0.0733;-0.9603;
1383.3000;0.0741;-0.9535;
1383.6000;0.0692;-0.9649;
1383.9000;0.0716;-0.9581;
1384.2000;0.0749;-0.9558;
1384.5000;0.0733;-0.9649;
1384.8000;0.0733;-0.9671;
1385.1000;0.0741;-0.9581;
1385.4000;0.0741;-0.9581;
1385.7000;0.0741;-0.9535;
1386.0000;0.0765;-0.9513;
1386.3000;0.0724;-0.9581;
1386.6000;0.0733;-0.9558;
1386.9000;0.0692;-0.9694;
1387.2000;0.0716;-0.9649;
1387.5000;0.0741;-0.9626;
1387.8000;0.0749;-0.9649;
1388.1000;0.0724;-0.9762;
1388.4000;0.0749;-0.9739;
1388.7000;0.0757;-0.9830;
1389.0000;0.0700;-0.9875;
1389.3000;0.0724;-0.9898;
1389.6000;0.0733;-0.9875;
1389.9000;0.0741;-0.9807;
1390.2000;0.0733;-0.9784;
1390.5000;0.0724;-0.9762;
1390.8000;0.0724;-0.9716;
1391.1000;0.0757;-0.9671;
1391.4000;0.0716;-0.9694;
1391.7000;0.0741;-0.9581;
1392.0000;0.0741;-0.9535;
1392.3000;0.0765;-0.9535;
1392.6000;0.0741;-0.9694;
1392.9000;0.0733;-0.9626;
1393.2000;0.0724;-0.9626;
1393.5000;0.0741;-0.9581;
1393.8000;0.0749;-0.9603;
1394.1000;0.0733;-0.9762;
1394.4000;0.0733;-0.9807;
1394.7000;0.0749;-0.9739;
1395.0000;0.0741;-0.9716;
1395.3000;0.0749;-0.9716;
1395.6000;0.0733;-0.9739;
1395.9000;0.0627;-1.0034;
1396.2000;0.0716;-0.9762;
1396.5000;0.0700;-0.9784;
1396.8000;0.0724;-0.9671;
1397.1000;0.0741;-0.9603;
1397.4000;0.0741;-0.9513;
1397.7000;0.0700;-0.9649;
1398.0000;0.0741;-0.9603;
1398.3000;0.0749;-0.9603;
1398.6000;0.0733;-0.9671;
1398.9000;0.0716;-0.9671;
1399.2000;0.0733;-0.9603;
1399.5000;0.0741;-0.9626;
1399.8000;0.0733;-0.9581;
