time/ms;Fluo/V;P700 deltaI/I x10³;
-199.8000;0.0741;-0.9331;
-199.5000;0.0733;-0.9399;
-199.2000;0.0781;-0.9309;
-198.9000;0.0773;-0.9354;
-198.6000;0.0855;-0.9173;
-198.3000;0.0798;-0.9399;
-198.0000;0.0781;-0.9467;
-197.7000;0.0790;-0.9399;
-197.4000;0.0781;-0.9377;
-197.1000;0.0814;-0.9309;
-196.8000;0.0790;-0.9377;
-196.5000;0.0773;-0.9445;
-196.2000;0.0781;-0.9331;
-195.9000;0.0790;-0.9331;
-195.6000;0.0798;-0.9422;
-195.3000;0.0765;-0.9513;
-195.0000;0.0790;-0.9445;
-194.7000;0.0806;-0.9422;
-194.4000;0.0790;-0.9513;
-194.1000;0.0822;-0.9377;
-193.8000;0.0757;-0.9490;
-193.5000;0.0773;-0.9422;
-193.2000;0.0822;-0.9263;
-192.9000;0.0790;-0.9399;
-192.6000;0.0871;-0.9218;
-192.3000;0.0684;-0.9694;
-192.0000;0.0814;-0.9422;
-191.7000;0.0757;-0.9467;
-191.4000;0.0798;-0.9331;
-191.1000;0.0798;-0.9399;
-190.8000;0.0781;-0.9490;
-190.5000;0.0781;-0.9490;
-190.2000;0.0757;-0.9535;
-189.9000;0.0773;-0.9445;
-189.6000;0.0790;-0.9490;
-189.3000;0.0749;-0.9558;
-189.0000;0.0781;-0.9490;
-188.7000;0.0692;-0.9762;
-188.4000;0.0749;-0.9649;
-188.1000;0.0667;-0.9852;
-187.8000;0.0765;-0.9626;
-187.5000;0.0781;-0.9535;
-187.2000;0.0806;-0.9422;
-186.9000;0.0806;-0.9399;
-186.6000;0.0765;-0.9445;
-186.3000;0.0790;-0.9399;
-186.0000;0.0773;-0.9354;
-185.7000;0.0781;-0.9354;
-185.4000;0.0667;-0.9739;
-185.1000;0.0773;-0.9445;
-184.8000;0.0798;-0.9354;
-184.5000;0.0847;-0.9128;
-184.2000;0.0790;-0.9173;
-183.9000;0.0773;-0.9173;
-183.6000;0.0716;-0.9286;
-183.3000;0.0765;-0.9196;
-183.0000;0.0790;-0.9173;
-182.7000;0.0781;-0.9218;
-182.4000;0.0830;-0.9128;
-182.1000;0.0781;-0.9218;
-181.8000;0.0814;-0.9196;
-181.5000;0.0773;-0.9422;
-181.2000;0.0676;-0.9694;
-180.9000;0.0749;-0.9535;
-180.6000;0.0790;-0.9490;
-180.3000;0.0749;-0.9603;
-180.0000;0.0781;-0.9490;
-179.7000;0.0765;-0.9399;
-179.4000;0.0798;-0.9218;
-179.1000;0.0708;-0.9513;
-178.8000;0.0790;-0.9286;
-178.5000;0.0741;-0.9354;
-178.2000;0.0765;-0.9263;
-177.9000;0.0659;-0.9467;
-177.6000;0.0798;-0.9128;
-177.3000;0.0757;-0.9241;
-177.0000;0.0765;-0.9196;
-176.7000;0.0757;-0.9196;
-176.4000;0.0912;-0.8856;
-176.1000;0.0667;-0.9490;
-175.8000;0.0781;-0.9218;
-175.5000;0.0757;-0.9263;
-175.2000;0.0757;-0.9286;
-174.9000;0.0757;-0.9241;
-174.6000;0.0757;-0.9286;
-174.3000;0.0773;-0.9286;
-174.0000;0.0830;-0.9150;
-173.7000;0.0781;-0.9309;
-173.4000;0.0814;-0.9173;
-173.1000;0.0790;-0.9309;
-172.8000;0.0765;-0.9377;
-172.5000;0.0765;-0.9422;
-172.2000;0.0749;-0.9445;
-171.9000;0.0749;-0.9377;
-171.6000;0.0757;-0.9399;
-171.3000;0.0741;-0.9445;
-171.0000;0.0765;-0.9445;
-170.7000;0.0757;-0.9467;
-170.4000;0.0765;-0.9377;
-170.1000;0.0765;-0.9399;
-169.8000;0.0773;-0.9354;
-169.5000;0.0757;-0.9467;
-169.2000;0.0798;-0.9286;
-168.9000;0.0757;-0.9354;
-168.6000;0.0773;-0.9286;
-168.3000;0.0790;-0.9241;
-168.0000;0.0790;-0.9218;
-167.7000;0.0757;-0.9399;
-167.4000;0.0781;-0.9331;
-167.1000;0.0806;-0.9263;
-166.8000;0.0781;-0.9331;
-166.5000;0.0790;-0.9286;
-166.2000;0.0773;-0.9377;
-165.9000;0.0798;-0.9331;
-165.6000;0.0798;-0.9399;
-165.3000;0.0806;-0.9422;
-165.0000;0.0790;-0.9445;
-164.7000;0.0798;-0.9377;
-164.4000;0.0781;-0.9422;
-164.1000;0.0773;-0.9377;
-163.8000;0.0773;-0.9309;
-163.5000;0.0749;-0.9354;
-163.2000;0.0773;-0.9309;
-162.9000;0.0781;-0.9309;
-162.6000;0.0749;-0.9309;
-162.3000;0.0798;-0.9218;
-162.0000;0.0781;-0.9263;
-161.7000;0.0749;-0.9309;
-161.4000;0.0773;-0.9286;
-161.1000;0.0757;-0.9241;
-160.8000;0.0781;-0.9105;
-160.5000;0.0781;-0.9105;
-160.2000;0.0773;-0.9082;
-159.9000;0.0781;-0.9105;
-159.6000;0.0724;-0.9286;
-159.3000;0.0773;-0.9060;
-159.0000;0.0838;-0.8878;
-158.7000;0.0749;-0.9082;
-158.4000;0.0798;-0.9037;
-158.1000;0.0781;-0.9128;
-157.8000;0.0781;-0.9128;
-157.5000;0.0790;-0.9105;
-157.2000;0.0822;-0.9037;
-156.9000;0.0781;-0.9241;
-156.6000;0.0765;-0.9263;
-156.3000;0.0830;-0.9060;
-156.0000;0.0814;-0.9150;
-155.7000;0.0773;-0.9354;
-155.4000;0.0781;-0.9263;
-155.1000;0.0773;-0.9309;
-154.8000;0.0757;-0.9309;
-154.5000;0.0765;-0.9309;
-154.2000;0.0781;-0.9263;
-153.9000;0.0773;-0.9263;
-153.6000;0.0757;-0.9354;
-153.3000;0.0781;-0.9309;
-153.0000;0.0838;-0.9150;
-152.7000;0.0708;-0.9513;
-152.4000;0.0635;-0.9558;
-152.1000;0.0781;-0.9263;
-151.8000;0.0708;-0.9399;
-151.5000;0.0781;-0.9241;
-151.2000;0.0781;-0.9218;
-150.9000;0.0781;-0.9241;
-150.6000;0.0724;-0.9399;
-150.3000;0.0781;-0.9309;
-150.0000;0.0790;-0.9309;
-149.7000;0.0765;-0.9422;
-149.4000;0.0749;-0.9377;
-149.1000;0.0765;-0.9286;
-148.8000;0.0741;-0.9354;
-148.5000;0.0741;-0.9263;
-148.2000;0.0773;-0.9150;
-147.9000;0.0773;-0.9128;
-147.6000;0.0790;-0.9196;
-147.3000;0.0765;-0.9354;
-147.0000;0.0749;-0.9445;
-146.7000;0.0798;-0.9377;
-146.4000;0.0814;-0.9377;
-146.1000;0.0830;-0.9331;
-145.8000;0.0790;-0.9467;
-145.5000;0.0781;-0.9513;
-145.2000;0.0781;-0.9467;
-144.9000;0.0749;-0.9467;
-144.6000;0.0814;-0.9309;
-144.3000;0.0773;-0.9490;
-144.0000;0.0741;-0.9490;
-143.7000;0.0700;-0.9603;
-143.4000;0.0733;-0.9445;
-143.1000;0.0765;-0.9354;
-142.8000;0.0773;-0.9286;
-142.5000;0.0773;-0.9196;
-142.2000;0.0904;-0.8901;
-141.9000;0.0773;-0.9218;
-141.6000;0.0773;-0.9286;
-141.3000;0.0798;-0.9218;
-141.0000;0.0773;-0.9263;
-140.7000;0.0790;-0.9173;
-140.4000;0.0806;-0.9196;
-140.1000;0.0798;-0.9286;
-139.8000;0.0757;-0.9309;
-139.5000;0.0798;-0.9331;
-139.2000;0.0798;-0.9331;
-138.9000;0.0781;-0.9331;
-138.6000;0.0790;-0.9241;
-138.3000;0.0781;-0.9218;
-138.0000;0.0781;-0.9218;
-137.7000;0.0806;-0.9196;
-137.4000;0.0798;-0.9173;
-137.1000;0.0798;-0.9196;
-136.8000;0.0790;-0.9196;
-136.5000;0.0749;-0.9331;
-136.2000;0.0790;-0.9263;
-135.9000;0.0757;-0.9377;
-135.6000;0.0773;-0.9331;
-135.3000;0.0749;-0.9513;
-135.0000;0.0773;-0.9467;
-134.7000;0.0781;-0.9377;
-134.4000;0.0790;-0.9422;
-134.1000;0.0773;-0.9535;
-133.8000;0.0781;-0.9445;
-133.5000;0.0790;-0.9377;
-133.2000;0.0765;-0.9467;
-132.9000;0.0773;-0.9309;
-132.6000;0.0757;-0.9422;
-132.3000;0.0847;-0.9218;
-132.0000;0.0790;-0.9377;
-131.7000;0.0757;-0.9399;
-131.4000;0.0895;-0.9082;
-131.1000;0.0781;-0.9331;
-130.8000;0.0773;-0.9286;
-130.5000;0.0781;-0.9263;
-130.2000;0.0790;-0.9196;
-129.9000;0.0765;-0.9309;
-129.6000;0.0773;-0.9286;
-129.3000;0.0781;-0.9241;
-129.0000;0.0684;-0.9535;
-128.7000;0.0806;-0.9218;
-128.4000;0.0773;-0.9354;
-128.1000;0.0765;-0.9354;
-127.8000;0.0765;-0.9422;
-127.5000;0.0798;-0.9354;
-127.2000;0.0765;-0.9467;
-126.9000;0.0855;-0.9331;
-126.6000;0.0822;-0.9399;
-126.3000;0.0790;-0.9513;
-126.0000;0.0790;-0.9513;
-125.7000;0.0790;-0.9467;
-125.4000;0.0790;-0.9399;
-125.1000;0.0781;-0.9377;
-124.8000;0.0773;-0.9218;
-124.5000;0.0806;-0.9105;
-124.2000;0.0773;-0.9218;
-123.9000;0.0781;-0.9173;
-123.6000;0.0790;-0.9196;
-123.3000;0.0781;-0.9241;
-123.0000;0.0806;-0.9263;
-122.7000;0.0790;-0.9263;
-122.4000;0.0765;-0.9399;
-122.1000;0.0790;-0.9354;
-121.8000;0.0757;-0.9422;
-121.5000;0.0781;-0.9354;
-121.2000;0.0765;-0.9331;
-120.9000;0.0757;-0.9422;
-120.6000;0.0716;-0.9535;
-120.3000;0.0749;-0.9445;
-120.0000;0.0936;-0.9014;
-119.7000;0.0773;-0.9422;
-119.4000;0.0790;-0.9445;
-119.1000;0.0765;-0.9467;
-118.8000;0.0855;-0.9263;
-118.5000;0.0806;-0.9399;
-118.2000;0.0806;-0.9377;
-117.9000;0.0790;-0.9377;
-117.6000;0.0790;-0.9263;
-117.3000;0.0773;-0.9422;
-117.0000;0.0790;-0.9309;
-116.7000;0.0781;-0.9263;
-116.4000;0.0781;-0.9218;
-116.1000;0.0773;-0.9263;
-115.8000;0.0790;-0.9241;
-115.5000;0.0765;-0.9331;
-115.2000;0.0765;-0.9445;
-114.9000;0.0773;-0.9445;
-114.6000;0.0773;-0.9399;
-114.3000;0.0781;-0.9399;
-114.0000;0.0765;-0.9377;
-113.7000;0.0773;-0.9354;
-113.4000;0.0765;-0.9286;
-113.1000;0.0765;-0.9241;
-112.8000;0.0765;-0.9309;
-112.5000;0.0790;-0.9286;
-112.2000;0.0765;-0.9354;
-111.9000;0.0773;-0.9309;
-111.6000;0.0757;-0.9331;
-111.3000;0.0781;-0.9196;
-111.0000;0.0773;-0.9173;
-110.7000;0.0781;-0.9173;
-110.4000;0.0879;-0.8924;
-110.1000;0.0749;-0.9218;
-109.8000;0.0781;-0.9196;
-109.5000;0.0741;-0.9286;
-109.2000;0.0708;-0.9331;
-108.9000;0.0790;-0.9263;
-108.6000;0.0773;-0.9286;
-108.3000;0.0781;-0.9309;
-108.0000;0.0700;-0.9490;
-107.7000;0.0741;-0.9513;
-107.4000;0.0847;-0.9263;
-107.1000;0.0798;-0.9354;
-106.8000;0.0773;-0.9445;
-106.5000;0.0871;-0.9263;
-106.2000;0.0773;-0.9558;
-105.9000;0.0790;-0.9445;
-105.6000;0.0757;-0.9490;
-105.3000;0.0724;-0.9558;
-105.0000;0.0700;-0.9649;
-104.7000;0.0700;-0.9603;
-104.4000;0.0757;-0.9399;
-104.1000;0.0773;-0.9331;
-103.8000;0.0724;-0.9422;
-103.5000;0.0578;-0.9716;
-103.2000;0.0749;-0.9241;
-102.9000;0.0798;-0.9105;
-102.6000;0.0790;-0.9173;
-102.3000;0.0773;-0.9196;
-102.0000;0.0757;-0.9309;
-101.7000;0.0781;-0.9173;
-101.4000;0.0781;-0.9286;
-101.1000;0.0749;-0.9445;
-100.8000;0.0741;-0.9467;
-100.5000;0.0790;-0.9354;
-100.2000;0.0741;-0.9399;
-99.9000;0.0773;-0.9377;
-99.6000;0.0733;-0.9513;
-99.3000;0.0757;-0.9422;
-99.0000;0.0806;-0.9263;
-98.7000;0.0798;-0.9354;
-98.4000;0.0757;-0.9445;
-98.1000;0.0765;-0.9399;
-97.8000;0.0790;-0.9309;
-97.5000;0.0773;-0.9445;
-97.2000;0.0847;-0.9241;
-96.9000;0.0814;-0.9399;
-96.6000;0.0708;-0.9649;
-96.3000;0.0773;-0.9422;
-96.0000;0.0781;-0.9445;
-95.7000;0.0781;-0.9377;
-95.4000;0.0790;-0.9218;
-95.1000;0.0773;-0.9196;
-94.8000;0.0757;-0.9196;
-94.5000;0.0806;-0.9082;
-94.2000;0.0757;-0.9218;
-93.9000;0.0781;-0.9105;
-93.6000;0.0838;-0.9014;
-93.3000;0.0781;-0.9150;
-93.0000;0.0773;-0.9263;
-92.7000;0.0814;-0.9218;
-92.4000;0.0773;-0.9331;
-92.1000;0.0781;-0.9377;
-91.8000;0.0757;-0.9399;
-91.5000;0.0781;-0.9377;
-91.2000;0.0806;-0.9263;
-90.9000;0.0773;-0.9377;
-90.6000;0.0790;-0.9377;
-90.3000;0.0798;-0.9377;
-90.0000;0.0781;-0.9467;
-89.7000;0.0879;-0.9218;
-89.4000;0.0773;-0.9354;
-89.1000;0.0765;-0.9399;
-88.8000;0.0749;-0.9490;
-88.5000;0.0741;-0.9490;
-88.2000;0.0781;-0.9399;
-87.9000;0.0822;-0.9422;
-87.6000;0.0741;-0.9694;
-87.3000;0.0757;-0.9581;
-87.0000;0.0757;-0.9603;
-86.7000;0.0798;-0.9399;
-86.4000;0.0838;-0.9263;
-86.1000;0.0757;-0.9513;
-85.8000;0.0773;-0.9558;
-85.5000;0.0781;-0.9558;
-85.2000;0.0790;-0.9513;
-84.9000;0.0749;-0.9558;
-84.6000;0.0773;-0.9535;
-84.3000;0.0765;-0.9445;
-84.0000;0.0757;-0.9467;
-83.7000;0.0790;-0.9399;
-83.4000;0.0790;-0.9422;
-83.1000;0.0790;-0.9422;
-82.8000;0.0830;-0.9309;
-82.5000;0.0781;-0.9535;
-82.2000;0.0765;-0.9467;
-81.9000;0.0798;-0.9331;
-81.6000;0.0806;-0.9309;
-81.3000;0.0676;-0.9626;
-81.0000;0.0773;-0.9377;
-80.7000;0.0578;-0.9943;
-80.4000;0.0781;-0.9354;
-80.1000;0.0781;-0.9377;
-79.8000;0.0692;-0.9603;
-79.5000;0.0855;-0.9105;
-79.2000;0.0781;-0.9399;
-78.9000;0.0798;-0.9263;
-78.6000;0.0781;-0.9377;
-78.3000;0.0781;-0.9331;
-78.0000;0.0757;-0.9331;
-77.7000;0.0798;-0.9241;
-77.4000;0.0773;-0.9354;
-77.1000;0.0781;-0.9377;
-76.8000;0.0790;-0.9377;
-76.5000;0.0773;-0.9445;
-76.2000;0.0798;-0.9399;
-75.9000;0.0798;-0.9490;
-75.6000;0.0749;-0.9603;
-75.3000;0.0773;-0.9445;
-75.0000;0.0798;-0.9467;
-74.7000;0.0741;-0.9513;
-74.4000;0.0798;-0.9399;
-74.1000;0.0765;-0.9445;
-73.8000;0.0773;-0.9377;
-73.5000;0.0765;-0.9445;
-73.2000;0.0757;-0.9513;
-72.9000;0.0773;-0.9513;
-72.6000;0.0773;-0.9467;
-72.3000;0.0757;-0.9467;
-72.0000;0.0749;-0.9513;
-71.7000;0.0781;-0.9467;
-71.4000;0.0765;-0.9422;
-71.1000;0.0781;-0.9399;
-70.8000;0.0781;-0.9445;
-70.5000;0.0790;-0.9354;
-70.2000;0.0781;-0.9354;
-69.9000;0.0773;-0.9377;
-69.6000;0.0781;-0.9399;
-69.3000;0.0773;-0.9354;
-69.0000;0.0749;-0.9445;
-68.7000;0.0814;-0.9331;
-68.4000;0.0790;-0.9445;
-68.1000;0.0765;-0.9513;
-67.8000;0.0773;-0.9422;
-67.5000;0.0781;-0.9377;
-67.2000;0.0757;-0.9354;
-66.9000;0.0790;-0.9241;
-66.6000;0.0757;-0.9422;
-66.3000;0.0798;-0.9399;
-66.0000;0.0798;-0.9467;
-65.7000;0.0749;-0.9513;
-65.4000;0.0692;-0.9603;
-65.1000;0.0790;-0.9354;
-64.8000;0.0781;-0.9377;
-64.5000;0.0838;-0.9241;
-64.2000;0.0765;-0.9377;
-63.9000;0.0798;-0.9241;
-63.6000;0.0716;-0.9445;
-63.3000;0.0773;-0.9263;
-63.0000;0.0781;-0.9263;
-62.7000;0.0765;-0.9331;
-62.4000;0.0863;-0.9105;
-62.1000;0.0749;-0.9422;
-61.8000;0.0790;-0.9399;
-61.5000;0.0765;-0.9399;
-61.2000;0.0798;-0.9241;
-60.9000;0.0847;-0.9128;
-60.6000;0.0765;-0.9286;
-60.3000;0.0798;-0.9173;
-60.0000;0.0781;-0.9196;
-59.7000;0.0741;-0.9354;
-59.4000;0.0798;-0.9241;
-59.1000;0.0773;-0.9286;
-58.8000;0.0741;-0.9445;
-58.5000;0.0765;-0.9422;
-58.2000;0.0781;-0.9331;
-57.9000;0.0798;-0.9377;
-57.6000;0.0765;-0.9399;
-57.3000;0.0773;-0.9309;
-57.0000;0.0749;-0.9331;
-56.7000;0.0781;-0.9331;
-56.4000;0.0806;-0.9331;
-56.1000;0.0790;-0.9331;
-55.8000;0.0757;-0.9399;
-55.5000;0.0781;-0.9241;
-55.2000;0.0790;-0.9241;
-54.9000;0.0765;-0.9377;
-54.6000;0.0765;-0.9354;
-54.3000;0.0781;-0.9309;
-54.0000;0.0806;-0.9173;
-53.7000;0.0643;-0.9535;
-53.4000;0.0790;-0.9218;
-53.1000;0.0781;-0.9354;
-52.8000;0.0790;-0.9241;
-52.5000;0.0700;-0.9558;
-52.2000;0.0790;-0.9422;
-51.9000;0.0781;-0.9377;
-51.6000;0.0773;-0.9490;
-51.3000;0.0781;-0.9467;
-51.0000;0.0765;-0.9445;
-50.7000;0.0806;-0.9377;
-50.4000;0.0781;-0.9422;
-50.1000;0.0863;-0.9105;
-49.8000;0.0773;-0.9377;
-49.5000;0.0830;-0.9309;
-49.2000;0.0773;-0.9490;
-48.9000;0.0798;-0.9377;
-48.6000;0.0781;-0.9467;
-48.3000;0.0798;-0.9399;
-48.0000;0.0765;-0.9467;
-47.7000;0.0773;-0.9535;
-47.4000;0.0798;-0.9445;
-47.1000;0.0790;-0.9513;
-46.8000;0.0733;-0.9649;
-46.5000;0.0765;-0.9535;
-46.2000;0.0806;-0.9354;
-45.9000;0.0757;-0.9513;
-45.6000;0.0806;-0.9513;
-45.3000;0.0781;-0.9558;
-45.0000;0.0757;-0.9581;
-44.7000;0.0814;-0.9490;
-44.4000;0.0765;-0.9581;
-44.1000;0.0773;-0.9603;
-43.8000;0.0765;-0.9626;
-43.5000;0.0700;-0.9807;
-43.2000;0.0790;-0.9581;
-42.9000;0.0773;-0.9694;
-42.6000;0.0790;-0.9649;
-42.3000;0.0798;-0.9626;
-42.0000;0.0790;-0.9626;
-41.7000;0.0790;-0.9671;
-41.4000;0.0716;-0.9762;
-41.1000;0.0765;-0.9513;
-40.8000;0.0798;-0.9467;
-40.5000;0.0773;-0.9422;
-40.2000;0.0749;-0.9445;
-39.9000;0.0790;-0.9354;
-39.6000;0.0798;-0.9263;
-39.3000;0.0757;-0.9241;
-39.0000;0.0773;-0.9309;
-38.7000;0.0749;-0.9331;
-38.4000;0.0659;-0.9649;
-38.1000;0.0806;-0.9377;
-37.8000;0.0806;-0.9377;
-37.5000;0.0773;-0.9535;
-37.2000;0.0733;-0.9626;
-36.9000;0.0790;-0.9535;
-36.6000;0.0765;-0.9558;
-36.3000;0.0781;-0.9513;
-36.0000;0.0798;-0.9331;
-35.7000;0.0790;-0.9354;
-35.4000;0.0798;-0.9263;
-35.1000;0.0773;-0.9309;
-34.8000;0.0781;-0.9218;
-34.5000;0.0798;-0.9241;
-34.2000;0.0790;-0.9263;
-33.9000;0.0798;-0.9218;
-33.6000;0.0798;-0.9286;
-33.3000;0.0781;-0.9286;
-33.0000;0.0790;-0.9286;
-32.7000;0.0724;-0.9445;
-32.4000;0.0806;-0.9286;
-32.1000;0.0781;-0.9263;
-31.8000;0.0798;-0.9263;
-31.5000;0.0733;-0.9422;
-31.2000;0.0781;-0.9309;
-30.9000;0.0700;-0.9467;
-30.6000;0.0773;-0.9354;
-30.3000;0.0781;-0.9354;
-30.0000;0.0749;-0.9445;
-29.7000;0.0733;-0.9490;
-29.4000;0.0765;-0.9399;
-29.1000;0.0765;-0.9331;
-28.8000;0.0781;-0.9241;
-28.5000;0.0798;-0.9173;
-28.2000;0.0814;-0.9082;
-27.9000;0.0773;-0.9128;
-27.6000;0.0765;-0.9173;
-27.3000;0.0781;-0.9037;
-27.0000;0.0912;-0.8652;
-26.7000;0.0790;-0.9014;
-26.4000;0.0781;-0.9014;
-26.1000;0.0773;-0.9014;
-25.8000;0.0798;-0.8924;
-25.5000;0.0790;-0.8901;
-25.2000;0.0790;-0.9014;
-24.9000;0.0757;-0.9060;
-24.6000;0.0781;-0.9037;
-24.3000;0.0757;-0.9150;
-24.0000;0.0798;-0.9037;
-23.7000;0.0757;-0.9128;
-23.4000;0.0773;-0.9196;
-23.1000;0.0781;-0.9196;
-22.8000;0.0781;-0.9196;
-22.5000;0.0773;-0.9263;
-22.2000;0.0781;-0.9263;
-21.9000;0.0773;-0.9331;
-21.6000;0.0838;-0.9218;
-21.3000;0.0773;-0.9445;
-21.0000;0.0757;-0.9445;
-20.7000;0.0781;-0.9263;
-20.4000;0.0806;-0.9173;
-20.1000;0.0765;-0.9241;
-19.8000;0.0773;-0.9263;
-19.5000;0.0765;-0.9331;
-19.2000;0.0790;-0.9422;
-18.9000;0.0781;-0.9399;
-18.6000;0.0765;-0.9354;
-18.3000;0.0806;-0.9263;
-18.0000;0.0757;-0.9354;
-17.7000;0.0773;-0.9241;
-17.4000;0.0749;-0.9173;
-17.1000;0.0806;-0.9150;
-16.8000;0.0773;-0.9263;
-16.5000;0.0708;-0.9422;
-16.2000;0.0716;-0.9331;
-15.9000;0.0781;-0.9241;
-15.6000;0.0773;-0.9309;
-15.3000;0.0822;-0.9263;
-15.0000;0.0773;-0.9263;
-14.7000;0.0790;-0.9196;
-14.4000;0.0798;-0.9150;
-14.1000;0.0773;-0.9218;
-13.8000;0.0781;-0.9263;
-13.5000;0.0781;-0.9218;
-13.2000;0.0798;-0.9105;
-12.9000;0.0765;-0.9173;
-12.6000;0.0790;-0.9173;
-12.3000;0.0904;-0.8878;
-12.0000;0.0724;-0.9377;
-11.7000;0.0749;-0.9218;
-11.4000;0.0749;-0.9309;
-11.1000;0.0765;-0.9286;
-10.8000;0.0765;-0.9218;
-10.5000;0.0798;-0.9263;
-10.2000;0.0765;-0.9331;
-9.9000;0.0806;-0.9286;
-9.6000;0.0879;-0.9173;
-9.3000;0.0798;-0.9354;
-9.0000;0.0847;-0.9263;
-8.7000;0.0757;-0.9399;
-8.4000;0.0757;-0.9309;
-8.1000;0.0781;-0.9150;
-7.8000;0.0814;-0.9037;
-7.5000;0.0781;-0.9150;
-7.2000;0.0781;-0.9218;
-6.9000;0.0773;-0.9309;
-6.6000;0.0773;-0.9331;
-6.3000;0.0798;-0.9218;
-6.0000;0.0749;-0.9377;
-5.7000;0.0798;-0.9286;
-5.4000;0.0773;-0.9331;
-5.1000;0.0936;-0.8788;
-4.8000;0.0757;-0.9286;
-4.5000;0.0757;-0.9331;
-4.2000;0.0773;-0.9263;
-3.9000;0.0765;-0.9196;
-3.6000;0.0773;-0.9173;
-3.3000;0.0773;-0.9128;
-3.0000;0.0790;-0.9037;
-2.7000;0.0765;-0.9060;
-2.4000;0.0765;-0.9105;
-2.1000;0.0790;-0.9014;
-1.8000;0.0798;-0.8992;
-1.5000;0.0798;-0.8969;
-1.2000;0.0757;-0.9037;
-0.9000;0.0806;-0.8992;
-0.6000;0.0798;-0.8946;
-0.3000;0.0781;-0.8969;
0.0000;0.0781;-0.8969;
0.3000;0.0749;-0.9150;
0.6000;0.0790;-0.8992;
0.9000;0.0806;-0.8946;
1.2000;0.0749;-0.9082;
1.5000;0.0806;-0.8856;
1.8000;0.0838;-0.8743;
2.1000;0.0806;-0.8856;
2.4000;0.0806;-0.8788;
2.7000;0.0855;-0.8629;
3.0000;0.0855;-0.8584;
3.3000;0.0871;-0.8425;
3.6000;0.0871;-0.8425;
3.9000;0.0871;-0.8448;
4.2000;0.0879;-0.8380;
4.5000;0.0887;-0.8335;
4.8000;0.0887;-0.8199;
5.1000;0.0847;-0.8154;
5.4000;0.0855;-0.8108;
5.7000;0.0887;-0.8040;
6.0000;0.0887;-0.7950;
6.3000;0.0879;-0.7882;
6.6000;0.0871;-0.7972;
6.9000;0.0838;-0.7972;
7.2000;0.0871;-0.8018;
7.5000;0.0879;-0.8086;
7.8000;0.0871;-0.8086;
8.1000;0.0887;-0.8040;
8.4000;0.0855;-0.8063;
8.7000;0.0887;-0.7950;
9.0000;0.0822;-0.8244;
9.3000;0.0871;-0.8154;
9.6000;0.0887;-0.8040;
9.9000;0.0757;-0.8267;
10.2000;0.1123;-0.7248;
10.5000;0.0928;-0.7746;
10.8000;0.0879;-0.7905;
11.1000;0.0855;-0.8018;
11.4000;0.0847;-0.8018;
11.7000;0.0790;-0.8154;
12.0000;0.0773;-0.8154;
12.3000;0.0952;-0.7723;
12.6000;0.0961;-0.7791;
12.9000;0.0895;-0.7905;
13.2000;0.0904;-0.7950;
13.5000;0.0895;-0.7950;
13.8000;0.0895;-0.7905;
14.1000;0.0928;-0.7882;
14.4000;0.0961;-0.7859;
14.7000;0.0879;-0.8108;
15.0000;0.0895;-0.8063;
15.3000;0.0879;-0.8131;
15.6000;0.0879;-0.8176;
15.9000;0.0871;-0.8267;
16.2000;0.0887;-0.8199;
16.5000;0.0904;-0.8176;
16.8000;0.0871;-0.8222;
17.1000;0.0814;-0.8425;
17.4000;0.0863;-0.8199;
17.7000;0.0895;-0.7995;
18.0000;0.0904;-0.7950;
18.3000;0.0879;-0.8154;
18.6000;0.0895;-0.8108;
18.9000;0.0887;-0.8108;
19.2000;0.0887;-0.8018;
19.5000;0.0855;-0.8108;
19.8000;0.0887;-0.7995;
20.1000;0.0887;-0.7972;
20.4000;0.0895;-0.8018;
20.7000;0.0887;-0.8108;
21.0000;0.0912;-0.8063;
21.3000;0.0895;-0.8063;
21.6000;0.0895;-0.7972;
21.9000;0.0887;-0.8063;
22.2000;0.0904;-0.8154;
22.5000;0.0936;-0.7950;
22.8000;0.0879;-0.8018;
23.1000;0.0887;-0.7972;
23.4000;0.0895;-0.8040;
23.7000;0.0879;-0.8131;
24.0000;0.0879;-0.8154;
24.3000;0.0871;-0.8290;
24.6000;0.0887;-0.8222;
24.9000;0.1026;-0.7859;
25.2000;0.0887;-0.8176;
25.5000;0.0887;-0.8176;
25.8000;0.0887;-0.8108;
26.1000;0.0904;-0.8040;
26.4000;0.0798;-0.8312;
26.7000;0.0895;-0.7972;
27.0000;0.0871;-0.8040;
27.3000;0.0887;-0.8086;
27.6000;0.0871;-0.8244;
27.9000;0.0912;-0.8176;
28.2000;0.0855;-0.8267;
28.5000;0.0904;-0.8176;
28.8000;0.0920;-0.8131;
29.1000;0.0822;-0.8358;
29.4000;0.0904;-0.8086;
29.7000;0.0904;-0.8063;
30.0000;0.0887;-0.8018;
30.3000;0.0895;-0.8018;
30.6000;0.0879;-0.8040;
30.9000;0.0944;-0.7950;
31.2000;0.0920;-0.8040;
31.5000;0.0904;-0.8108;
31.8000;0.0887;-0.8086;
32.1000;0.0871;-0.8154;
32.4000;0.0871;-0.8131;
32.7000;0.0863;-0.8244;
33.0000;0.0838;-0.8335;
33.3000;0.0904;-0.8131;
33.6000;0.0895;-0.8063;
33.9000;0.0912;-0.8040;
34.2000;0.0822;-0.8290;
34.5000;0.0895;-0.8131;
34.8000;0.0879;-0.8108;
35.1000;0.0830;-0.8267;
35.4000;0.0895;-0.8108;
35.7000;0.0895;-0.8154;
36.0000;0.0904;-0.8154;
36.3000;0.0895;-0.8176;
36.6000;0.0977;-0.8018;
36.9000;0.0895;-0.8154;
37.2000;0.0879;-0.8131;
37.5000;0.0912;-0.8086;
37.8000;0.0904;-0.8199;
38.1000;0.0912;-0.8176;
38.4000;0.0920;-0.8176;
38.7000;0.0895;-0.8290;
39.0000;0.0904;-0.8244;
39.3000;0.0904;-0.8222;
39.6000;0.0912;-0.8154;
39.9000;0.0887;-0.8222;
40.2000;0.0887;-0.8267;
40.5000;0.0912;-0.8290;
40.8000;0.0904;-0.8358;
41.1000;0.0904;-0.8335;
41.4000;0.0838;-0.8380;
41.7000;0.0920;-0.8176;
42.0000;0.0928;-0.8154;
42.3000;0.0879;-0.8380;
42.6000;0.0904;-0.8358;
42.9000;0.0920;-0.8312;
43.2000;0.0904;-0.8335;
43.5000;0.0895;-0.8425;
43.8000;0.0887;-0.8425;
44.1000;0.1083;-0.7905;
44.4000;0.0912;-0.8244;
44.7000;0.0904;-0.8244;
45.0000;0.0920;-0.8176;
45.3000;0.0814;-0.8335;
45.6000;0.0928;-0.8108;
45.9000;0.0871;-0.8244;
46.2000;0.0871;-0.8335;
46.5000;0.0920;-0.8176;
46.8000;0.0904;-0.8199;
47.1000;0.0904;-0.8222;
47.4000;0.0724;-0.8629;
47.7000;0.0912;-0.8108;
48.0000;0.0912;-0.8154;
48.3000;0.0887;-0.8176;
48.6000;0.0904;-0.8108;
48.9000;0.0912;-0.8063;
49.2000;0.0904;-0.8040;
49.5000;0.0920;-0.8108;
49.8000;0.0904;-0.8199;
50.1000;0.0920;-0.8267;
50.4000;0.0952;-0.8176;
50.7000;0.0879;-0.8358;
51.0000;0.0904;-0.8312;
51.3000;0.0904;-0.8290;
51.6000;0.0887;-0.8312;
51.9000;0.0928;-0.8131;
52.2000;0.0912;-0.8176;
52.5000;0.0969;-0.7927;
52.8000;0.0904;-0.8018;
53.1000;0.0912;-0.8063;
53.4000;0.0904;-0.8040;
53.7000;0.0838;-0.8154;
54.0000;0.0912;-0.8018;
54.3000;0.0920;-0.8063;
54.6000;0.0830;-0.8335;
54.9000;0.0912;-0.8154;
55.2000;0.0879;-0.8199;
55.5000;0.0920;-0.8131;
55.8000;0.0904;-0.8222;
56.1000;0.0887;-0.8199;
56.4000;0.0879;-0.8244;
56.7000;0.0895;-0.8267;
57.0000;0.0887;-0.8222;
57.3000;0.0887;-0.8244;
57.6000;0.0928;-0.8086;
57.9000;0.0895;-0.8176;
58.2000;0.0895;-0.8222;
58.5000;0.0912;-0.8154;
58.8000;0.0912;-0.8108;
59.1000;0.0863;-0.8222;
59.4000;0.0904;-0.8108;
59.7000;0.0904;-0.8108;
60.0000;0.0920;-0.8040;
60.3000;0.0887;-0.8086;
60.6000;0.0895;-0.8018;
60.9000;0.0879;-0.8063;
61.2000;0.0806;-0.8312;
61.5000;0.0936;-0.7927;
61.8000;0.0879;-0.8086;
62.1000;0.0895;-0.8154;
62.4000;0.0904;-0.8154;
62.7000;0.0895;-0.8176;
63.0000;0.0928;-0.8108;
63.3000;0.0912;-0.8108;
63.6000;0.0920;-0.8108;
63.9000;0.0887;-0.8176;
64.2000;0.0879;-0.8108;
64.5000;0.0904;-0.8040;
64.8000;0.0895;-0.8086;
65.1000;0.0895;-0.7950;
65.4000;0.0936;-0.7882;
65.7000;0.0912;-0.7905;
66.0000;0.0952;-0.7814;
66.3000;0.0895;-0.7972;
66.6000;0.0879;-0.8063;
66.9000;0.0871;-0.8018;
67.2000;0.0920;-0.7995;
67.5000;0.0887;-0.8176;
67.8000;0.0887;-0.8244;
68.1000;0.0871;-0.8335;
68.4000;0.0887;-0.8267;
68.7000;0.0904;-0.8244;
69.0000;0.0830;-0.8448;
69.3000;0.0920;-0.8244;
69.6000;0.0895;-0.8222;
69.9000;0.0928;-0.8176;
70.2000;0.0920;-0.8199;
70.5000;0.0847;-0.8335;
70.8000;0.0904;-0.8199;
71.1000;0.0847;-0.8267;
71.4000;0.1018;-0.7769;
71.7000;0.0895;-0.8018;
72.0000;0.0928;-0.8018;
72.3000;0.0863;-0.8244;
72.6000;0.0895;-0.8154;
72.9000;0.0871;-0.8312;
73.2000;0.0904;-0.8290;
73.5000;0.0912;-0.8222;
73.8000;0.0920;-0.8154;
74.1000;0.0928;-0.8131;
74.4000;0.0904;-0.8154;
74.7000;0.0920;-0.8108;
75.0000;0.0904;-0.8154;
75.3000;0.0977;-0.8018;
75.6000;0.0912;-0.8176;
75.9000;0.0920;-0.8018;
76.2000;0.0895;-0.8108;
76.5000;0.0879;-0.8131;
76.8000;0.0895;-0.8108;
77.1000;0.0904;-0.8154;
77.4000;0.0830;-0.8358;
77.7000;0.0871;-0.8222;
78.0000;0.0904;-0.8131;
78.3000;0.0912;-0.8040;
78.6000;0.0855;-0.8222;
78.9000;0.0912;-0.8063;
79.2000;0.0920;-0.8018;
79.5000;0.0879;-0.8131;
79.8000;0.0895;-0.8108;
80.1000;0.0879;-0.8222;
80.4000;0.0887;-0.8176;
80.7000;0.0928;-0.8063;
81.0000;0.0912;-0.8086;
81.3000;0.0920;-0.8063;
81.6000;0.0912;-0.8131;
81.9000;0.0895;-0.8063;
82.2000;0.0838;-0.8290;
82.5000;0.0887;-0.8199;
82.8000;0.0895;-0.8312;
83.1000;0.0912;-0.8267;
83.4000;0.0961;-0.8131;
83.7000;0.0928;-0.8244;
84.0000;0.0928;-0.8222;
84.3000;0.0887;-0.8267;
84.6000;0.0920;-0.8199;
84.9000;0.0912;-0.8222;
85.2000;0.0887;-0.8267;
85.5000;0.0904;-0.8244;
85.8000;0.0928;-0.8131;
86.1000;0.0928;-0.8086;
86.4000;0.0895;-0.8154;
86.7000;0.0887;-0.8267;
87.0000;0.0863;-0.8290;
87.3000;0.0895;-0.8290;
87.6000;0.0928;-0.8199;
87.9000;0.0887;-0.8267;
88.2000;0.0904;-0.8154;
88.5000;0.0928;-0.8154;
88.8000;0.0904;-0.8199;
89.1000;0.0871;-0.8176;
89.4000;0.0895;-0.8108;
89.7000;0.0895;-0.8154;
90.0000;0.0830;-0.8312;
90.3000;0.0879;-0.8176;
90.6000;0.0912;-0.8199;
90.9000;0.0912;-0.8176;
91.2000;0.0920;-0.8154;
91.5000;0.0920;-0.8267;
91.8000;0.0920;-0.8290;
92.1000;0.0904;-0.8335;
92.4000;0.0904;-0.8403;
92.7000;0.0912;-0.8425;
93.0000;0.0920;-0.8312;
93.3000;0.0912;-0.8335;
93.6000;0.0912;-0.8290;
93.9000;0.0912;-0.8312;
94.2000;0.0912;-0.8403;
94.5000;0.0912;-0.8267;
94.8000;0.0887;-0.8244;
95.1000;0.0904;-0.8108;
95.4000;0.0822;-0.8244;
95.7000;0.0863;-0.8040;
96.0000;0.0887;-0.8063;
96.3000;0.0944;-0.7950;
96.6000;0.0920;-0.7995;
96.9000;0.0887;-0.7995;
97.2000;0.0920;-0.7972;
97.5000;0.0871;-0.8108;
97.8000;0.0895;-0.7995;
98.1000;0.0920;-0.8018;
98.4000;0.0912;-0.7995;
98.7000;0.0912;-0.8018;
99.0000;0.1034;-0.7723;
99.3000;0.0887;-0.8108;
99.6000;0.0887;-0.8176;
99.9000;0.0928;-0.8108;
100.2000;0.0895;-0.8108;
100.5000;0.0871;-0.8222;
100.8000;0.0912;-0.8040;
101.1000;0.0969;-0.7859;
101.4000;0.0895;-0.8086;
101.7000;0.0912;-0.8040;
102.0000;0.0920;-0.8063;
102.3000;0.0887;-0.8063;
102.6000;0.0887;-0.8040;
102.9000;0.0904;-0.7995;
103.2000;0.0920;-0.7950;
103.5000;0.1009;-0.7678;
103.8000;0.0920;-0.7882;
104.1000;0.0887;-0.7882;
104.4000;0.0904;-0.7927;
104.7000;0.0936;-0.7972;
105.0000;0.0895;-0.7972;
105.3000;0.0944;-0.7859;
105.6000;0.0944;-0.7927;
105.9000;0.0912;-0.8040;
106.2000;0.0920;-0.8040;
106.5000;0.0830;-0.8267;
106.8000;0.0887;-0.8086;
107.1000;0.0904;-0.7995;
107.4000;0.0912;-0.7950;
107.7000;0.0977;-0.7859;
108.0000;0.0920;-0.8086;
108.3000;0.0920;-0.8108;
108.6000;0.0904;-0.8108;
108.9000;0.0920;-0.8086;
109.2000;0.0928;-0.7995;
109.5000;0.0912;-0.7995;
109.8000;0.0920;-0.7950;
110.1000;0.0912;-0.8040;
110.4000;0.0887;-0.8222;
110.7000;0.0912;-0.8108;
111.0000;0.0912;-0.8244;
111.3000;0.0912;-0.8244;
111.6000;0.0912;-0.8335;
111.9000;0.0895;-0.8403;
112.2000;0.0895;-0.8471;
112.5000;0.0952;-0.8199;
112.8000;0.0904;-0.8199;
113.1000;0.0904;-0.8131;
113.4000;0.0904;-0.8131;
113.7000;0.0895;-0.8086;
114.0000;0.0879;-0.8063;
114.3000;0.0969;-0.7927;
114.6000;0.0912;-0.8018;
114.9000;0.0977;-0.7791;
115.2000;0.0912;-0.8040;
115.5000;0.0863;-0.8108;
115.8000;0.0895;-0.8040;
116.1000;0.0887;-0.8063;
116.4000;0.0855;-0.8176;
116.7000;0.0920;-0.8108;
117.0000;0.0952;-0.8131;
117.3000;0.0895;-0.8290;
117.6000;0.0920;-0.8312;
117.9000;0.0895;-0.8290;
118.2000;0.0855;-0.8358;
118.5000;0.0904;-0.8199;
118.8000;0.0904;-0.8222;
119.1000;0.0912;-0.8244;
119.4000;0.0895;-0.8312;
119.7000;0.0912;-0.8222;
120.0000;0.0879;-0.8312;
120.3000;0.0912;-0.8290;
120.6000;0.0887;-0.8380;
120.9000;0.0830;-0.8516;
121.2000;0.0871;-0.8335;
121.5000;0.0887;-0.8358;
121.8000;0.0887;-0.8312;
122.1000;0.0895;-0.8290;
122.4000;0.0806;-0.8448;
122.7000;0.0912;-0.8176;
123.0000;0.0904;-0.8176;
123.3000;0.0912;-0.8154;
123.6000;0.0912;-0.8176;
123.9000;0.0904;-0.8222;
124.2000;0.0904;-0.8312;
124.5000;0.0904;-0.8290;
124.8000;0.0879;-0.8312;
125.1000;0.0977;-0.8086;
125.4000;0.0944;-0.8154;
125.7000;0.0879;-0.8335;
126.0000;0.0904;-0.8335;
126.3000;0.0895;-0.8267;
126.6000;0.0928;-0.8108;
126.9000;0.0985;-0.8040;
127.2000;0.0928;-0.8154;
127.5000;0.0920;-0.8199;
127.8000;0.0920;-0.8222;
128.1000;0.0887;-0.8290;
128.4000;0.0904;-0.8267;
128.7000;0.0912;-0.8199;
129.0000;0.0912;-0.8131;
129.3000;0.0920;-0.8176;
129.6000;0.0879;-0.8244;
129.9000;0.0904;-0.8154;
130.2000;0.0936;-0.8108;
130.5000;0.0944;-0.8040;
130.8000;0.0928;-0.8131;
131.1000;0.0912;-0.8199;
131.4000;0.0887;-0.8267;
131.7000;0.0904;-0.8176;
132.0000;0.0936;-0.8131;
132.3000;0.0944;-0.8131;
132.6000;0.0887;-0.8335;
132.9000;0.0936;-0.8222;
133.2000;0.0904;-0.8290;
133.5000;0.0904;-0.8358;
133.8000;0.0904;-0.8290;
134.1000;0.0912;-0.8290;
134.4000;0.0904;-0.8267;
134.7000;0.0928;-0.8267;
135.0000;0.0879;-0.8312;
135.3000;0.0952;-0.8063;
135.6000;0.0912;-0.8199;
135.9000;0.0830;-0.8425;
136.2000;0.0847;-0.8539;
136.5000;0.0887;-0.8403;
136.8000;0.0904;-0.8403;
137.1000;0.0895;-0.8380;
137.4000;0.0936;-0.8199;
137.7000;0.0912;-0.8176;
138.0000;0.0920;-0.8108;
138.3000;0.0920;-0.8086;
138.6000;0.0928;-0.8063;
138.9000;0.0863;-0.8222;
139.2000;0.0920;-0.8131;
139.5000;0.0879;-0.8267;
139.8000;0.0928;-0.8086;
140.1000;0.0895;-0.8108;
140.4000;0.0879;-0.8267;
140.7000;0.0895;-0.8222;
141.0000;0.0961;-0.8131;
141.3000;0.0912;-0.8222;
141.6000;0.0887;-0.8222;
141.9000;0.0912;-0.8176;
142.2000;0.0912;-0.8199;
142.5000;0.0952;-0.8086;
142.8000;0.0895;-0.8222;
143.1000;0.0895;-0.8244;
143.4000;0.0838;-0.8358;
143.7000;0.0912;-0.8154;
144.0000;0.0887;-0.8222;
144.3000;0.0822;-0.8380;
144.6000;0.0847;-0.8335;
144.9000;0.0863;-0.8312;
145.2000;0.0912;-0.8199;
145.5000;0.0904;-0.8222;
145.8000;0.0920;-0.8176;
146.1000;0.0887;-0.8222;
146.4000;0.0855;-0.8312;
146.7000;0.0912;-0.8086;
147.0000;0.0822;-0.8358;
147.3000;0.0895;-0.8222;
147.6000;0.0904;-0.8290;
147.9000;0.0830;-0.8539;
148.2000;0.0920;-0.8335;
148.5000;0.0904;-0.8425;
148.8000;0.0904;-0.8448;
149.1000;0.0961;-0.8244;
149.4000;0.0912;-0.8403;
149.7000;0.0912;-0.8493;
150.0000;0.0895;-0.8425;
150.3000;0.0855;-0.8584;
150.6000;0.0928;-0.8403;
150.9000;0.0928;-0.8312;
151.2000;0.0904;-0.8358;
151.5000;0.0920;-0.8267;
151.8000;0.0904;-0.8312;
152.1000;0.0912;-0.8312;
152.4000;0.0895;-0.8267;
152.7000;0.0912;-0.8154;
153.0000;0.0871;-0.8244;
153.3000;0.0920;-0.8108;
153.6000;0.0944;-0.8040;
153.9000;0.0895;-0.8176;
154.2000;0.0904;-0.8199;
154.5000;0.0912;-0.8176;
154.8000;0.0912;-0.8131;
155.1000;0.0895;-0.8290;
155.4000;0.0912;-0.8222;
155.7000;0.0920;-0.8131;
156.0000;0.0879;-0.8222;
156.3000;0.0904;-0.8086;
156.6000;0.0879;-0.8040;
156.9000;0.0904;-0.8086;
157.2000;0.0904;-0.8063;
157.5000;0.0912;-0.8040;
157.8000;0.0928;-0.8040;
158.1000;0.0895;-0.8131;
158.4000;0.0855;-0.8244;
158.7000;0.0912;-0.8108;
159.0000;0.0887;-0.8131;
159.3000;0.0814;-0.8425;
159.6000;0.0920;-0.8154;
159.9000;0.0904;-0.8267;
160.2000;0.0904;-0.8267;
160.5000;0.0838;-0.8448;
160.8000;0.0944;-0.8154;
161.1000;0.0904;-0.8154;
161.4000;0.0920;-0.8176;
161.7000;0.0912;-0.8108;
162.0000;0.0887;-0.8086;
162.3000;0.0904;-0.8018;
162.6000;0.0895;-0.8108;
162.9000;0.0912;-0.8131;
163.2000;0.0936;-0.8154;
163.5000;0.0904;-0.8222;
163.8000;0.0952;-0.8199;
164.1000;0.0912;-0.8290;
164.4000;0.0887;-0.8358;
164.7000;0.0912;-0.8312;
165.0000;0.0912;-0.8267;
165.3000;0.0920;-0.8244;
165.6000;0.0904;-0.8199;
165.9000;0.0904;-0.8154;
166.2000;0.0920;-0.8108;
166.5000;0.0904;-0.8199;
166.8000;0.0904;-0.8176;
167.1000;0.0912;-0.8131;
167.4000;0.0773;-0.8448;
167.7000;0.0887;-0.8267;
168.0000;0.0806;-0.8516;
168.3000;0.0838;-0.8448;
168.6000;0.0936;-0.8244;
168.9000;0.0920;-0.8267;
169.2000;0.0904;-0.8335;
169.5000;0.0879;-0.8425;
169.8000;0.0895;-0.8380;
170.1000;0.0838;-0.8425;
170.4000;0.0895;-0.8244;
170.7000;0.0895;-0.8335;
171.0000;0.0904;-0.8199;
171.3000;0.0912;-0.8154;
171.6000;0.0936;-0.8086;
171.9000;0.0920;-0.8199;
172.2000;0.0928;-0.8199;
172.5000;0.0887;-0.8335;
172.8000;0.0920;-0.8290;
173.1000;0.0879;-0.8425;
173.4000;0.0855;-0.8493;
173.7000;0.0912;-0.8199;
174.0000;0.0912;-0.8267;
174.3000;0.0904;-0.8222;
174.6000;0.0920;-0.8222;
174.9000;0.0920;-0.8222;
175.2000;0.0895;-0.8176;
175.5000;0.0920;-0.8131;
175.8000;0.0912;-0.8131;
176.1000;0.0912;-0.8154;
176.4000;0.0887;-0.8267;
176.7000;0.0985;-0.8018;
177.0000;0.0871;-0.8335;
177.3000;0.0895;-0.8358;
177.6000;0.0904;-0.8425;
177.9000;0.0912;-0.8335;
178.2000;0.0871;-0.8380;
178.5000;0.0920;-0.8244;
178.8000;0.0904;-0.8154;
179.1000;0.0912;-0.8199;
179.4000;0.0944;-0.8222;
179.7000;0.0920;-0.8380;
180.0000;0.0912;-0.8312;
180.3000;0.0904;-0.8267;
180.6000;0.0904;-0.8290;
180.9000;0.0912;-0.8244;
181.2000;0.0887;-0.8312;
181.5000;0.0912;-0.8154;
181.8000;0.0928;-0.8131;
182.1000;0.0920;-0.8131;
182.4000;0.0879;-0.8290;
182.7000;0.0912;-0.8199;
183.0000;0.0912;-0.8244;
183.3000;0.0904;-0.8244;
183.6000;0.0895;-0.8358;
183.9000;0.0855;-0.8516;
184.2000;0.0904;-0.8448;
184.5000;0.0928;-0.8448;
184.8000;0.0887;-0.8493;
185.1000;0.0879;-0.8516;
185.4000;0.0912;-0.8493;
185.7000;0.0895;-0.8561;
186.0000;0.0920;-0.8493;
186.3000;0.0920;-0.8403;
186.6000;0.0879;-0.8380;
186.9000;0.0895;-0.8380;
187.2000;0.0879;-0.8290;
187.5000;0.0904;-0.8267;
187.8000;0.0904;-0.8267;
188.1000;0.0920;-0.8176;
188.4000;0.0936;-0.8108;
188.7000;0.0904;-0.8131;
189.0000;0.0912;-0.8063;
189.3000;0.0904;-0.8154;
189.6000;0.0928;-0.8131;
189.9000;0.0904;-0.8222;
190.2000;0.0920;-0.8267;
190.5000;0.0912;-0.8154;
190.8000;0.0920;-0.8086;
191.1000;0.0895;-0.8086;
191.4000;0.0912;-0.7995;
191.7000;0.0920;-0.7972;
192.0000;0.0936;-0.8086;
192.3000;0.0977;-0.8018;
192.6000;0.0904;-0.8267;
192.9000;0.0969;-0.8086;
193.2000;0.0904;-0.8290;
193.5000;0.0912;-0.8199;
193.8000;0.0912;-0.8086;
194.1000;0.0928;-0.8154;
194.4000;0.0904;-0.8267;
194.7000;0.0912;-0.8312;
195.0000;0.0928;-0.8199;
195.3000;0.0920;-0.8154;
195.6000;0.0928;-0.8108;
195.9000;0.0855;-0.8358;
196.2000;0.0904;-0.8290;
196.5000;0.0904;-0.8312;
196.8000;0.0904;-0.8380;
197.1000;0.0855;-0.8425;
197.4000;0.0904;-0.8290;
197.7000;0.0928;-0.8267;
198.0000;0.0928;-0.8199;
198.3000;0.0936;-0.8199;
198.6000;0.0879;-0.8290;
198.9000;0.0912;-0.8222;
199.2000;0.0912;-0.8222;
199.5000;0.0879;-0.8448;
199.8000;0.0895;-0.8403;
200.1000;0.0912;-0.8290;
200.4000;0.0920;-0.8312;
200.7000;0.0936;-0.8244;
201.0000;0.0895;-0.8335;
201.3000;0.0879;-0.8358;
201.6000;0.0847;-0.8471;
201.9000;0.0920;-0.8335;
202.2000;0.0863;-0.8425;
202.5000;0.0912;-0.8358;
202.8000;0.0928;-0.8222;
203.1000;0.0936;-0.8176;
203.4000;0.0920;-0.8108;
203.7000;0.0895;-0.8222;
204.0000;0.0879;-0.8244;
204.3000;0.1074;-0.7769;
204.6000;0.0887;-0.8222;
204.9000;0.0936;-0.8176;
205.2000;0.0887;-0.8312;
205.5000;0.0920;-0.8199;
205.8000;0.0887;-0.8312;
206.1000;0.0904;-0.8335;
206.4000;0.0904;-0.8312;
206.7000;0.0912;-0.8312;
207.0000;0.0895;-0.8267;
207.3000;0.0822;-0.8539;
207.6000;0.0904;-0.8448;
207.9000;0.0985;-0.8244;
208.2000;0.0961;-0.8358;
208.5000;0.0928;-0.8516;
208.8000;0.0798;-0.8810;
209.1000;0.0871;-0.8493;
209.4000;0.0912;-0.8380;
209.7000;0.0887;-0.8403;
210.0000;0.0895;-0.8425;
210.3000;0.0895;-0.8425;
210.6000;0.0920;-0.8358;
210.9000;0.0928;-0.8290;
211.2000;0.0912;-0.8403;
211.5000;0.0904;-0.8403;
211.8000;0.0904;-0.8403;
212.1000;0.0904;-0.8358;
212.4000;0.0904;-0.8290;
212.7000;0.0895;-0.8267;
213.0000;0.0887;-0.8290;
213.3000;0.0830;-0.8493;
213.6000;0.0936;-0.8222;
213.9000;0.0920;-0.8267;
214.2000;0.0920;-0.8244;
214.5000;0.0838;-0.8539;
214.8000;0.0912;-0.8380;
215.1000;0.0904;-0.8425;
215.4000;0.1042;-0.8086;
215.7000;0.0928;-0.8358;
216.0000;0.0944;-0.8335;
216.3000;0.0912;-0.8290;
216.6000;0.0879;-0.8312;
216.9000;0.0952;-0.8154;
217.2000;0.0863;-0.8403;
217.5000;0.0912;-0.8290;
217.8000;0.0887;-0.8312;
218.1000;0.0920;-0.8244;
218.4000;0.0895;-0.8335;
218.7000;0.0904;-0.8290;
219.0000;0.0920;-0.8222;
219.3000;0.0920;-0.8358;
219.6000;0.0928;-0.8312;
219.9000;0.0830;-0.8584;
220.2000;0.0904;-0.8380;
220.5000;0.0928;-0.8335;
220.8000;0.0920;-0.8312;
221.1000;0.0887;-0.8290;
221.4000;0.0871;-0.8380;
221.7000;0.0887;-0.8312;
222.0000;0.0887;-0.8335;
222.3000;0.0895;-0.8358;
222.6000;0.0879;-0.8493;
222.9000;0.0887;-0.8493;
223.2000;0.0741;-0.8788;
223.5000;0.1001;-0.8040;
223.8000;0.0912;-0.8403;
224.1000;0.0912;-0.8380;
224.4000;0.0928;-0.8403;
224.7000;0.0993;-0.8222;
225.0000;0.0895;-0.8380;
225.3000;0.0904;-0.8267;
225.6000;0.0855;-0.8448;
225.9000;0.0912;-0.8222;
226.2000;0.0879;-0.8290;
226.5000;0.0895;-0.8244;
226.8000;0.0895;-0.8244;
227.1000;0.0912;-0.8222;
227.4000;0.0904;-0.8199;
227.7000;0.0879;-0.8335;
228.0000;0.0887;-0.8335;
228.3000;0.0904;-0.8335;
228.6000;0.0936;-0.8222;
228.9000;0.0920;-0.8244;
229.2000;0.0969;-0.8063;
229.5000;0.0895;-0.8222;
229.8000;0.0912;-0.8244;
230.1000;0.0920;-0.8312;
230.4000;0.0904;-0.8380;
230.7000;0.0887;-0.8403;
231.0000;0.0847;-0.8448;
231.3000;0.0895;-0.8290;
231.6000;0.0895;-0.8290;
231.9000;0.1009;-0.8063;
232.2000;0.0887;-0.8358;
232.5000;0.0855;-0.8539;
232.8000;0.0871;-0.8448;
233.1000;0.0871;-0.8403;
233.4000;0.0814;-0.8561;
233.7000;0.0895;-0.8335;
234.0000;0.0904;-0.8290;
234.3000;0.0936;-0.8312;
234.6000;0.0855;-0.8516;
234.9000;0.0904;-0.8471;
235.2000;0.0928;-0.8425;
235.5000;0.0822;-0.8629;
235.8000;0.0985;-0.8290;
236.1000;0.0879;-0.8539;
236.4000;0.0830;-0.8675;
236.7000;0.0814;-0.8675;
237.0000;0.0936;-0.8380;
237.3000;0.0887;-0.8425;
237.6000;0.0895;-0.8448;
237.9000;0.0928;-0.8199;
238.2000;0.0920;-0.8199;
238.5000;0.0847;-0.8380;
238.8000;0.0830;-0.8516;
239.1000;0.0895;-0.8267;
239.4000;0.0944;-0.8199;
239.7000;0.0912;-0.8267;
240.0000;0.0952;-0.8199;
240.3000;0.0830;-0.8493;
240.6000;0.0895;-0.8222;
240.9000;0.0904;-0.8267;
241.2000;0.0912;-0.8154;
241.5000;0.0773;-0.8425;
241.8000;0.0920;-0.8176;
242.1000;0.0838;-0.8312;
242.4000;0.0871;-0.8290;
242.7000;0.0928;-0.8131;
243.0000;0.0855;-0.8222;
243.3000;0.0895;-0.8108;
243.6000;0.0920;-0.8086;
243.9000;0.0920;-0.8018;
244.2000;0.0895;-0.8086;
244.5000;0.0904;-0.8086;
244.8000;0.0912;-0.7995;
245.1000;0.0944;-0.7927;
245.4000;0.0887;-0.7972;
245.7000;0.0912;-0.7972;
246.0000;0.0912;-0.8040;
246.3000;0.0912;-0.7995;
246.6000;0.0879;-0.8131;
246.9000;0.0895;-0.8108;
247.2000;0.0887;-0.8063;
247.5000;0.0847;-0.8154;
247.8000;0.0895;-0.7995;
248.1000;0.0895;-0.7972;
248.4000;0.0920;-0.7927;
248.7000;0.0904;-0.7995;
249.0000;0.0895;-0.8063;
249.3000;0.0928;-0.7927;
249.6000;0.0904;-0.8018;
249.9000;0.0928;-0.8040;
250.2000;0.0936;-0.8040;
250.5000;0.0912;-0.8108;
250.8000;0.0879;-0.8131;
251.1000;0.0863;-0.8040;
251.4000;0.0912;-0.7950;
251.7000;0.0904;-0.7950;
252.0000;0.0887;-0.7995;
252.3000;0.0879;-0.8018;
252.6000;0.0904;-0.8018;
252.9000;0.0887;-0.8018;
253.2000;0.0887;-0.8086;
253.5000;0.0936;-0.7995;
253.8000;0.0912;-0.8086;
254.1000;0.0952;-0.7950;
254.4000;0.0977;-0.7882;
254.7000;0.0920;-0.7995;
255.0000;0.0871;-0.8108;
255.3000;0.0920;-0.7927;
255.6000;0.0928;-0.7950;
255.9000;0.0855;-0.8063;
256.2000;0.0936;-0.7905;
256.5000;0.0895;-0.7972;
256.8000;0.0895;-0.7927;
257.1000;0.0904;-0.7905;
257.4000;0.0879;-0.7905;
257.7000;0.0895;-0.7927;
258.0000;0.0920;-0.7859;
258.3000;0.0895;-0.7927;
258.6000;0.0855;-0.7995;
258.9000;0.0936;-0.7791;
259.2000;0.0863;-0.7972;
259.5000;0.0895;-0.8018;
259.8000;0.0871;-0.8108;
260.1000;0.0871;-0.8063;
260.4000;0.0944;-0.7859;
260.7000;0.0985;-0.7723;
261.0000;0.0904;-0.8018;
261.3000;0.0920;-0.8040;
261.6000;0.0912;-0.8108;
261.9000;0.0912;-0.8063;
262.2000;0.0895;-0.8131;
262.5000;0.0887;-0.8108;
262.8000;0.0895;-0.8086;
263.1000;0.0863;-0.8199;
263.4000;0.0904;-0.8131;
263.7000;0.0912;-0.8108;
264.0000;0.0912;-0.8063;
264.3000;0.0936;-0.7950;
264.6000;0.0920;-0.7972;
264.9000;0.0895;-0.8086;
265.2000;0.0806;-0.8267;
265.5000;0.0944;-0.7995;
265.8000;0.0904;-0.8154;
266.1000;0.0920;-0.8086;
266.4000;0.0895;-0.8199;
266.7000;0.0879;-0.8267;
267.0000;0.0895;-0.8199;
267.3000;0.0920;-0.8108;
267.6000;0.0912;-0.8131;
267.9000;0.0895;-0.8063;
268.2000;0.0912;-0.8063;
268.5000;0.0879;-0.8199;
268.8000;0.0887;-0.8176;
269.1000;0.0928;-0.8086;
269.4000;0.0887;-0.8108;
269.7000;0.0977;-0.7972;
270.0000;0.0904;-0.8176;
270.3000;0.0895;-0.8108;
270.6000;0.0920;-0.8086;
270.9000;0.0920;-0.8176;
271.2000;0.0977;-0.8018;
271.5000;0.0904;-0.8244;
271.8000;0.0912;-0.8176;
272.1000;0.0863;-0.8244;
272.4000;0.0879;-0.8154;
272.7000;0.0912;-0.8086;
273.0000;0.0912;-0.8063;
273.3000;0.0912;-0.8086;
273.6000;0.0928;-0.8040;
273.9000;0.0895;-0.8108;
274.2000;0.0912;-0.8131;
274.5000;0.0912;-0.8086;
274.8000;0.0912;-0.8063;
275.1000;0.0912;-0.8222;
275.4000;0.0936;-0.8154;
275.7000;0.0920;-0.8131;
276.0000;0.0961;-0.8040;
276.3000;0.0879;-0.8176;
276.6000;0.0904;-0.8063;
276.9000;0.0879;-0.8154;
277.2000;0.0879;-0.8131;
277.5000;0.0855;-0.8131;
277.8000;0.0855;-0.8154;
278.1000;0.0904;-0.8086;
278.4000;0.0936;-0.7950;
278.7000;0.0895;-0.8018;
279.0000;0.0822;-0.8335;
279.3000;0.0912;-0.8108;
279.6000;0.0895;-0.8154;
279.9000;0.0887;-0.8290;
280.2000;0.0904;-0.8290;
280.5000;0.0912;-0.8131;
280.8000;0.0928;-0.8131;
281.1000;0.0993;-0.7972;
281.4000;0.0912;-0.8199;
281.7000;0.0904;-0.8131;
282.0000;0.0895;-0.8154;
282.3000;0.0920;-0.8086;
282.6000;0.0814;-0.8335;
282.9000;0.0912;-0.8086;
283.2000;0.0855;-0.8176;
283.5000;0.0904;-0.8040;
283.8000;0.0879;-0.8063;
284.1000;0.0928;-0.7950;
284.4000;0.0920;-0.8018;
284.7000;0.0912;-0.7995;
285.0000;0.0928;-0.8040;
285.3000;0.0904;-0.8131;
285.6000;0.0928;-0.8086;
285.9000;0.0920;-0.8154;
286.2000;0.0887;-0.8222;
286.5000;0.0904;-0.8154;
286.8000;0.0790;-0.8425;
287.1000;0.0863;-0.8290;
287.4000;0.0879;-0.8176;
287.7000;0.0920;-0.8040;
288.0000;0.0977;-0.7859;
288.3000;0.0936;-0.7950;
288.6000;0.0912;-0.8040;
288.9000;0.0928;-0.7950;
289.2000;0.0855;-0.8063;
289.5000;0.0952;-0.7905;
289.8000;0.0912;-0.7972;
290.1000;0.0969;-0.7814;
290.4000;0.0928;-0.8018;
290.7000;0.0928;-0.8018;
291.0000;0.0912;-0.8154;
291.3000;0.0912;-0.8063;
291.6000;0.0904;-0.8063;
291.9000;0.0847;-0.8176;
292.2000;0.0920;-0.8063;
292.5000;0.0904;-0.8154;
292.8000;0.0912;-0.8131;
293.1000;0.0912;-0.8154;
293.4000;0.0904;-0.8222;
293.7000;0.0838;-0.8380;
294.0000;0.0920;-0.8086;
294.3000;0.0928;-0.8086;
294.6000;0.0895;-0.8154;
294.9000;0.0904;-0.8176;
295.2000;0.0895;-0.8131;
295.5000;0.0887;-0.8108;
295.8000;0.0928;-0.8040;
296.1000;0.0895;-0.8131;
296.4000;0.0838;-0.8267;
296.7000;0.0879;-0.8267;
297.0000;0.0961;-0.8108;
297.3000;0.0912;-0.8267;
297.6000;0.0887;-0.8335;
297.9000;0.0863;-0.8403;
298.2000;0.0887;-0.8312;
298.5000;0.0863;-0.8335;
298.8000;0.0814;-0.8425;
299.1000;0.0887;-0.8267;
299.4000;0.0928;-0.8154;
299.7000;0.0904;-0.8244;
300.0000;0.0887;-0.8380;
300.3000;0.0887;-0.8403;
300.6000;0.0887;-0.8448;
300.9000;0.0920;-0.8403;
301.2000;0.0895;-0.8516;
301.5000;0.0936;-0.8335;
301.8000;0.0887;-0.8425;
302.1000;0.0920;-0.8380;
302.4000;0.0904;-0.8358;
302.7000;0.0895;-0.8358;
303.0000;0.0879;-0.8380;
303.3000;0.0928;-0.8176;
303.6000;0.0887;-0.8290;
303.9000;0.0887;-0.8290;
304.2000;0.0887;-0.8312;
304.5000;0.0912;-0.8290;
304.8000;0.0920;-0.8267;
305.1000;0.0920;-0.8154;
305.4000;0.0895;-0.8335;
305.7000;0.0920;-0.8290;
306.0000;0.0904;-0.8267;
306.3000;0.0920;-0.8312;
306.6000;0.0961;-0.8131;
306.9000;0.0912;-0.8290;
307.2000;0.0904;-0.8244;
307.5000;0.0847;-0.8425;
307.8000;0.0928;-0.8290;
308.1000;0.0879;-0.8358;
308.4000;0.0904;-0.8267;
308.7000;0.0863;-0.8380;
309.0000;0.0863;-0.8425;
309.3000;0.0887;-0.8358;
309.6000;0.0944;-0.8244;
309.9000;0.0887;-0.8380;
310.2000;0.0977;-0.8086;
310.5000;0.0920;-0.8244;
310.8000;0.0920;-0.8222;
311.1000;0.0887;-0.8380;
311.4000;0.0814;-0.8561;
311.7000;0.0895;-0.8267;
312.0000;0.0879;-0.8312;
312.3000;0.0904;-0.8267;
312.6000;0.0855;-0.8335;
312.9000;0.0887;-0.8312;
313.2000;0.0920;-0.8335;
313.5000;0.0806;-0.8471;
313.8000;0.0887;-0.8290;
314.1000;0.0904;-0.8267;
314.4000;0.0879;-0.8267;
314.7000;0.0977;-0.8063;
315.0000;0.0912;-0.8199;
315.3000;0.0904;-0.8267;
315.6000;0.0904;-0.8290;
315.9000;0.0928;-0.8244;
316.2000;0.0912;-0.8290;
316.5000;0.0969;-0.8222;
316.8000;0.0928;-0.8358;
317.1000;0.0887;-0.8516;
317.4000;0.0904;-0.8561;
317.7000;0.0928;-0.8516;
318.0000;0.0879;-0.8607;
318.3000;0.0936;-0.8584;
318.6000;0.0887;-0.8652;
318.9000;0.0912;-0.8539;
319.2000;0.0822;-0.8765;
319.5000;0.0895;-0.8425;
319.8000;0.0895;-0.8425;
320.1000;0.0871;-0.8471;
320.4000;0.0895;-0.8561;
320.7000;0.0912;-0.8516;
321.0000;0.0879;-0.8584;
321.3000;0.0912;-0.8516;
321.6000;0.0920;-0.8425;
321.9000;0.0912;-0.8448;
322.2000;0.0871;-0.8516;
322.5000;0.0904;-0.8471;
322.8000;0.0887;-0.8471;
323.1000;0.0879;-0.8493;
323.4000;0.0912;-0.8448;
323.7000;0.0895;-0.8561;
324.0000;0.0904;-0.8584;
324.3000;0.0920;-0.8561;
324.6000;0.0895;-0.8629;
324.9000;0.0952;-0.8448;
325.2000;0.0928;-0.8448;
325.5000;0.0944;-0.8448;
325.8000;0.0912;-0.8539;
326.1000;0.0928;-0.8493;
326.4000;0.0904;-0.8539;
326.7000;0.0887;-0.8561;
327.0000;0.0912;-0.8471;
327.3000;0.1058;-0.8108;
327.6000;0.0871;-0.8516;
327.9000;0.0879;-0.8493;
328.2000;0.0912;-0.8448;
328.5000;0.0895;-0.8561;
328.8000;0.1026;-0.8222;
329.1000;0.0814;-0.8675;
329.4000;0.0912;-0.8335;
329.7000;0.0895;-0.8448;
330.0000;0.0912;-0.8358;
330.3000;0.0895;-0.8358;
330.6000;0.0895;-0.8380;
330.9000;0.0887;-0.8358;
331.2000;0.0895;-0.8380;
331.5000;0.0961;-0.8131;
331.8000;0.0887;-0.8290;
332.1000;0.0904;-0.8267;
332.4000;0.0806;-0.8403;
332.7000;0.0920;-0.8108;
333.0000;0.0904;-0.8222;
333.3000;0.0936;-0.8312;
333.6000;0.0985;-0.8176;
333.9000;0.0920;-0.8335;
334.2000;0.0912;-0.8290;
334.5000;0.0912;-0.8358;
334.8000;0.0928;-0.8380;
335.1000;0.1034;-0.8086;
335.4000;0.0912;-0.8358;
335.7000;0.0920;-0.8358;
336.0000;0.0879;-0.8335;
336.3000;0.0904;-0.8312;
336.6000;0.0895;-0.8290;
336.9000;0.0871;-0.8358;
337.2000;0.0879;-0.8335;
337.5000;0.0904;-0.8267;
337.8000;0.0920;-0.8290;
338.1000;0.0936;-0.8312;
338.4000;0.0895;-0.8403;
338.7000;0.0936;-0.8267;
339.0000;0.0904;-0.8312;
339.3000;0.0936;-0.8290;
339.6000;0.0887;-0.8448;
339.9000;0.0912;-0.8312;
340.2000;0.0912;-0.8335;
340.5000;0.0895;-0.8380;
340.8000;0.0887;-0.8448;
341.1000;0.0904;-0.8403;
341.4000;0.0912;-0.8290;
341.7000;0.0920;-0.8222;
342.0000;0.0920;-0.8154;
342.3000;0.0904;-0.8176;
342.6000;0.0912;-0.8131;
342.9000;0.0912;-0.8086;
343.2000;0.0904;-0.8063;
343.5000;0.0895;-0.8154;
343.8000;0.0904;-0.8176;
344.1000;0.0838;-0.8290;
344.4000;0.0895;-0.8244;
344.7000;0.0920;-0.8131;
345.0000;0.0904;-0.8154;
345.3000;0.1042;-0.7927;
345.6000;0.0912;-0.8267;
345.9000;0.0895;-0.8312;
346.2000;0.0871;-0.8335;
346.5000;0.0904;-0.8222;
346.8000;0.0944;-0.8131;
347.1000;0.0904;-0.8290;
347.4000;0.0895;-0.8312;
347.7000;0.0904;-0.8335;
348.0000;0.0879;-0.8471;
348.3000;0.0904;-0.8403;
348.6000;0.0912;-0.8358;
348.9000;0.0912;-0.8312;
349.2000;0.0936;-0.8267;
349.5000;0.0961;-0.8176;
349.8000;0.1018;-0.8131;
350.1000;0.0920;-0.8403;
350.4000;0.0920;-0.8358;
350.7000;0.0952;-0.8335;
351.0000;0.0887;-0.8448;
351.3000;0.0912;-0.8425;
351.6000;0.0855;-0.8471;
351.9000;0.0904;-0.8312;
352.2000;0.0790;-0.8584;
352.5000;0.0863;-0.8358;
352.8000;0.0895;-0.8403;
353.1000;0.0887;-0.8403;
353.4000;0.0887;-0.8448;
353.7000;0.0895;-0.8403;
354.0000;0.0904;-0.8448;
354.3000;0.0895;-0.8516;
354.6000;0.0920;-0.8448;
354.9000;0.0912;-0.8448;
355.2000;0.0920;-0.8471;
355.5000;0.0952;-0.8425;
355.8000;0.0912;-0.8471;
356.1000;0.0855;-0.8561;
356.4000;0.0879;-0.8607;
356.7000;0.0904;-0.8493;
357.0000;0.0912;-0.8493;
357.3000;0.0863;-0.8516;
357.6000;0.0871;-0.8516;
357.9000;0.0895;-0.8425;
358.2000;0.0879;-0.8448;
358.5000;0.0920;-0.8312;
358.8000;0.0879;-0.8403;
359.1000;0.0904;-0.8335;
359.4000;0.0928;-0.8290;
359.7000;0.0920;-0.8267;
360.0000;0.0912;-0.8312;
360.3000;0.0895;-0.8358;
360.6000;0.0912;-0.8335;
360.9000;0.0895;-0.8380;
361.2000;0.0887;-0.8471;
361.5000;0.0912;-0.8471;
361.8000;0.0936;-0.8403;
362.1000;0.0887;-0.8425;
362.4000;0.0879;-0.8425;
362.7000;0.0920;-0.8380;
363.0000;0.0904;-0.8403;
363.3000;0.0895;-0.8471;
363.6000;0.0944;-0.8403;
363.9000;0.0895;-0.8539;
364.2000;0.0904;-0.8516;
364.5000;0.0920;-0.8493;
364.8000;0.0920;-0.8403;
365.1000;0.0912;-0.8358;
365.4000;0.0920;-0.8244;
365.7000;0.0920;-0.8267;
366.0000;0.0936;-0.8244;
366.3000;0.0912;-0.8199;
366.6000;0.0904;-0.8154;
366.9000;0.0904;-0.8222;
367.2000;0.0936;-0.8063;
367.5000;0.0895;-0.8267;
367.8000;0.0895;-0.8199;
368.1000;0.0904;-0.8199;
368.4000;0.0944;-0.8176;
368.7000;0.0895;-0.8312;
369.0000;0.0904;-0.8335;
369.3000;0.0928;-0.8244;
369.6000;0.0920;-0.8244;
369.9000;0.0879;-0.8267;
370.2000;0.0895;-0.8267;
370.5000;0.0912;-0.8244;
370.8000;0.0904;-0.8312;
371.1000;0.0912;-0.8312;
371.4000;0.0928;-0.8335;
371.7000;0.0928;-0.8312;
372.0000;0.0928;-0.8335;
372.3000;0.0961;-0.8244;
372.6000;0.0912;-0.8267;
372.9000;0.0887;-0.8403;
373.2000;0.0912;-0.8290;
373.5000;0.0944;-0.8222;
373.8000;0.0887;-0.8380;
374.1000;0.0912;-0.8222;
374.4000;0.0871;-0.8244;
374.7000;0.0920;-0.8222;
375.0000;0.0920;-0.8335;
375.3000;0.0912;-0.8380;
375.6000;0.0814;-0.8652;
375.9000;0.0912;-0.8358;
376.2000;0.0887;-0.8425;
376.5000;0.0871;-0.8425;
376.8000;0.0904;-0.8290;
377.1000;0.0871;-0.8380;
377.4000;0.0847;-0.8380;
377.7000;0.0895;-0.8176;
378.0000;0.0904;-0.8222;
378.3000;0.0904;-0.8222;
378.6000;0.0920;-0.8222;
378.9000;0.0904;-0.8244;
379.2000;0.0993;-0.7972;
379.5000;0.1009;-0.7950;
379.8000;0.0920;-0.8222;
380.1000;0.0920;-0.8267;
380.4000;0.0904;-0.8244;
380.7000;0.0920;-0.8222;
381.0000;0.0912;-0.8267;
381.3000;0.0895;-0.8380;
381.6000;0.0904;-0.8380;
381.9000;0.0904;-0.8403;
382.2000;0.0969;-0.8312;
382.5000;0.0912;-0.8425;
382.8000;0.0904;-0.8584;
383.1000;0.0912;-0.8629;
383.4000;0.0904;-0.8765;
383.7000;0.0928;-0.8652;
384.0000;0.0904;-0.8561;
384.3000;0.0920;-0.8471;
384.6000;0.0904;-0.8448;
384.9000;0.0895;-0.8493;
385.2000;0.0895;-0.8539;
385.5000;0.0936;-0.8471;
385.8000;0.0936;-0.8516;
386.1000;0.0912;-0.8516;
386.4000;0.0928;-0.8493;
386.7000;0.0871;-0.8584;
387.0000;0.0904;-0.8516;
387.3000;0.0765;-0.8878;
387.6000;0.0904;-0.8471;
387.9000;0.0887;-0.8493;
388.2000;0.0855;-0.8493;
388.5000;0.0895;-0.8358;
388.8000;0.0904;-0.8403;
389.1000;0.0920;-0.8335;
389.4000;0.0887;-0.8335;
389.7000;0.0904;-0.8335;
390.0000;0.0920;-0.8335;
390.3000;0.0912;-0.8335;
390.6000;0.0904;-0.8244;
390.9000;0.0904;-0.8222;
391.2000;0.0985;-0.7950;
391.5000;0.0887;-0.8199;
391.8000;0.0920;-0.8199;
392.1000;0.0904;-0.8244;
392.4000;0.0814;-0.8607;
392.7000;0.0912;-0.8380;
393.0000;0.0895;-0.8380;
393.3000;0.0879;-0.8380;
393.6000;0.0928;-0.8222;
393.9000;0.0904;-0.8222;
394.2000;0.0887;-0.8267;
394.5000;0.0887;-0.8335;
394.8000;0.0928;-0.8199;
395.1000;0.0895;-0.8199;
395.4000;0.0912;-0.8244;
395.7000;0.0904;-0.8312;
396.0000;0.0928;-0.8199;
396.3000;0.0912;-0.8267;
396.6000;0.0887;-0.8312;
396.9000;0.0904;-0.8267;
397.2000;0.0912;-0.8335;
397.5000;0.0855;-0.8448;
397.8000;0.0879;-0.8380;
398.1000;0.0887;-0.8448;
398.4000;0.0895;-0.8448;
398.7000;0.0912;-0.8403;
399.0000;0.0904;-0.8448;
399.3000;0.0928;-0.8448;
399.6000;0.0879;-0.8561;
399.9000;0.0912;-0.8561;
400.2000;0.0912;-0.8471;
400.5000;0.0895;-0.8471;
400.8000;0.0855;-0.8516;
401.1000;0.1034;-0.8086;
401.4000;0.0912;-0.8358;
401.7000;0.0904;-0.8380;
402.0000;0.0895;-0.8335;
402.3000;0.0920;-0.8380;
402.6000;0.0920;-0.8516;
402.9000;0.0847;-0.8743;
403.2000;0.0904;-0.8471;
403.5000;0.0904;-0.8471;
403.8000;0.0920;-0.8425;
404.1000;0.0895;-0.8403;
404.4000;0.0920;-0.8267;
404.7000;0.0904;-0.8358;
405.0000;0.0936;-0.8358;
405.3000;0.0912;-0.8335;
405.6000;0.0895;-0.8471;
405.9000;0.0887;-0.8425;
406.2000;0.0871;-0.8471;
406.5000;0.0944;-0.8290;
406.8000;0.0904;-0.8335;
407.1000;0.0936;-0.8244;
407.4000;0.0887;-0.8358;
407.7000;0.0822;-0.8561;
408.0000;0.0895;-0.8312;
408.3000;0.0879;-0.8403;
408.6000;0.0863;-0.8471;
408.9000;0.0912;-0.8335;
409.2000;0.0920;-0.8335;
409.5000;0.0838;-0.8584;
409.8000;0.0912;-0.8425;
410.1000;0.1009;-0.8267;
410.4000;0.0904;-0.8425;
410.7000;0.0773;-0.8765;
411.0000;0.0895;-0.8539;
411.3000;0.0912;-0.8584;
411.6000;0.0920;-0.8561;
411.9000;0.0920;-0.8516;
412.2000;0.0936;-0.8493;
412.5000;0.0912;-0.8607;
412.8000;0.0936;-0.8448;
413.1000;0.0928;-0.8471;
413.4000;0.0904;-0.8516;
413.7000;0.0904;-0.8493;
414.0000;0.0920;-0.8471;
414.3000;0.0912;-0.8471;
414.6000;0.0920;-0.8471;
414.9000;0.0887;-0.8539;
415.2000;0.0944;-0.8425;
415.5000;0.0904;-0.8448;
415.8000;0.0879;-0.8493;
416.1000;0.0912;-0.8425;
416.4000;0.0822;-0.8629;
416.7000;0.0904;-0.8425;
417.0000;0.0904;-0.8471;
417.3000;0.0961;-0.8244;
417.6000;0.0887;-0.8380;
417.9000;0.0887;-0.8403;
418.2000;0.0904;-0.8380;
418.5000;0.0838;-0.8516;
418.8000;0.0895;-0.8335;
419.1000;0.0904;-0.8335;
419.4000;0.0944;-0.8222;
419.7000;0.0895;-0.8335;
420.0000;0.0822;-0.8516;
420.3000;0.0920;-0.8222;
420.6000;0.0912;-0.8290;
420.9000;0.0920;-0.8267;
421.2000;0.0838;-0.8493;
421.5000;0.0920;-0.8312;
421.8000;0.0887;-0.8403;
422.1000;0.0871;-0.8516;
422.4000;0.0912;-0.8403;
422.7000;0.0895;-0.8403;
423.0000;0.0871;-0.8493;
423.3000;0.0895;-0.8335;
423.6000;0.0969;-0.8176;
423.9000;0.0912;-0.8335;
424.2000;0.0936;-0.8358;
424.5000;0.0969;-0.8358;
424.8000;0.0773;-0.8765;
425.1000;0.0887;-0.8471;
425.4000;0.0887;-0.8493;
425.7000;0.0887;-0.8403;
426.0000;0.0904;-0.8380;
426.3000;0.0887;-0.8448;
426.6000;0.1034;-0.8086;
426.9000;0.0855;-0.8493;
427.2000;0.0904;-0.8403;
427.5000;0.0920;-0.8380;
427.8000;0.0912;-0.8380;
428.1000;0.0904;-0.8244;
428.4000;0.0887;-0.8244;
428.7000;0.0895;-0.8222;
429.0000;0.0887;-0.8154;
429.3000;0.0920;-0.8108;
429.6000;0.0985;-0.8018;
429.9000;0.0895;-0.8222;
430.2000;0.0879;-0.8244;
430.5000;0.0985;-0.8040;
430.8000;0.0871;-0.8335;
431.1000;0.0887;-0.8380;
431.4000;0.0904;-0.8380;
431.7000;0.0871;-0.8493;
432.0000;0.0920;-0.8403;
432.3000;0.0871;-0.8448;
432.6000;0.0830;-0.8516;
432.9000;0.0904;-0.8290;
433.2000;0.0904;-0.8267;
433.5000;0.0871;-0.8335;
433.8000;0.0904;-0.8154;
434.1000;0.0904;-0.8131;
434.4000;0.0936;-0.8108;
434.7000;0.0838;-0.8358;
435.0000;0.0904;-0.8131;
435.3000;0.1018;-0.7859;
435.6000;0.0887;-0.8222;
435.9000;0.0904;-0.8244;
436.2000;0.0887;-0.8267;
436.5000;0.0920;-0.8154;
436.8000;0.0904;-0.8154;
437.1000;0.0977;-0.8040;
437.4000;0.0904;-0.8244;
437.7000;0.0879;-0.8335;
438.0000;0.0887;-0.8267;
438.3000;0.0887;-0.8335;
438.6000;0.0904;-0.8335;
438.9000;0.0871;-0.8493;
439.2000;0.0904;-0.8403;
439.5000;0.0961;-0.8267;
439.8000;0.0904;-0.8425;
440.1000;0.0912;-0.8403;
440.4000;0.0863;-0.8471;
440.7000;0.0912;-0.8358;
441.0000;0.0928;-0.8380;
441.3000;0.0920;-0.8403;
441.6000;0.0887;-0.8312;
441.9000;0.0904;-0.8199;
442.2000;0.0895;-0.8312;
442.5000;0.0855;-0.8312;
442.8000;0.1034;-0.7905;
443.1000;0.0871;-0.8312;
443.4000;0.0895;-0.8267;
443.7000;0.0912;-0.8176;
444.0000;0.0904;-0.8131;
444.3000;0.0912;-0.8108;
444.6000;0.0920;-0.8131;
444.9000;0.0912;-0.8131;
445.2000;0.0887;-0.8199;
445.5000;0.0887;-0.8290;
445.8000;0.0912;-0.8244;
446.1000;0.0879;-0.8312;
446.4000;0.0838;-0.8425;
446.7000;0.0887;-0.8403;
447.0000;0.0879;-0.8335;
447.3000;0.0871;-0.8312;
447.6000;0.1091;-0.7814;
447.9000;0.0912;-0.8267;
448.2000;0.0863;-0.8335;
448.5000;0.0985;-0.8108;
448.8000;0.0871;-0.8403;
449.1000;0.0871;-0.8380;
449.4000;0.0847;-0.8516;
449.7000;0.0944;-0.8358;
450.0000;0.0928;-0.8312;
450.3000;0.0904;-0.8403;
450.6000;0.0936;-0.8380;
450.9000;0.0928;-0.8403;
451.2000;0.0920;-0.8448;
451.5000;0.0863;-0.8561;
451.8000;0.0904;-0.8425;
452.1000;0.0887;-0.8493;
452.4000;0.0887;-0.8425;
452.7000;0.0879;-0.8493;
453.0000;0.0920;-0.8335;
453.3000;0.0895;-0.8448;
453.6000;0.0912;-0.8448;
453.9000;0.0895;-0.8358;
454.2000;0.0961;-0.8222;
454.5000;0.0912;-0.8380;
454.8000;0.0887;-0.8448;
455.1000;0.0928;-0.8312;
455.4000;0.0920;-0.8267;
455.7000;0.0920;-0.8290;
456.0000;0.0920;-0.8290;
456.3000;0.0944;-0.8244;
456.6000;0.0904;-0.8403;
456.9000;0.0912;-0.8448;
457.2000;0.0969;-0.8267;
457.5000;0.0920;-0.8290;
457.8000;0.0936;-0.8267;
458.1000;0.0928;-0.8335;
458.4000;0.0904;-0.8403;
458.7000;0.0904;-0.8176;
459.0000;0.0904;-0.8222;
459.3000;0.0912;-0.8154;
459.6000;0.0904;-0.8199;
459.9000;0.0920;-0.8154;
460.2000;0.0871;-0.8244;
460.5000;0.0920;-0.8176;
460.8000;0.0928;-0.8131;
461.1000;0.0912;-0.8222;
461.4000;0.0830;-0.8448;
461.7000;0.0904;-0.8312;
462.0000;0.0904;-0.8290;
462.3000;0.1156;-0.7723;
462.6000;0.0895;-0.8380;
462.9000;0.0985;-0.8154;
463.2000;0.0928;-0.8244;
463.5000;0.0985;-0.8131;
463.8000;0.0887;-0.8335;
464.1000;0.0928;-0.8199;
464.4000;0.0887;-0.8335;
464.7000;0.0928;-0.8244;
465.0000;0.0928;-0.8244;
465.3000;0.0928;-0.8108;
465.6000;0.0912;-0.8199;
465.9000;0.0895;-0.8176;
466.2000;0.0879;-0.8222;
466.5000;0.0871;-0.8244;
466.8000;0.0904;-0.8154;
467.1000;0.1001;-0.7927;
467.4000;0.0944;-0.8040;
467.7000;0.0912;-0.8086;
468.0000;0.0904;-0.8086;
468.3000;0.0904;-0.8086;
468.6000;0.0879;-0.8154;
468.9000;0.0887;-0.8199;
469.2000;0.0920;-0.8154;
469.5000;0.0928;-0.8108;
469.8000;0.0904;-0.8290;
470.1000;0.0928;-0.8267;
470.4000;0.0904;-0.8312;
470.7000;0.0863;-0.8380;
471.0000;0.0904;-0.8312;
471.3000;0.0912;-0.8403;
471.6000;0.0904;-0.8335;
471.9000;0.0895;-0.8290;
472.2000;0.0904;-0.8312;
472.5000;0.0920;-0.8267;
472.8000;0.0895;-0.8358;
473.1000;0.0895;-0.8290;
473.4000;0.0920;-0.8290;
473.7000;0.0838;-0.8516;
474.0000;0.0912;-0.8380;
474.3000;0.0895;-0.8493;
474.6000;0.0912;-0.8335;
474.9000;0.0895;-0.8267;
475.2000;0.0944;-0.8154;
475.5000;0.0879;-0.8335;
475.8000;0.0895;-0.8358;
476.1000;0.0912;-0.8199;
476.4000;0.0887;-0.8312;
476.7000;0.0920;-0.8290;
477.0000;0.0887;-0.8380;
477.3000;0.0895;-0.8335;
477.6000;0.0904;-0.8290;
477.9000;0.0895;-0.8335;
478.2000;0.0879;-0.8358;
478.5000;0.0936;-0.8290;
478.8000;0.0920;-0.8335;
479.1000;0.0920;-0.8335;
479.4000;0.0798;-0.8675;
479.7000;0.0895;-0.8471;
480.0000;0.0920;-0.8425;
480.3000;0.1018;-0.8108;
480.6000;0.0928;-0.8380;
480.9000;0.0895;-0.8493;
481.2000;0.0985;-0.8358;
481.5000;0.0920;-0.8471;
481.8000;0.0887;-0.8516;
482.1000;0.0920;-0.8471;
482.4000;0.0895;-0.8493;
482.7000;0.0904;-0.8335;
483.0000;0.0895;-0.8335;
483.3000;0.0920;-0.8290;
483.6000;0.0904;-0.8290;
483.9000;0.0895;-0.8267;
484.2000;0.0912;-0.8176;
484.5000;0.0904;-0.8244;
484.8000;0.0928;-0.8176;
485.1000;0.0944;-0.8154;
485.4000;0.0863;-0.8358;
485.7000;0.0904;-0.8176;
486.0000;0.0847;-0.8335;
486.3000;0.0985;-0.8018;
486.6000;0.0904;-0.8222;
486.9000;0.0912;-0.8222;
487.2000;0.0912;-0.8222;
487.5000;0.0961;-0.8040;
487.8000;0.0969;-0.8018;
488.1000;0.0887;-0.8222;
488.4000;0.0887;-0.8222;
488.7000;0.0904;-0.8199;
489.0000;0.0912;-0.8222;
489.3000;0.0985;-0.8086;
489.6000;0.0920;-0.8199;
489.9000;0.0920;-0.8222;
490.2000;0.0952;-0.8154;
490.5000;0.0895;-0.8199;
490.8000;0.0912;-0.8154;
491.1000;0.0920;-0.8199;
491.4000;0.0904;-0.8222;
491.7000;0.0912;-0.8267;
492.0000;0.0904;-0.8222;
492.3000;0.0912;-0.8199;
492.6000;0.0847;-0.8358;
492.9000;0.0887;-0.8290;
493.2000;0.0871;-0.8448;
493.5000;0.0879;-0.8471;
493.8000;0.0895;-0.8539;
494.1000;0.0847;-0.8697;
494.4000;0.0920;-0.8471;
494.7000;0.0904;-0.8493;
495.0000;0.0912;-0.8403;
495.3000;0.0904;-0.8493;
495.6000;0.0912;-0.8425;
495.9000;0.0887;-0.8425;
496.2000;0.0920;-0.8358;
496.5000;0.0912;-0.8493;
496.8000;0.0895;-0.8516;
497.1000;0.0895;-0.8493;
497.4000;0.0912;-0.8425;
497.7000;0.0887;-0.8425;
498.0000;0.0912;-0.8312;
498.3000;0.0928;-0.8244;
498.6000;0.0887;-0.8335;
498.9000;0.0904;-0.8380;
499.2000;0.0912;-0.8312;
499.5000;0.0895;-0.8425;
499.8000;0.0904;-0.8380;
500.1000;0.0871;-0.8471;
500.4000;0.0912;-0.8425;
500.7000;0.0895;-0.8425;
501.0000;0.0904;-0.8403;
501.3000;0.0936;-0.8312;
501.6000;0.0912;-0.8312;
501.9000;0.0920;-0.8335;
502.2000;0.0895;-0.8267;
502.5000;0.0912;-0.8244;
502.8000;0.0887;-0.8358;
503.1000;0.0928;-0.8290;
503.4000;0.0790;-0.8561;
503.7000;0.0920;-0.8267;
504.0000;0.0912;-0.8290;
504.3000;0.0855;-0.8471;
504.6000;0.0912;-0.8335;
504.9000;0.0895;-0.8425;
505.2000;0.0895;-0.8471;
505.5000;0.0912;-0.8471;
505.8000;0.0912;-0.8403;
506.1000;0.0904;-0.8403;
506.4000;0.0887;-0.8380;
506.7000;0.0936;-0.8312;
507.0000;0.0904;-0.8290;
507.3000;0.0912;-0.8244;
507.6000;0.0871;-0.8358;
507.9000;0.0879;-0.8290;
508.2000;0.0912;-0.8244;
508.5000;0.0724;-0.8697;
508.8000;0.0920;-0.8222;
509.1000;0.0904;-0.8244;
509.4000;0.0879;-0.8312;
509.7000;0.0912;-0.8290;
510.0000;0.0814;-0.8561;
510.3000;0.0847;-0.8448;
510.6000;0.0879;-0.8380;
510.9000;0.0895;-0.8312;
511.2000;0.0855;-0.8358;
511.5000;0.1001;-0.7995;
511.8000;0.0969;-0.8108;
512.1000;0.0928;-0.8267;
512.4000;0.0904;-0.8290;
512.7000;0.0904;-0.8176;
513.0000;0.0895;-0.8108;
513.3000;0.0920;-0.8063;
513.6000;0.0920;-0.8108;
513.9000;0.0887;-0.8176;
514.2000;0.0920;-0.8176;
514.5000;0.0920;-0.8244;
514.8000;0.0912;-0.8244;
515.1000;0.0895;-0.8199;
515.4000;0.0904;-0.8244;
515.7000;0.0904;-0.8290;
516.0000;0.0863;-0.8358;
516.3000;0.0912;-0.8222;
516.6000;0.0895;-0.8222;
516.9000;0.0904;-0.8131;
517.2000;0.0928;-0.7950;
517.5000;0.0904;-0.8040;
517.8000;0.0969;-0.7972;
518.1000;0.0961;-0.8040;
518.4000;0.0887;-0.8176;
518.7000;0.0887;-0.8267;
519.0000;0.0895;-0.8335;
519.3000;0.0944;-0.8063;
519.6000;0.0904;-0.8176;
519.9000;0.0904;-0.8222;
520.2000;0.0806;-0.8471;
520.5000;0.0928;-0.8267;
520.8000;0.0952;-0.8290;
521.1000;0.0904;-0.8425;
521.4000;0.0944;-0.8312;
521.7000;0.0904;-0.8403;
522.0000;0.0863;-0.8403;
522.3000;0.0887;-0.8222;
522.6000;0.0904;-0.8154;
522.9000;0.0871;-0.8244;
523.2000;0.0928;-0.8018;
523.5000;0.0912;-0.8040;
523.8000;0.0920;-0.8063;
524.1000;0.0838;-0.8290;
524.4000;0.0928;-0.8063;
524.7000;0.0936;-0.8086;
525.0000;0.0912;-0.8108;
525.3000;0.0887;-0.8267;
525.6000;0.0920;-0.8131;
525.9000;0.0977;-0.8063;
526.2000;0.0961;-0.8040;
526.5000;0.0904;-0.8199;
526.8000;0.0912;-0.8222;
527.1000;0.0912;-0.8244;
527.4000;0.0961;-0.8086;
527.7000;0.0887;-0.8176;
528.0000;0.0952;-0.8018;
528.3000;0.0879;-0.8290;
528.6000;0.0920;-0.8176;
528.9000;0.0887;-0.8244;
529.2000;0.0895;-0.8176;
529.5000;0.0895;-0.8176;
529.8000;0.0904;-0.8154;
530.1000;0.0895;-0.8086;
530.4000;0.0912;-0.7972;
530.7000;0.0855;-0.8108;
531.0000;0.0936;-0.7859;
531.3000;0.0920;-0.7882;
531.6000;0.0904;-0.7927;
531.9000;0.0912;-0.7950;
532.2000;0.0895;-0.8131;
532.5000;0.0912;-0.8199;
532.8000;0.0895;-0.8244;
533.1000;0.0887;-0.8199;
533.4000;0.0920;-0.8154;
533.7000;0.0904;-0.8267;
534.0000;0.0879;-0.8267;
534.3000;0.0912;-0.8199;
534.6000;0.0936;-0.8063;
534.9000;0.0879;-0.8131;
535.2000;0.0920;-0.7995;
535.5000;0.0904;-0.7905;
535.8000;0.0895;-0.7927;
536.1000;0.0912;-0.7950;
536.4000;0.0928;-0.7905;
536.7000;0.0904;-0.8040;
537.0000;0.0879;-0.8063;
537.3000;0.0879;-0.8108;
537.6000;0.0985;-0.7882;
537.9000;0.0904;-0.8176;
538.2000;0.0879;-0.8199;
538.5000;0.0920;-0.8199;
538.8000;0.0920;-0.8244;
539.1000;0.0936;-0.8222;
539.4000;0.0887;-0.8358;
539.7000;0.0895;-0.8358;
540.0000;0.0912;-0.8335;
540.3000;0.0904;-0.8403;
540.6000;0.0904;-0.8425;
540.9000;0.0920;-0.8358;
541.2000;0.0920;-0.8222;
541.5000;0.0920;-0.8290;
541.8000;0.0871;-0.8403;
542.1000;0.0822;-0.8652;
542.4000;0.1009;-0.8176;
542.7000;0.0855;-0.8493;
543.0000;0.0904;-0.8335;
543.3000;0.0904;-0.8244;
543.6000;0.0977;-0.8108;
543.9000;0.0920;-0.8199;
544.2000;0.0936;-0.8199;
544.5000;0.0912;-0.8425;
544.8000;0.0912;-0.8403;
545.1000;0.0912;-0.8403;
545.4000;0.0912;-0.8425;
545.7000;0.0928;-0.8358;
546.0000;0.0912;-0.8380;
546.3000;0.0952;-0.8312;
546.6000;0.0920;-0.8380;
546.9000;0.0912;-0.8358;
547.2000;0.0895;-0.8425;
547.5000;0.0904;-0.8403;
547.8000;0.0887;-0.8425;
548.1000;0.0920;-0.8403;
548.4000;0.0912;-0.8493;
548.7000;0.0912;-0.8493;
549.0000;0.0928;-0.8448;
549.3000;0.0912;-0.8471;
549.6000;0.0904;-0.8403;
549.9000;0.0912;-0.8290;
550.2000;0.0887;-0.8244;
550.5000;0.0904;-0.8176;
550.8000;0.0920;-0.8131;
551.1000;0.0928;-0.8108;
551.4000;0.0904;-0.8244;
551.7000;0.0904;-0.8312;
552.0000;0.0887;-0.8335;
552.3000;0.0912;-0.8267;
552.6000;0.0887;-0.8335;
552.9000;0.0830;-0.8358;
553.2000;0.0879;-0.8267;
553.5000;0.0887;-0.8335;
553.8000;0.0912;-0.8267;
554.1000;0.0847;-0.8448;
554.4000;0.0887;-0.8267;
554.7000;0.0920;-0.8154;
555.0000;0.0944;-0.8040;
555.3000;0.0944;-0.8018;
555.6000;0.0895;-0.8063;
555.9000;0.0977;-0.7905;
556.2000;0.0920;-0.8040;
556.5000;0.0863;-0.8222;
556.8000;0.0912;-0.8040;
557.1000;0.0912;-0.7995;
557.4000;0.0895;-0.7972;
557.7000;0.0912;-0.7995;
558.0000;0.0895;-0.8063;
558.3000;0.0863;-0.8108;
558.6000;0.0814;-0.8290;
558.9000;0.0952;-0.7972;
559.2000;0.0952;-0.7995;
559.5000;0.0952;-0.8018;
559.8000;0.0920;-0.8108;
560.1000;0.0920;-0.8108;
560.4000;0.0887;-0.8222;
560.7000;0.0895;-0.8290;
561.0000;0.0912;-0.8267;
561.3000;0.0936;-0.8222;
561.6000;0.0969;-0.8131;
561.9000;0.0895;-0.8335;
562.2000;0.0904;-0.8244;
562.5000;0.0944;-0.8154;
562.8000;0.0904;-0.8244;
563.1000;0.0847;-0.8358;
563.4000;0.0798;-0.8471;
563.7000;0.0814;-0.8380;
564.0000;0.0895;-0.8154;
564.3000;0.0928;-0.8063;
564.6000;0.0977;-0.7791;
564.9000;0.0920;-0.7950;
565.2000;0.0912;-0.7995;
565.5000;0.0904;-0.8063;
565.8000;0.1066;-0.7701;
566.1000;0.0952;-0.7950;
566.4000;0.1042;-0.7723;
566.7000;0.0912;-0.7995;
567.0000;0.0895;-0.8063;
567.3000;0.0879;-0.8154;
567.6000;0.0895;-0.8063;
567.9000;0.0912;-0.8108;
568.2000;0.0879;-0.8108;
568.5000;0.0904;-0.8176;
568.8000;0.0904;-0.8176;
569.1000;0.0920;-0.8086;
569.4000;0.0895;-0.8108;
569.7000;0.0912;-0.8108;
570.0000;0.0928;-0.8040;
570.3000;0.0936;-0.7927;
570.6000;0.0920;-0.7995;
570.9000;0.0895;-0.8108;
571.2000;0.0952;-0.8018;
571.5000;0.0928;-0.8131;
571.8000;0.0904;-0.8290;
572.1000;0.0920;-0.8244;
572.4000;0.0912;-0.8335;
572.7000;0.0879;-0.8471;
573.0000;0.0912;-0.8290;
573.3000;0.0887;-0.8380;
573.6000;0.0887;-0.8312;
573.9000;0.0920;-0.8131;
574.2000;0.0904;-0.8018;
574.5000;0.0936;-0.7927;
574.8000;0.0895;-0.8040;
575.1000;0.0904;-0.7995;
575.4000;0.0904;-0.8063;
575.7000;0.0895;-0.8086;
576.0000;0.0871;-0.8154;
576.3000;0.0952;-0.8018;
576.6000;0.0887;-0.8154;
576.9000;0.0895;-0.8176;
577.2000;0.0920;-0.8086;
577.5000;0.0879;-0.8131;
577.8000;0.0904;-0.8018;
578.1000;0.0912;-0.7927;
578.4000;0.0944;-0.7950;
578.7000;0.0895;-0.8131;
579.0000;0.0928;-0.8131;
579.3000;0.0904;-0.8176;
579.6000;0.0830;-0.8290;
579.9000;0.0830;-0.8312;
580.2000;0.0920;-0.8086;
580.5000;0.1042;-0.7791;
580.8000;0.0920;-0.8108;
581.1000;0.0887;-0.8131;
581.4000;0.0895;-0.8131;
581.7000;0.0904;-0.8108;
582.0000;0.0855;-0.8176;
582.3000;0.1009;-0.7859;
582.6000;0.0961;-0.8063;
582.9000;0.0904;-0.8176;
583.2000;0.0912;-0.8131;
583.5000;0.0863;-0.8199;
583.8000;0.0895;-0.8154;
584.1000;0.0887;-0.8222;
584.4000;0.0920;-0.8154;
584.7000;0.0928;-0.8154;
585.0000;0.0887;-0.8154;
585.3000;0.0895;-0.8131;
585.6000;0.0928;-0.8131;
585.9000;0.0904;-0.8267;
586.2000;0.0871;-0.8358;
586.5000;0.0887;-0.8358;
586.8000;0.0928;-0.8335;
587.1000;0.0912;-0.8290;
587.4000;0.0936;-0.8222;
587.7000;0.0895;-0.8335;
588.0000;0.0920;-0.8154;
588.3000;0.0895;-0.8222;
588.6000;0.0920;-0.8222;
588.9000;0.0887;-0.8290;
589.2000;0.0879;-0.8244;
589.5000;0.0887;-0.8176;
589.8000;0.0904;-0.8018;
590.1000;0.0879;-0.8063;
590.4000;0.0912;-0.8018;
590.7000;0.0895;-0.8040;
591.0000;0.0895;-0.8040;
591.3000;0.0912;-0.8040;
591.6000;0.0887;-0.8040;
591.9000;0.0904;-0.7995;
592.2000;0.0944;-0.7882;
592.5000;0.0912;-0.8063;
592.8000;0.0887;-0.8131;
593.1000;0.0904;-0.8108;
593.4000;0.0912;-0.8086;
593.7000;0.0904;-0.8176;
594.0000;0.0887;-0.8199;
594.3000;0.0961;-0.8063;
594.6000;0.0928;-0.8131;
594.9000;0.0895;-0.8154;
595.2000;0.1107;-0.7633;
595.5000;0.0912;-0.8063;
595.8000;0.0895;-0.8108;
596.1000;0.0904;-0.8063;
596.4000;0.0985;-0.7882;
596.7000;0.0912;-0.8063;
597.0000;0.0879;-0.8108;
597.3000;0.0920;-0.7995;
597.6000;0.0879;-0.8086;
597.9000;0.0912;-0.8063;
598.2000;0.0985;-0.7837;
598.5000;0.0895;-0.8131;
598.8000;0.0879;-0.8154;
599.1000;0.0895;-0.8154;
599.4000;0.0920;-0.8154;
599.7000;0.0879;-0.8244;
600.0000;0.0895;-0.8108;
600.3000;0.0928;-0.8131;
600.6000;0.0944;-0.8063;
600.9000;0.0904;-0.8244;
601.2000;0.0977;-0.8154;
601.5000;0.0895;-0.8493;
601.8000;0.0887;-0.8584;
602.1000;0.0912;-0.8765;
602.4000;0.0871;-0.8924;
602.7000;0.0806;-0.9128;
603.0000;0.0871;-0.9060;
603.3000;0.0847;-0.9128;
603.6000;0.0855;-0.9082;
603.9000;0.0847;-0.9150;
604.2000;0.0887;-0.9105;
604.5000;0.0757;-0.9490;
604.8000;0.0895;-0.9241;
605.1000;0.0871;-0.9263;
605.4000;0.0838;-0.9309;
605.7000;0.0879;-0.9196;
606.0000;0.0871;-0.9241;
606.3000;0.0822;-0.9399;
606.6000;0.0814;-0.9422;
606.9000;0.0855;-0.9241;
607.2000;0.0838;-0.9263;
607.5000;0.0847;-0.9377;
607.8000;0.0814;-0.9490;
608.1000;0.0798;-0.9535;
608.4000;0.0887;-0.9422;
608.7000;0.0814;-0.9626;
609.0000;0.0814;-0.9513;
609.3000;0.0830;-0.9467;
609.6000;0.0838;-0.9558;
609.9000;0.0814;-0.9581;
610.2000;0.0830;-0.9513;
610.5000;0.0822;-0.9513;
610.8000;0.0806;-0.9626;
611.1000;0.0798;-0.9694;
611.4000;0.0814;-0.9626;
611.7000;0.0830;-0.9581;
612.0000;0.0830;-0.9581;
612.3000;0.0814;-0.9694;
612.6000;0.0781;-0.9784;
612.9000;0.0814;-0.9716;
613.2000;0.0847;-0.9626;
613.5000;0.0830;-0.9603;
613.8000;0.0814;-0.9626;
614.1000;0.0806;-0.9716;
614.4000;0.0798;-0.9739;
614.7000;0.0830;-0.9671;
615.0000;0.0757;-0.9875;
615.3000;0.0855;-0.9603;
615.6000;0.0765;-0.9716;
615.9000;0.0806;-0.9649;
616.2000;0.0814;-0.9513;
616.5000;0.0806;-0.9603;
616.8000;0.0814;-0.9603;
617.1000;0.0806;-0.9626;
617.4000;0.0790;-0.9694;
617.7000;0.0790;-0.9671;
618.0000;0.0781;-0.9716;
618.3000;0.0895;-0.9399;
618.6000;0.0814;-0.9558;
618.9000;0.0749;-0.9649;
619.2000;0.0757;-0.9603;
619.5000;0.0781;-0.9535;
619.8000;0.0830;-0.9467;
620.1000;0.0814;-0.9467;
620.4000;0.0920;-0.9150;
620.7000;0.0806;-0.9445;
621.0000;0.0798;-0.9490;
621.3000;0.0781;-0.9603;
621.6000;0.0830;-0.9490;
621.9000;0.0781;-0.9626;
622.2000;0.0781;-0.9626;
622.5000;0.0790;-0.9535;
622.8000;0.0790;-0.9558;
623.1000;0.0798;-0.9490;
623.4000;0.0757;-0.9558;
623.7000;0.0765;-0.9558;
624.0000;0.0830;-0.9467;
624.3000;0.0757;-0.9558;
624.6000;0.0790;-0.9354;
624.9000;0.0790;-0.9467;
625.2000;0.0765;-0.9581;
625.5000;0.0781;-0.9581;
625.8000;0.0790;-0.9603;
626.1000;0.0822;-0.9535;
626.4000;0.0798;-0.9603;
626.7000;0.0781;-0.9626;
627.0000;0.0798;-0.9581;
627.3000;0.0733;-0.9807;
627.6000;0.0700;-0.9762;
627.9000;0.0773;-0.9558;
628.2000;0.0716;-0.9762;
628.5000;0.0790;-0.9626;
628.8000;0.0838;-0.9513;
629.1000;0.0684;-0.9898;
629.4000;0.0790;-0.9716;
629.7000;0.0773;-0.9784;
630.0000;0.0822;-0.9716;
630.3000;0.0708;-1.0011;
630.6000;0.0790;-0.9762;
630.9000;0.0790;-0.9807;
631.2000;0.0781;-0.9784;
631.5000;0.0781;-0.9762;
631.8000;0.0765;-0.9671;
632.1000;0.0724;-0.9762;
632.4000;0.0798;-0.9558;
632.7000;0.0790;-0.9581;
633.0000;0.0790;-0.9558;
633.3000;0.0773;-0.9558;
633.6000;0.0814;-0.9445;
633.9000;0.0773;-0.9581;
634.2000;0.0798;-0.9490;
634.5000;0.0749;-0.9603;
634.8000;0.0765;-0.9513;
635.1000;0.0708;-0.9603;
635.4000;0.0724;-0.9581;
635.7000;0.0741;-0.9490;
636.0000;0.0757;-0.9467;
636.3000;0.0757;-0.9513;
636.6000;0.0879;-0.9196;
636.9000;0.0781;-0.9467;
637.2000;0.0781;-0.9513;
637.5000;0.0944;-0.9218;
637.8000;0.0773;-0.9671;
638.1000;0.0765;-0.9694;
638.4000;0.0798;-0.9694;
638.7000;0.0741;-0.9875;
639.0000;0.0757;-0.9852;
639.3000;0.0741;-0.9920;
639.6000;0.0757;-0.9784;
639.9000;0.0798;-0.9784;
640.2000;0.0781;-0.9762;
640.5000;0.0773;-0.9762;
640.8000;0.0757;-0.9739;
641.1000;0.0847;-0.9467;
641.4000;0.0781;-0.9626;
641.7000;0.0798;-0.9581;
642.0000;0.0749;-0.9671;
642.3000;0.0773;-0.9649;
642.6000;0.0781;-0.9626;
642.9000;0.0741;-0.9739;
643.2000;0.0749;-0.9739;
643.5000;0.0749;-0.9694;
643.8000;0.0765;-0.9535;
644.1000;0.0790;-0.9467;
644.4000;0.0798;-0.9490;
644.7000;0.0773;-0.9581;
645.0000;0.0798;-0.9513;
645.3000;0.0790;-0.9558;
645.6000;0.0749;-0.9626;
645.9000;0.0790;-0.9581;
646.2000;0.0822;-0.9445;
646.5000;0.0765;-0.9535;
646.8000;0.0790;-0.9535;
647.1000;0.0741;-0.9558;
647.4000;0.0741;-0.9535;
647.7000;0.0733;-0.9513;
648.0000;0.0716;-0.9581;
648.3000;0.0781;-0.9445;
648.6000;0.0773;-0.9513;
648.9000;0.0781;-0.9490;
649.2000;0.0765;-0.9467;
649.5000;0.0749;-0.9445;
649.8000;0.0781;-0.9331;
650.1000;0.0781;-0.9354;
650.4000;0.0773;-0.9377;
650.7000;0.0716;-0.9490;
651.0000;0.0733;-0.9467;
651.3000;0.0781;-0.9331;
651.6000;0.0798;-0.9309;
651.9000;0.0790;-0.9309;
652.2000;0.0733;-0.9422;
652.5000;0.0790;-0.9241;
652.8000;0.0773;-0.9354;
653.1000;0.0757;-0.9422;
653.4000;0.0798;-0.9331;
653.7000;0.0806;-0.9331;
654.0000;0.0765;-0.9467;
654.3000;0.0757;-0.9535;
654.6000;0.0749;-0.9490;
654.9000;0.0773;-0.9445;
655.2000;0.0773;-0.9377;
655.5000;0.0781;-0.9354;
655.8000;0.0814;-0.9309;
656.1000;0.0733;-0.9535;
656.4000;0.0781;-0.9377;
656.7000;0.0863;-0.9196;
657.0000;0.0708;-0.9716;
657.3000;0.0757;-0.9603;
657.6000;0.0741;-0.9603;
657.9000;0.0773;-0.9558;
658.2000;0.0749;-0.9626;
658.5000;0.0814;-0.9490;
658.8000;0.0773;-0.9558;
659.1000;0.0741;-0.9649;
659.4000;0.0651;-0.9898;
659.7000;0.0741;-0.9649;
660.0000;0.0749;-0.9649;
660.3000;0.0773;-0.9649;
660.6000;0.0700;-0.9830;
660.9000;0.0855;-0.9490;
661.2000;0.0733;-0.9739;
661.5000;0.0757;-0.9626;
661.8000;0.0847;-0.9445;
662.1000;0.0757;-0.9694;
662.4000;0.0733;-0.9649;
662.7000;0.0773;-0.9649;
663.0000;0.0749;-0.9626;
663.3000;0.0749;-0.9649;
663.6000;0.0773;-0.9558;
663.9000;0.0749;-0.9581;
664.2000;0.0749;-0.9603;
664.5000;0.0757;-0.9649;
664.8000;0.0757;-0.9649;
665.1000;0.0741;-0.9626;
665.4000;0.0765;-0.9581;
665.7000;0.0765;-0.9649;
666.0000;0.0757;-0.9603;
666.3000;0.0724;-0.9671;
666.6000;0.0773;-0.9535;
666.9000;0.0765;-0.9671;
667.2000;0.0749;-0.9671;
667.5000;0.0733;-0.9649;
667.8000;0.0733;-0.9558;
668.1000;0.0790;-0.9445;
668.4000;0.0749;-0.9490;
668.7000;0.0749;-0.9490;
669.0000;0.0749;-0.9581;
669.3000;0.0676;-0.9830;
669.6000;0.0757;-0.9671;
669.9000;0.0757;-0.9694;
670.2000;0.0733;-0.9739;
670.5000;0.0765;-0.9649;
670.8000;0.0765;-0.9694;
671.1000;0.0708;-0.9852;
671.4000;0.0790;-0.9671;
671.7000;0.0855;-0.9422;
672.0000;0.0749;-0.9694;
672.3000;0.0814;-0.9558;
672.6000;0.0765;-0.9762;
672.9000;0.0749;-0.9830;
673.2000;0.0749;-0.9898;
673.5000;0.0724;-0.9966;
673.8000;0.0757;-0.9875;
674.1000;0.0773;-0.9875;
674.4000;0.0733;-0.9966;
674.7000;0.0757;-0.9898;
675.0000;0.0757;-0.9898;
675.3000;0.0765;-0.9852;
675.6000;0.0757;-0.9875;
675.9000;0.0773;-0.9762;
676.2000;0.0781;-0.9739;
676.5000;0.0741;-0.9852;
676.8000;0.0741;-0.9943;
677.1000;0.0822;-0.9694;
677.4000;0.0847;-0.9626;
677.7000;0.0863;-0.9694;
678.0000;0.0733;-0.9943;
678.3000;0.0741;-0.9784;
678.6000;0.0716;-0.9830;
678.9000;0.0855;-0.9445;
679.2000;0.0684;-0.9784;
679.5000;0.0773;-0.9513;
679.8000;0.0765;-0.9535;
680.1000;0.0724;-0.9671;
680.4000;0.0773;-0.9445;
680.7000;0.0757;-0.9513;
681.0000;0.0724;-0.9581;
681.3000;0.0749;-0.9513;
681.6000;0.0757;-0.9467;
681.9000;0.0757;-0.9422;
682.2000;0.0741;-0.9535;
682.5000;0.0749;-0.9558;
682.8000;0.0749;-0.9581;
683.1000;0.0757;-0.9558;
683.4000;0.0749;-0.9694;
683.7000;0.0749;-0.9671;
684.0000;0.0627;-0.9875;
684.3000;0.0749;-0.9603;
684.6000;0.0749;-0.9603;
684.9000;0.0757;-0.9558;
685.2000;0.0749;-0.9535;
685.5000;0.0749;-0.9490;
685.8000;0.0765;-0.9445;
686.1000;0.0757;-0.9377;
686.4000;0.0757;-0.9399;
686.7000;0.0749;-0.9445;
687.0000;0.0757;-0.9422;
687.3000;0.0741;-0.9558;
687.6000;0.0741;-0.9603;
687.9000;0.0757;-0.9603;
688.2000;0.0781;-0.9581;
688.5000;0.0749;-0.9581;
688.8000;0.0757;-0.9581;
689.1000;0.0741;-0.9603;
689.4000;0.0733;-0.9558;
689.7000;0.0733;-0.9626;
690.0000;0.0741;-0.9581;
690.3000;0.0741;-0.9581;
690.6000;0.0708;-0.9694;
690.9000;0.0765;-0.9513;
691.2000;0.0749;-0.9581;
691.5000;0.0765;-0.9558;
691.8000;0.0757;-0.9603;
692.1000;0.0773;-0.9513;
692.4000;0.0781;-0.9490;
692.7000;0.0757;-0.9558;
693.0000;0.0814;-0.9513;
693.3000;0.0790;-0.9558;
693.6000;0.0765;-0.9649;
693.9000;0.0765;-0.9626;
694.2000;0.0773;-0.9581;
694.5000;0.0773;-0.9535;
694.8000;0.0773;-0.9535;
695.1000;0.0773;-0.9603;
695.4000;0.0741;-0.9671;
695.7000;0.0806;-0.9513;
696.0000;0.0757;-0.9603;
696.3000;0.0781;-0.9581;
696.6000;0.0822;-0.9490;
696.9000;0.0749;-0.9626;
697.2000;0.0741;-0.9716;
697.5000;0.0733;-0.9671;
697.8000;0.0757;-0.9581;
698.1000;0.0757;-0.9535;
698.4000;0.0676;-0.9852;
698.7000;0.0757;-0.9716;
699.0000;0.0684;-0.9830;
699.3000;0.0847;-0.9422;
699.6000;0.0733;-0.9671;
699.9000;0.0733;-0.9762;
700.2000;0.0724;-0.9830;
700.5000;0.0741;-0.9694;
700.8000;0.0708;-0.9762;
701.1000;0.0749;-0.9694;
701.4000;0.0724;-0.9830;
701.7000;0.0749;-0.9716;
702.0000;0.0741;-0.9626;
702.3000;0.0733;-0.9626;
702.6000;0.0773;-0.9513;
702.9000;0.0765;-0.9467;
703.2000;0.0716;-0.9649;
703.5000;0.0765;-0.9513;
703.8000;0.0773;-0.9535;
704.1000;0.0749;-0.9603;
704.4000;0.0733;-0.9649;
704.7000;0.0741;-0.9739;
705.0000;0.0749;-0.9739;
705.3000;0.0741;-0.9784;
705.6000;0.0692;-0.9966;
705.9000;0.0757;-0.9762;
706.2000;0.0773;-0.9739;
706.5000;0.0716;-0.9898;
706.8000;0.0830;-0.9558;
707.1000;0.0733;-0.9852;
707.4000;0.0749;-0.9762;
707.7000;0.0741;-0.9807;
708.0000;0.0757;-0.9762;
708.3000;0.0733;-0.9852;
708.6000;0.0765;-0.9762;
708.9000;0.0741;-0.9830;
709.2000;0.0733;-0.9898;
709.5000;0.0741;-0.9852;
709.8000;0.0757;-0.9694;
710.1000;0.0700;-0.9762;
710.4000;0.0781;-0.9603;
710.7000;0.0733;-0.9603;
711.0000;0.0733;-0.9603;
711.3000;0.0855;-0.9377;
711.6000;0.0724;-0.9762;
711.9000;0.0724;-0.9694;
712.2000;0.0716;-0.9671;
712.5000;0.0741;-0.9558;
712.8000;0.0716;-0.9671;
713.1000;0.0733;-0.9716;
713.4000;0.0798;-0.9467;
713.7000;0.0716;-0.9671;
714.0000;0.0733;-0.9649;
714.3000;0.0757;-0.9649;
714.6000;0.0773;-0.9581;
714.9000;0.0757;-0.9716;
715.2000;0.0724;-0.9807;
715.5000;0.0757;-0.9671;
715.8000;0.0741;-0.9694;
716.1000;0.0781;-0.9558;
716.4000;0.0765;-0.9603;
716.7000;0.0773;-0.9535;
717.0000;0.0757;-0.9603;
717.3000;0.0790;-0.9581;
717.6000;0.0724;-0.9716;
717.9000;0.0757;-0.9671;
718.2000;0.0733;-0.9716;
718.5000;0.0773;-0.9581;
718.8000;0.0741;-0.9626;
719.1000;0.0733;-0.9694;
719.4000;0.0790;-0.9581;
719.7000;0.0798;-0.9581;
720.0000;0.0741;-0.9807;
720.3000;0.0773;-0.9671;
720.6000;0.0708;-0.9920;
720.9000;0.0724;-0.9830;
721.2000;0.0757;-0.9739;
721.5000;0.0692;-0.9898;
721.8000;0.0790;-0.9558;
722.1000;0.0855;-0.9309;
722.4000;0.0741;-0.9581;
722.7000;0.0733;-0.9558;
723.0000;0.0847;-0.9331;
723.3000;0.0676;-0.9807;
723.6000;0.0757;-0.9762;
723.9000;0.0733;-0.9739;
724.2000;0.0700;-0.9852;
724.5000;0.0700;-0.9920;
724.8000;0.0838;-0.9649;
725.1000;0.0684;-0.9875;
725.4000;0.0741;-0.9739;
725.7000;0.0716;-0.9694;
726.0000;0.0773;-0.9535;
726.3000;0.0741;-0.9603;
726.6000;0.0773;-0.9671;
726.9000;0.0741;-0.9694;
727.2000;0.0749;-0.9626;
727.5000;0.0749;-0.9603;
727.8000;0.0757;-0.9490;
728.1000;0.0765;-0.9513;
728.4000;0.0724;-0.9603;
728.7000;0.0716;-0.9626;
729.0000;0.0757;-0.9513;
729.3000;0.0733;-0.9603;
729.6000;0.0724;-0.9694;
729.9000;0.0749;-0.9694;
730.2000;0.0724;-0.9558;
730.5000;0.0724;-0.9535;
730.8000;0.0749;-0.9535;
731.1000;0.0749;-0.9513;
731.4000;0.0700;-0.9581;
731.7000;0.0749;-0.9513;
732.0000;0.0741;-0.9490;
732.3000;0.0733;-0.9513;
732.6000;0.0724;-0.9581;
732.9000;0.0741;-0.9535;
733.2000;0.0757;-0.9535;
733.5000;0.0716;-0.9694;
733.8000;0.0741;-0.9716;
734.1000;0.0749;-0.9626;
734.4000;0.0765;-0.9535;
734.7000;0.0773;-0.9535;
735.0000;0.0741;-0.9581;
735.3000;0.0733;-0.9649;
735.6000;0.0749;-0.9603;
735.9000;0.0757;-0.9626;
736.2000;0.0781;-0.9558;
736.5000;0.0724;-0.9739;
736.8000;0.0757;-0.9626;
737.1000;0.0708;-0.9784;
737.4000;0.0749;-0.9716;
737.7000;0.0749;-0.9694;
738.0000;0.0684;-0.9943;
738.3000;0.0749;-0.9671;
738.6000;0.0749;-0.9581;
738.9000;0.0749;-0.9603;
739.2000;0.0741;-0.9581;
739.5000;0.0716;-0.9626;
739.8000;0.0765;-0.9581;
740.1000;0.0733;-0.9626;
740.4000;0.0757;-0.9535;
740.7000;0.0749;-0.9558;
741.0000;0.0724;-0.9581;
741.3000;0.0635;-0.9716;
741.6000;0.0741;-0.9513;
741.9000;0.0724;-0.9626;
742.2000;0.0773;-0.9603;
742.5000;0.0822;-0.9558;
742.8000;0.0757;-0.9716;
743.1000;0.0724;-0.9807;
743.4000;0.0741;-0.9716;
743.7000;0.0749;-0.9716;
744.0000;0.0619;-0.9988;
744.3000;0.0724;-0.9671;
744.6000;0.0757;-0.9581;
744.9000;0.0749;-0.9626;
745.2000;0.0700;-0.9716;
745.5000;0.0667;-0.9694;
745.8000;0.0765;-0.9603;
746.1000;0.0781;-0.9490;
746.4000;0.0733;-0.9535;
746.7000;0.0806;-0.9377;
747.0000;0.0765;-0.9490;
747.3000;0.0749;-0.9603;
747.6000;0.0741;-0.9626;
747.9000;0.0676;-0.9762;
748.2000;0.0749;-0.9626;
748.5000;0.0692;-0.9739;
748.8000;0.0733;-0.9716;
749.1000;0.0749;-0.9739;
749.4000;0.0757;-0.9671;
749.7000;0.0765;-0.9671;
750.0000;0.0798;-0.9558;
750.3000;0.0724;-0.9694;
750.6000;0.0830;-0.9490;
750.9000;0.0741;-0.9671;
751.2000;0.0741;-0.9716;
751.5000;0.0773;-0.9581;
751.8000;0.0749;-0.9649;
752.1000;0.0757;-0.9671;
752.4000;0.0627;-0.9988;
752.7000;0.0724;-0.9671;
753.0000;0.0692;-0.9671;
753.3000;0.0765;-0.9490;
753.6000;0.0838;-0.9263;
753.9000;0.0733;-0.9445;
754.2000;0.0781;-0.9309;
754.5000;0.0733;-0.9331;
754.8000;0.0733;-0.9331;
755.1000;0.0716;-0.9467;
755.4000;0.0749;-0.9399;
755.7000;0.0724;-0.9422;
756.0000;0.0765;-0.9377;
756.3000;0.0749;-0.9445;
756.6000;0.0741;-0.9399;
756.9000;0.0838;-0.9128;
757.2000;0.0741;-0.9467;
757.5000;0.0724;-0.9535;
757.8000;0.0724;-0.9513;
758.1000;0.0733;-0.9354;
758.4000;0.0790;-0.9286;
758.7000;0.0741;-0.9422;
759.0000;0.0749;-0.9603;
759.3000;0.0741;-0.9649;
759.6000;0.0757;-0.9535;
759.9000;0.0757;-0.9581;
760.2000;0.0667;-0.9739;
760.5000;0.0733;-0.9490;
760.8000;0.0741;-0.9490;
761.1000;0.0822;-0.9241;
761.4000;0.0724;-0.9445;
761.7000;0.0733;-0.9445;
762.0000;0.0724;-0.9490;
762.3000;0.0724;-0.9513;
762.6000;0.0741;-0.9513;
762.9000;0.0733;-0.9535;
763.2000;0.0773;-0.9445;
763.5000;0.0733;-0.9535;
763.8000;0.0733;-0.9490;
764.1000;0.0773;-0.9309;
764.4000;0.0741;-0.9331;
764.7000;0.0716;-0.9445;
765.0000;0.0692;-0.9399;
765.3000;0.0741;-0.9286;
765.6000;0.0724;-0.9377;
765.9000;0.0765;-0.9241;
766.2000;0.0741;-0.9354;
766.5000;0.0814;-0.9218;
766.8000;0.0724;-0.9422;
767.1000;0.0716;-0.9422;
767.4000;0.0806;-0.9241;
767.7000;0.0724;-0.9513;
768.0000;0.0741;-0.9467;
768.3000;0.0733;-0.9445;
768.6000;0.0676;-0.9671;
768.9000;0.0741;-0.9467;
769.2000;0.0733;-0.9467;
769.5000;0.0635;-0.9716;
769.8000;0.0733;-0.9445;
770.1000;0.0830;-0.9173;
770.4000;0.0733;-0.9535;
770.7000;0.0781;-0.9422;
771.0000;0.0773;-0.9535;
771.3000;0.0765;-0.9467;
771.6000;0.0716;-0.9581;
771.9000;0.0822;-0.9286;
772.2000;0.0741;-0.9490;
772.5000;0.0781;-0.9445;
772.8000;0.0781;-0.9399;
773.1000;0.0733;-0.9535;
773.4000;0.0692;-0.9671;
773.7000;0.0733;-0.9535;
774.0000;0.0741;-0.9445;
774.3000;0.0741;-0.9399;
774.6000;0.0692;-0.9422;
774.9000;0.0749;-0.9354;
775.2000;0.0733;-0.9422;
775.5000;0.0741;-0.9490;
775.8000;0.0741;-0.9467;
776.1000;0.0790;-0.9241;
776.4000;0.0781;-0.9173;
776.7000;0.0733;-0.9354;
777.0000;0.0757;-0.9399;
777.3000;0.0741;-0.9467;
777.6000;0.0741;-0.9399;
777.9000;0.0741;-0.9399;
778.2000;0.0749;-0.9399;
778.5000;0.0733;-0.9377;
778.8000;0.0749;-0.9399;
779.1000;0.0757;-0.9377;
779.4000;0.0724;-0.9467;
779.7000;0.0724;-0.9513;
780.0000;0.0741;-0.9467;
780.3000;0.0765;-0.9331;
780.6000;0.0733;-0.9354;
780.9000;0.0757;-0.9241;
781.2000;0.0749;-0.9196;
781.5000;0.0724;-0.9196;
781.8000;0.0741;-0.9309;
782.1000;0.0749;-0.9263;
782.4000;0.0741;-0.9263;
782.7000;0.0741;-0.9241;
783.0000;0.0757;-0.9196;
783.3000;0.0676;-0.9399;
783.6000;0.0741;-0.9331;
783.9000;0.0716;-0.9331;
784.2000;0.0773;-0.9263;
784.5000;0.0708;-0.9445;
784.8000;0.0749;-0.9377;
785.1000;0.0724;-0.9445;
785.4000;0.0700;-0.9513;
785.7000;0.0733;-0.9445;
786.0000;0.0741;-0.9331;
786.3000;0.0716;-0.9331;
786.6000;0.0741;-0.9286;
786.9000;0.0741;-0.9309;
787.2000;0.0716;-0.9399;
787.5000;0.0749;-0.9309;
787.8000;0.0741;-0.9263;
788.1000;0.0733;-0.9309;
788.4000;0.0733;-0.9331;
788.7000;0.0887;-0.8924;
789.0000;0.0765;-0.9309;
789.3000;0.0708;-0.9467;
789.6000;0.0733;-0.9309;
789.9000;0.0765;-0.9173;
790.2000;0.0757;-0.9150;
790.5000;0.0724;-0.9377;
790.8000;0.0676;-0.9490;
791.1000;0.0741;-0.9309;
791.4000;0.0749;-0.9241;
791.7000;0.0684;-0.9422;
792.0000;0.0684;-0.9467;
792.3000;0.0741;-0.9354;
792.6000;0.0741;-0.9399;
792.9000;0.0822;-0.9173;
793.2000;0.0741;-0.9399;
793.5000;0.0741;-0.9445;
793.8000;0.0814;-0.9196;
794.1000;0.0749;-0.9331;
794.4000;0.0716;-0.9422;
794.7000;0.0765;-0.9309;
795.0000;0.0651;-0.9626;
795.3000;0.0765;-0.9309;
795.6000;0.0765;-0.9286;
795.9000;0.0757;-0.9309;
796.2000;0.0724;-0.9377;
796.5000;0.0741;-0.9377;
796.8000;0.0749;-0.9286;
797.1000;0.0741;-0.9286;
797.4000;0.0741;-0.9241;
797.7000;0.0757;-0.9241;
798.0000;0.0716;-0.9331;
798.3000;0.0724;-0.9309;
798.6000;0.0757;-0.9286;
798.9000;0.0741;-0.9422;
799.2000;0.0733;-0.9399;
799.5000;0.0700;-0.9490;
799.8000;0.0724;-0.9445;
800.1000;0.0611;-0.9649;
800.4000;0.0757;-0.9218;
800.7000;0.0855;-0.8924;
801.0000;0.0757;-0.9173;
801.3000;0.0749;-0.9196;
801.6000;0.0749;-0.9173;
801.9000;0.0757;-0.9105;
802.2000;0.0773;-0.9037;
802.5000;0.0773;-0.9082;
802.8000;0.0749;-0.9218;
803.1000;0.0733;-0.9218;
803.4000;0.0733;-0.9150;
803.7000;0.0724;-0.9150;
804.0000;0.0757;-0.9150;
804.3000;0.0781;-0.9105;
804.6000;0.0733;-0.9150;
804.9000;0.0733;-0.9173;
805.2000;0.0741;-0.9218;
805.5000;0.0733;-0.9241;
805.8000;0.0757;-0.9173;
806.1000;0.0733;-0.9196;
806.4000;0.0773;-0.9105;
806.7000;0.0749;-0.9196;
807.0000;0.0806;-0.9037;
807.3000;0.0733;-0.9173;
807.6000;0.0741;-0.9196;
807.9000;0.0741;-0.9196;
808.2000;0.0708;-0.9286;
808.5000;0.0765;-0.9173;
808.8000;0.0724;-0.9218;
809.1000;0.0716;-0.9263;
809.4000;0.0716;-0.9286;
809.7000;0.0692;-0.9263;
810.0000;0.0733;-0.9263;
810.3000;0.0741;-0.9309;
810.6000;0.0765;-0.9218;
810.9000;0.0716;-0.9422;
811.2000;0.0724;-0.9331;
811.5000;0.0773;-0.9150;
811.8000;0.0733;-0.9331;
812.1000;0.0749;-0.9286;
812.4000;0.0749;-0.9309;
812.7000;0.0814;-0.9150;
813.0000;0.0733;-0.9354;
813.3000;0.0741;-0.9377;
813.6000;0.0757;-0.9286;
813.9000;0.0724;-0.9377;
814.2000;0.0716;-0.9490;
814.5000;0.0749;-0.9377;
814.8000;0.0733;-0.9490;
815.1000;0.0822;-0.9263;
815.4000;0.0741;-0.9377;
815.7000;0.0781;-0.9286;
816.0000;0.0781;-0.9399;
816.3000;0.0684;-0.9626;
816.6000;0.0708;-0.9558;
816.9000;0.0790;-0.9354;
817.2000;0.0757;-0.9354;
817.5000;0.0708;-0.9490;
817.8000;0.0765;-0.9309;
818.1000;0.0757;-0.9309;
818.4000;0.0733;-0.9354;
818.7000;0.0749;-0.9331;
819.0000;0.0724;-0.9331;
819.3000;0.0749;-0.9218;
819.6000;0.0741;-0.9263;
819.9000;0.0757;-0.9173;
820.2000;0.0716;-0.9286;
820.5000;0.0741;-0.9196;
820.8000;0.0692;-0.9309;
821.1000;0.0749;-0.9241;
821.4000;0.0749;-0.9263;
821.7000;0.0741;-0.9309;
822.0000;0.0741;-0.9218;
822.3000;0.0708;-0.9377;
822.6000;0.0757;-0.9241;
822.9000;0.0749;-0.9173;
823.2000;0.0733;-0.9196;
823.5000;0.0749;-0.9241;
823.8000;0.0692;-0.9309;
824.1000;0.0733;-0.9173;
824.4000;0.0733;-0.9241;
824.7000;0.0741;-0.9128;
825.0000;0.0733;-0.9105;
825.3000;0.0733;-0.9014;
825.6000;0.0749;-0.9060;
825.9000;0.0724;-0.9128;
826.2000;0.0741;-0.9128;
826.5000;0.0773;-0.9037;
826.8000;0.0700;-0.9173;
827.1000;0.0733;-0.9128;
827.4000;0.0765;-0.8969;
827.7000;0.0741;-0.9082;
828.0000;0.0733;-0.9060;
828.3000;0.0708;-0.9128;
828.6000;0.0733;-0.9128;
828.9000;0.0741;-0.9196;
829.2000;0.0716;-0.9241;
829.5000;0.0765;-0.9037;
829.8000;0.0700;-0.9196;
830.1000;0.0733;-0.9150;
830.4000;0.0724;-0.9128;
830.7000;0.0716;-0.9128;
831.0000;0.0733;-0.9037;
831.3000;0.0765;-0.8969;
831.6000;0.0724;-0.8992;
831.9000;0.0757;-0.8946;
832.2000;0.0733;-0.8992;
832.5000;0.0724;-0.9060;
832.8000;0.0733;-0.9014;
833.1000;0.0733;-0.8969;
833.4000;0.0749;-0.8969;
833.7000;0.0716;-0.9082;
834.0000;0.0667;-0.9263;
834.3000;0.0724;-0.9105;
834.6000;0.0773;-0.9014;
834.9000;0.0716;-0.9150;
835.2000;0.0708;-0.9241;
835.5000;0.0749;-0.9196;
835.8000;0.0741;-0.9241;
836.1000;0.0733;-0.9354;
836.4000;0.0741;-0.9263;
836.7000;0.0790;-0.9082;
837.0000;0.0733;-0.9241;
837.3000;0.0863;-0.8924;
837.6000;0.0733;-0.9263;
837.9000;0.0757;-0.9286;
838.2000;0.0724;-0.9354;
838.5000;0.0733;-0.9286;
838.8000;0.0741;-0.9309;
839.1000;0.0692;-0.9331;
839.4000;0.0741;-0.9263;
839.7000;0.0724;-0.9241;
840.0000;0.0724;-0.9263;
840.3000;0.0724;-0.9218;
840.6000;0.0741;-0.9150;
840.9000;0.0749;-0.9173;
841.2000;0.0765;-0.9128;
841.5000;0.0724;-0.9218;
841.8000;0.0781;-0.9128;
842.1000;0.0684;-0.9331;
842.4000;0.0773;-0.9082;
842.7000;0.0716;-0.9218;
843.0000;0.0757;-0.9128;
843.3000;0.0749;-0.9060;
843.6000;0.0724;-0.9128;
843.9000;0.0724;-0.9218;
844.2000;0.0741;-0.9173;
844.5000;0.0741;-0.9150;
844.8000;0.0635;-0.9309;
845.1000;0.0749;-0.9105;
845.4000;0.0741;-0.9173;
845.7000;0.0822;-0.8992;
846.0000;0.0716;-0.9263;
846.3000;0.0741;-0.9263;
846.6000;0.0757;-0.9286;
846.9000;0.0757;-0.9241;
847.2000;0.0716;-0.9331;
847.5000;0.0749;-0.9218;
847.8000;0.0733;-0.9241;
848.1000;0.0781;-0.9150;
848.4000;0.0724;-0.9354;
848.7000;0.0724;-0.9286;
849.0000;0.0741;-0.9286;
849.3000;0.0724;-0.9377;
849.6000;0.0749;-0.9354;
849.9000;0.0749;-0.9377;
850.2000;0.0757;-0.9354;
850.5000;0.0708;-0.9445;
850.8000;0.0700;-0.9445;
851.1000;0.0700;-0.9467;
851.4000;0.0741;-0.9399;
851.7000;0.0741;-0.9490;
852.0000;0.0741;-0.9422;
852.3000;0.0757;-0.9354;
852.6000;0.0733;-0.9445;
852.9000;0.0741;-0.9467;
853.2000;0.0733;-0.9422;
853.5000;0.0716;-0.9422;
853.8000;0.0733;-0.9286;
854.1000;0.0733;-0.9263;
854.4000;0.0741;-0.9241;
854.7000;0.0749;-0.9241;
855.0000;0.0741;-0.9241;
855.3000;0.0708;-0.9331;
855.6000;0.0757;-0.9241;
855.9000;0.0749;-0.9263;
856.2000;0.0757;-0.9241;
856.5000;0.0749;-0.9196;
856.8000;0.0749;-0.9218;
857.1000;0.0741;-0.9354;
857.4000;0.0659;-0.9490;
857.7000;0.0724;-0.9263;
858.0000;0.0765;-0.9150;
858.3000;0.0733;-0.9309;
858.6000;0.0716;-0.9422;
858.9000;0.0724;-0.9377;
859.2000;0.0733;-0.9399;
859.5000;0.0741;-0.9377;
859.8000;0.0692;-0.9513;
860.1000;0.0733;-0.9445;
860.4000;0.0724;-0.9558;
860.7000;0.0716;-0.9535;
861.0000;0.0863;-0.9218;
861.3000;0.0741;-0.9445;
861.6000;0.0733;-0.9490;
861.9000;0.0724;-0.9445;
862.2000;0.0716;-0.9422;
862.5000;0.0741;-0.9377;
862.8000;0.0741;-0.9309;
863.1000;0.0790;-0.9218;
863.4000;0.0724;-0.9354;
863.7000;0.0749;-0.9218;
864.0000;0.0741;-0.9309;
864.3000;0.0741;-0.9309;
864.6000;0.0700;-0.9399;
864.9000;0.0757;-0.9263;
865.2000;0.0749;-0.9241;
865.5000;0.0749;-0.9309;
865.8000;0.0757;-0.9241;
866.1000;0.0700;-0.9422;
866.4000;0.0741;-0.9331;
866.7000;0.0741;-0.9309;
867.0000;0.0733;-0.9399;
867.3000;0.0749;-0.9377;
867.6000;0.0667;-0.9626;
867.9000;0.0716;-0.9558;
868.2000;0.0798;-0.9354;
868.5000;0.0733;-0.9445;
868.8000;0.0741;-0.9445;
869.1000;0.0757;-0.9399;
869.4000;0.0733;-0.9467;
869.7000;0.0781;-0.9241;
870.0000;0.0838;-0.9128;
870.3000;0.0724;-0.9467;
870.6000;0.0741;-0.9399;
870.9000;0.0733;-0.9241;
871.2000;0.0749;-0.9173;
871.5000;0.0757;-0.9173;
871.8000;0.0749;-0.9218;
872.1000;0.0724;-0.9263;
872.4000;0.0716;-0.9286;
872.7000;0.0724;-0.9263;
873.0000;0.0733;-0.9173;
873.3000;0.0773;-0.9150;
873.6000;0.0741;-0.9286;
873.9000;0.0757;-0.9331;
874.2000;0.0724;-0.9422;
874.5000;0.0708;-0.9513;
874.8000;0.0724;-0.9309;
875.1000;0.0749;-0.9263;
875.4000;0.0724;-0.9399;
875.7000;0.0733;-0.9422;
876.0000;0.0708;-0.9535;
876.3000;0.0773;-0.9377;
876.6000;0.0741;-0.9422;
876.9000;0.0708;-0.9490;
877.2000;0.0741;-0.9399;
877.5000;0.0781;-0.9309;
877.8000;0.0741;-0.9377;
878.1000;0.0741;-0.9377;
878.4000;0.0741;-0.9422;
878.7000;0.0781;-0.9286;
879.0000;0.0716;-0.9377;
879.3000;0.0765;-0.9241;
879.6000;0.0741;-0.9196;
879.9000;0.0733;-0.9196;
880.2000;0.0733;-0.9173;
880.5000;0.0765;-0.9173;
880.8000;0.0724;-0.9218;
881.1000;0.0733;-0.9196;
881.4000;0.0741;-0.9196;
881.7000;0.0700;-0.9286;
882.0000;0.0716;-0.9173;
882.3000;0.0806;-0.8878;
882.6000;0.0741;-0.8992;
882.9000;0.0708;-0.9128;
883.2000;0.0724;-0.9014;
883.5000;0.0724;-0.8969;
883.8000;0.0757;-0.8901;
884.1000;0.0716;-0.9082;
884.4000;0.0749;-0.9128;
884.7000;0.0741;-0.9286;
885.0000;0.0814;-0.9105;
885.3000;0.0741;-0.9241;
885.6000;0.0749;-0.9173;
885.9000;0.0871;-0.8833;
886.2000;0.0733;-0.9218;
886.5000;0.0733;-0.9218;
886.8000;0.0741;-0.9173;
887.1000;0.0757;-0.9173;
887.4000;0.0749;-0.9196;
887.7000;0.0659;-0.9422;
888.0000;0.0749;-0.9105;
888.3000;0.0741;-0.9060;
888.6000;0.0773;-0.9037;
888.9000;0.0757;-0.9105;
889.2000;0.0749;-0.9128;
889.5000;0.0692;-0.9241;
889.8000;0.0741;-0.9173;
890.1000;0.0847;-0.8878;
890.4000;0.0749;-0.9196;
890.7000;0.0700;-0.9286;
891.0000;0.0749;-0.9263;
891.3000;0.0757;-0.9309;
891.6000;0.0749;-0.9399;
891.9000;0.0676;-0.9581;
892.2000;0.0798;-0.9286;
892.5000;0.0749;-0.9354;
892.8000;0.0757;-0.9263;
893.1000;0.0733;-0.9331;
893.4000;0.0749;-0.9218;
893.7000;0.0684;-0.9309;
894.0000;0.0724;-0.9286;
894.3000;0.0733;-0.9241;
894.6000;0.0741;-0.9218;
894.9000;0.0733;-0.9241;
895.2000;0.0692;-0.9399;
895.5000;0.0741;-0.9331;
895.8000;0.0733;-0.9331;
896.1000;0.0724;-0.9354;
896.4000;0.0741;-0.9218;
896.7000;0.0773;-0.9060;
897.0000;0.0708;-0.9218;
897.3000;0.0724;-0.9241;
897.6000;0.0741;-0.9218;
897.9000;0.0798;-0.9014;
898.2000;0.0578;-0.9535;
898.5000;0.0749;-0.8946;
898.8000;0.0724;-0.9082;
899.1000;0.0765;-0.9082;
899.4000;0.0806;-0.9014;
899.7000;0.0716;-0.9218;
900.0000;0.0749;-0.9218;
900.3000;0.0765;-0.9173;
900.6000;0.0847;-0.8946;
900.9000;0.0733;-0.9309;
901.2000;0.0716;-0.9263;
901.5000;0.0814;-0.9037;
901.8000;0.0733;-0.9218;
902.1000;0.0757;-0.9128;
902.4000;0.0741;-0.9150;
902.7000;0.0749;-0.9173;
903.0000;0.0741;-0.9173;
903.3000;0.0765;-0.9105;
903.6000;0.0724;-0.9241;
903.9000;0.0741;-0.9196;
904.2000;0.0659;-0.9377;
904.5000;0.0724;-0.9128;
904.8000;0.0741;-0.8946;
905.1000;0.0692;-0.9128;
905.4000;0.0716;-0.9105;
905.7000;0.0749;-0.9082;
906.0000;0.0724;-0.9218;
906.3000;0.0659;-0.9354;
906.6000;0.0733;-0.9218;
906.9000;0.0733;-0.9241;
907.2000;0.0733;-0.9218;
907.5000;0.0798;-0.9128;
907.8000;0.0659;-0.9467;
908.1000;0.0724;-0.9218;
908.4000;0.0830;-0.8878;
908.7000;0.0749;-0.9173;
909.0000;0.0724;-0.9218;
909.3000;0.0700;-0.9241;
909.6000;0.0733;-0.9128;
909.9000;0.0733;-0.9218;
910.2000;0.0733;-0.9286;
910.5000;0.0733;-0.9309;
910.8000;0.0700;-0.9422;
911.1000;0.0847;-0.9150;
911.4000;0.0765;-0.9399;
911.7000;0.0749;-0.9513;
912.0000;0.0749;-0.9513;
912.3000;0.0781;-0.9490;
912.6000;0.0733;-0.9581;
912.9000;0.0733;-0.9558;
913.2000;0.0741;-0.9558;
913.5000;0.0724;-0.9649;
913.8000;0.0757;-0.9513;
914.1000;0.0855;-0.9263;
914.4000;0.0716;-0.9649;
914.7000;0.0741;-0.9490;
915.0000;0.0741;-0.9467;
915.3000;0.0716;-0.9513;
915.6000;0.0741;-0.9331;
915.9000;0.0765;-0.9263;
916.2000;0.0741;-0.9263;
916.5000;0.0716;-0.9399;
916.8000;0.0847;-0.8992;
917.1000;0.0765;-0.9196;
917.4000;0.0724;-0.9241;
917.7000;0.0643;-0.9399;
918.0000;0.0708;-0.9241;
918.3000;0.0733;-0.9218;
918.6000;0.0733;-0.9263;
918.9000;0.0724;-0.9331;
919.2000;0.0700;-0.9445;
919.5000;0.0741;-0.9331;
919.8000;0.0765;-0.9331;
920.1000;0.0741;-0.9490;
920.4000;0.0716;-0.9535;
920.7000;0.0749;-0.9490;
921.0000;0.0757;-0.9513;
921.3000;0.0757;-0.9513;
921.6000;0.0741;-0.9513;
921.9000;0.0741;-0.9513;
922.2000;0.0676;-0.9716;
922.5000;0.0708;-0.9626;
922.8000;0.0765;-0.9467;
923.1000;0.0724;-0.9558;
923.4000;0.0806;-0.9377;
923.7000;0.0741;-0.9490;
924.0000;0.0724;-0.9490;
924.3000;0.0749;-0.9399;
924.6000;0.0773;-0.9331;
924.9000;0.0830;-0.9309;
925.2000;0.0749;-0.9490;
925.5000;0.0749;-0.9535;
925.8000;0.0749;-0.9445;
926.1000;0.0741;-0.9558;
926.4000;0.0757;-0.9626;
926.7000;0.0733;-0.9671;
927.0000;0.0733;-0.9694;
927.3000;0.0741;-0.9671;
927.6000;0.0749;-0.9603;
927.9000;0.0733;-0.9671;
928.2000;0.0773;-0.9626;
928.5000;0.0749;-0.9581;
928.8000;0.0708;-0.9558;
929.1000;0.0741;-0.9445;
929.4000;0.0741;-0.9490;
929.7000;0.0749;-0.9535;
930.0000;0.0757;-0.9603;
930.3000;0.0700;-0.9649;
930.6000;0.0749;-0.9558;
930.9000;0.0781;-0.9422;
931.2000;0.0798;-0.9467;
931.5000;0.0765;-0.9535;
931.8000;0.0798;-0.9331;
932.1000;0.0741;-0.9399;
932.4000;0.0749;-0.9377;
932.7000;0.0692;-0.9535;
933.0000;0.0741;-0.9445;
933.3000;0.0733;-0.9581;
933.6000;0.0847;-0.9331;
933.9000;0.0749;-0.9535;
934.2000;0.0757;-0.9558;
934.5000;0.0741;-0.9603;
934.8000;0.0822;-0.9331;
935.1000;0.0733;-0.9490;
935.4000;0.0757;-0.9445;
935.7000;0.0765;-0.9513;
936.0000;0.0716;-0.9626;
936.3000;0.0781;-0.9422;
936.6000;0.0741;-0.9558;
936.9000;0.0724;-0.9603;
937.2000;0.0749;-0.9445;
937.5000;0.0741;-0.9445;
937.8000;0.0757;-0.9377;
938.1000;0.0749;-0.9467;
938.4000;0.0716;-0.9513;
938.7000;0.0765;-0.9445;
939.0000;0.0733;-0.9490;
939.3000;0.0773;-0.9331;
939.6000;0.0741;-0.9377;
939.9000;0.0733;-0.9354;
940.2000;0.0741;-0.9377;
940.5000;0.0757;-0.9377;
940.8000;0.0749;-0.9445;
941.1000;0.0741;-0.9558;
941.4000;0.0733;-0.9649;
941.7000;0.0724;-0.9694;
942.0000;0.0667;-0.9784;
942.3000;0.0773;-0.9513;
942.6000;0.0781;-0.9558;
942.9000;0.0749;-0.9558;
943.2000;0.0806;-0.9377;
943.5000;0.0847;-0.9218;
943.8000;0.0749;-0.9286;
944.1000;0.0733;-0.9377;
944.4000;0.0757;-0.9377;
944.7000;0.0724;-0.9377;
945.0000;0.0757;-0.9354;
945.3000;0.0741;-0.9399;
945.6000;0.0741;-0.9377;
945.9000;0.0733;-0.9445;
946.2000;0.0741;-0.9467;
946.5000;0.0659;-0.9649;
946.8000;0.0724;-0.9445;
947.1000;0.0765;-0.9331;
947.4000;0.0733;-0.9513;
947.7000;0.0741;-0.9422;
948.0000;0.0749;-0.9399;
948.3000;0.0741;-0.9354;
948.6000;0.0741;-0.9331;
948.9000;0.0798;-0.9263;
949.2000;0.0741;-0.9445;
949.5000;0.0733;-0.9445;
949.8000;0.0741;-0.9399;
950.1000;0.0724;-0.9377;
950.4000;0.0765;-0.9354;
950.7000;0.0716;-0.9490;
951.0000;0.0741;-0.9399;
951.3000;0.0716;-0.9467;
951.6000;0.0708;-0.9490;
951.9000;0.0724;-0.9399;
952.2000;0.0765;-0.9399;
952.5000;0.0741;-0.9467;
952.8000;0.0741;-0.9535;
953.1000;0.0741;-0.9671;
953.4000;0.0749;-0.9581;
953.7000;0.0716;-0.9626;
954.0000;0.0724;-0.9558;
954.3000;0.0749;-0.9558;
954.6000;0.0733;-0.9626;
954.9000;0.0749;-0.9603;
955.2000;0.0716;-0.9581;
955.5000;0.0724;-0.9535;
955.8000;0.0724;-0.9445;
956.1000;0.0757;-0.9309;
956.4000;0.0716;-0.9422;
956.7000;0.0619;-0.9716;
957.0000;0.0757;-0.9445;
957.3000;0.0749;-0.9490;
957.6000;0.0749;-0.9445;
957.9000;0.0741;-0.9399;
958.2000;0.0855;-0.9150;
958.5000;0.0724;-0.9467;
958.8000;0.0733;-0.9422;
959.1000;0.0676;-0.9513;
959.4000;0.0733;-0.9354;
959.7000;0.0733;-0.9309;
960.0000;0.0741;-0.9354;
960.3000;0.0733;-0.9354;
960.6000;0.0733;-0.9377;
960.9000;0.0757;-0.9377;
961.2000;0.0765;-0.9377;
961.5000;0.0733;-0.9467;
961.8000;0.0724;-0.9399;
962.1000;0.0749;-0.9422;
962.4000;0.0749;-0.9422;
962.7000;0.0659;-0.9603;
963.0000;0.0822;-0.9263;
963.3000;0.0741;-0.9467;
963.6000;0.0757;-0.9422;
963.9000;0.0659;-0.9558;
964.2000;0.0749;-0.9218;
964.5000;0.0724;-0.9263;
964.8000;0.0733;-0.9173;
965.1000;0.0741;-0.9173;
965.4000;0.0724;-0.9196;
965.7000;0.0741;-0.9196;
966.0000;0.0741;-0.9241;
966.3000;0.0716;-0.9331;
966.6000;0.0749;-0.9263;
966.9000;0.0716;-0.9354;
967.2000;0.0724;-0.9445;
967.5000;0.0765;-0.9286;
967.8000;0.0741;-0.9309;
968.1000;0.0749;-0.9309;
968.4000;0.0676;-0.9535;
968.7000;0.0724;-0.9467;
969.0000;0.0741;-0.9377;
969.3000;0.0773;-0.9377;
969.6000;0.0741;-0.9581;
969.9000;0.0716;-0.9649;
970.2000;0.0749;-0.9535;
970.5000;0.0781;-0.9445;
970.8000;0.0765;-0.9422;
971.1000;0.0733;-0.9467;
971.4000;0.0741;-0.9445;
971.7000;0.0773;-0.9399;
972.0000;0.0733;-0.9490;
972.3000;0.0741;-0.9535;
972.6000;0.0716;-0.9671;
972.9000;0.0724;-0.9671;
973.2000;0.0724;-0.9671;
973.5000;0.0814;-0.9490;
973.8000;0.0700;-0.9739;
974.1000;0.0724;-0.9626;
974.4000;0.0773;-0.9422;
974.7000;0.0733;-0.9535;
975.0000;0.0749;-0.9467;
975.3000;0.0798;-0.9399;
975.6000;0.0733;-0.9603;
975.9000;0.0757;-0.9581;
976.2000;0.0627;-0.9920;
976.5000;0.0627;-0.9943;
976.8000;0.0741;-0.9626;
977.1000;0.0749;-0.9603;
977.4000;0.0749;-0.9626;
977.7000;0.0708;-0.9739;
978.0000;0.0749;-0.9649;
978.3000;0.0757;-0.9513;
978.6000;0.0676;-0.9649;
978.9000;0.0733;-0.9445;
979.2000;0.0765;-0.9422;
979.5000;0.0765;-0.9445;
979.8000;0.0724;-0.9513;
980.1000;0.0749;-0.9399;
980.4000;0.0733;-0.9377;
980.7000;0.0733;-0.9399;
981.0000;0.0708;-0.9535;
981.3000;0.0700;-0.9603;
981.6000;0.0651;-0.9649;
981.9000;0.0757;-0.9467;
982.2000;0.0741;-0.9467;
982.5000;0.0749;-0.9445;
982.8000;0.0757;-0.9490;
983.1000;0.0806;-0.9422;
983.4000;0.0749;-0.9716;
983.7000;0.0749;-0.9762;
984.0000;0.0765;-0.9739;
984.3000;0.0822;-0.9581;
984.6000;0.0724;-0.9784;
984.9000;0.0741;-0.9694;
985.2000;0.0716;-0.9694;
985.5000;0.0741;-0.9649;
985.8000;0.0692;-0.9898;
986.1000;0.0741;-0.9784;
986.4000;0.0757;-0.9830;
986.7000;0.0749;-0.9875;
987.0000;0.0798;-0.9739;
987.3000;0.0773;-0.9807;
987.6000;0.0741;-0.9966;
987.9000;0.0765;-0.9898;
988.2000;0.0757;-0.9875;
988.5000;0.0757;-0.9852;
988.8000;0.0741;-0.9898;
989.1000;0.0724;-0.9807;
989.4000;0.0716;-0.9694;
989.7000;0.0741;-0.9603;
990.0000;0.0733;-0.9694;
990.3000;0.0724;-0.9807;
990.6000;0.0724;-0.9852;
990.9000;0.0716;-0.9830;
991.2000;0.0773;-0.9762;
991.5000;0.0733;-0.9784;
991.8000;0.0749;-0.9716;
992.1000;0.0749;-0.9716;
992.4000;0.0733;-0.9739;
992.7000;0.0700;-0.9852;
993.0000;0.0765;-0.9762;
993.3000;0.0733;-0.9875;
993.6000;0.0790;-0.9784;
993.9000;0.0724;-0.9898;
994.2000;0.0716;-0.9966;
994.5000;0.0749;-0.9830;
994.8000;0.0716;-0.9920;
995.1000;0.0765;-0.9807;
995.4000;0.0716;-0.9966;
995.7000;0.0749;-0.9807;
996.0000;0.0749;-0.9671;
996.3000;0.0716;-0.9739;
996.6000;0.0757;-0.9671;
996.9000;0.0757;-0.9716;
997.2000;0.0741;-0.9694;
997.5000;0.0733;-0.9716;
997.8000;0.0781;-0.9603;
998.1000;0.0724;-0.9784;
998.4000;0.0741;-0.9739;
998.7000;0.0684;-0.9852;
999.0000;0.0643;-0.9966;
999.3000;0.0667;-0.9852;
999.6000;0.0741;-0.9626;
999.9000;0.0855;-0.9309;
1000.2000;0.0733;-0.9581;
1000.5000;0.0781;-0.9422;
1000.8000;0.0733;-0.9535;
1001.1000;0.0757;-0.9422;
1001.4000;0.0765;-0.9490;
1001.7000;0.0773;-0.9422;
1002.0000;0.0749;-0.9513;
1002.3000;0.0830;-0.9331;
1002.6000;0.0716;-0.9513;
1002.9000;0.0724;-0.9422;
1003.2000;0.0757;-0.9286;
1003.5000;0.0822;-0.9105;
1003.8000;0.0733;-0.9399;
1004.1000;0.0741;-0.9377;
1004.4000;0.0724;-0.9445;
1004.7000;0.0765;-0.9309;
1005.0000;0.0684;-0.9490;
1005.3000;0.0700;-0.9422;
1005.6000;0.0733;-0.9309;
1005.9000;0.0749;-0.9263;
1006.2000;0.0741;-0.9331;
1006.5000;0.0724;-0.9286;
1006.8000;0.0594;-0.9603;
1007.1000;0.0733;-0.9331;
1007.4000;0.0741;-0.9354;
1007.7000;0.0733;-0.9422;
1008.0000;0.0700;-0.9535;
1008.3000;0.0611;-0.9784;
1008.6000;0.0765;-0.9467;
1008.9000;0.0724;-0.9535;
1009.2000;0.0733;-0.9513;
1009.5000;0.0765;-0.9354;
1009.8000;0.0741;-0.9445;
1010.1000;0.0700;-0.9513;
1010.4000;0.0733;-0.9490;
1010.7000;0.0733;-0.9422;
1011.0000;0.0773;-0.9354;
1011.3000;0.0757;-0.9445;
1011.6000;0.0765;-0.9490;
1011.9000;0.0757;-0.9422;
1012.2000;0.0733;-0.9513;
1012.5000;0.0781;-0.9377;
1012.8000;0.0716;-0.9467;
1013.1000;0.0830;-0.9150;
1013.4000;0.0749;-0.9399;
1013.7000;0.0741;-0.9309;
1014.0000;0.0733;-0.9263;
1014.3000;0.0724;-0.9286;
1014.6000;0.0619;-0.9558;
1014.9000;0.0733;-0.9241;
1015.2000;0.0741;-0.9196;
1015.5000;0.0724;-0.9331;
1015.8000;0.0741;-0.9422;
1016.1000;0.0781;-0.9331;
1016.4000;0.0733;-0.9399;
1016.7000;0.0749;-0.9309;
1017.0000;0.0741;-0.9331;
1017.3000;0.0733;-0.9263;
1017.6000;0.0741;-0.9354;
1017.9000;0.0659;-0.9626;
1018.2000;0.0724;-0.9422;
1018.5000;0.0733;-0.9490;
1018.8000;0.0765;-0.9445;
1019.1000;0.0724;-0.9467;
1019.4000;0.0724;-0.9422;
1019.7000;0.0733;-0.9286;
1020.0000;0.0741;-0.9331;
1020.3000;0.0716;-0.9377;
1020.6000;0.0741;-0.9263;
1020.9000;0.0757;-0.9196;
1021.2000;0.0741;-0.9286;
1021.5000;0.0741;-0.9309;
1021.8000;0.0667;-0.9535;
1022.1000;0.0781;-0.9241;
1022.4000;0.0790;-0.9150;
1022.7000;0.0757;-0.9196;
1023.0000;0.0806;-0.9128;
1023.3000;0.0724;-0.9467;
1023.6000;0.0749;-0.9377;
1023.9000;0.0692;-0.9558;
1024.2000;0.0733;-0.9535;
1024.5000;0.0716;-0.9649;
1024.8000;0.0757;-0.9558;
1025.1000;0.0749;-0.9513;
1025.4000;0.0749;-0.9422;
1025.7000;0.0716;-0.9535;
1026.0000;0.0733;-0.9399;
1026.3000;0.0757;-0.9377;
1026.6000;0.0765;-0.9354;
1026.9000;0.0741;-0.9422;
1027.2000;0.0749;-0.9377;
1027.5000;0.0716;-0.9467;
1027.8000;0.0749;-0.9467;
1028.1000;0.0733;-0.9513;
1028.4000;0.0773;-0.9377;
1028.7000;0.0724;-0.9558;
1029.0000;0.0830;-0.9241;
1029.3000;0.0724;-0.9445;
1029.6000;0.0733;-0.9218;
1029.9000;0.0749;-0.8992;
1030.2000;0.0733;-0.9060;
1030.5000;0.0716;-0.9173;
1030.8000;0.0887;-0.8901;
1031.1000;0.0741;-0.9309;
1031.4000;0.0773;-0.9263;
1031.7000;0.0733;-0.9263;
1032.0000;0.0765;-0.9218;
1032.3000;0.0700;-0.9309;
1032.6000;0.0757;-0.9173;
1032.9000;0.0757;-0.9286;
1033.2000;0.0749;-0.9263;
1033.5000;0.0741;-0.9263;
1033.8000;0.0790;-0.9196;
1034.1000;0.0765;-0.9241;
1034.4000;0.0708;-0.9286;
1034.7000;0.0724;-0.9263;
1035.0000;0.0757;-0.9196;
1035.3000;0.0757;-0.9037;
1035.6000;0.0708;-0.9105;
1035.9000;0.0757;-0.9105;
1036.2000;0.0757;-0.9105;
1036.5000;0.0790;-0.9060;
1036.8000;0.0749;-0.9173;
1037.1000;0.0757;-0.9173;
1037.4000;0.0749;-0.9218;
1037.7000;0.0781;-0.9082;
1038.0000;0.0724;-0.9218;
1038.3000;0.0708;-0.9331;
1038.6000;0.0659;-0.9445;
1038.9000;0.0692;-0.9331;
1039.2000;0.0781;-0.9150;
1039.5000;0.0806;-0.9060;
1039.8000;0.0724;-0.9286;
1040.1000;0.0716;-0.9399;
1040.4000;0.0692;-0.9445;
1040.7000;0.0749;-0.9331;
1041.0000;0.0757;-0.9309;
1041.3000;0.0765;-0.9309;
1041.6000;0.0741;-0.9331;
1041.9000;0.0741;-0.9331;
1042.2000;0.0741;-0.9263;
1042.5000;0.0741;-0.9218;
1042.8000;0.0749;-0.9196;
1043.1000;0.0741;-0.9241;
1043.4000;0.0749;-0.9196;
1043.7000;0.0724;-0.9309;
1044.0000;0.0724;-0.9354;
1044.3000;0.0716;-0.9354;
1044.6000;0.0733;-0.9309;
1044.9000;0.0741;-0.9241;
1045.2000;0.0781;-0.9105;
1045.5000;0.0765;-0.9037;
1045.8000;0.0724;-0.9150;
1046.1000;0.0741;-0.9241;
1046.4000;0.0733;-0.9354;
1046.7000;0.0733;-0.9422;
1047.0000;0.0724;-0.9445;
1047.3000;0.0733;-0.9467;
1047.6000;0.0741;-0.9513;
1047.9000;0.0733;-0.9490;
1048.2000;0.0741;-0.9490;
1048.5000;0.0724;-0.9422;
1048.8000;0.0757;-0.9309;
1049.1000;0.0741;-0.9354;
1049.4000;0.0741;-0.9399;
1049.7000;0.0749;-0.9490;
1050.0000;0.0757;-0.9490;
1050.3000;0.0733;-0.9603;
1050.6000;0.0716;-0.9671;
1050.9000;0.0724;-0.9671;
1051.2000;0.0765;-0.9467;
1051.5000;0.0757;-0.9399;
1051.8000;0.0749;-0.9309;
1052.1000;0.0765;-0.9218;
1052.4000;0.0741;-0.9218;
1052.7000;0.0733;-0.9263;
1053.0000;0.0700;-0.9399;
1053.3000;0.0716;-0.9467;
1053.6000;0.0757;-0.9377;
1053.9000;0.0749;-0.9354;
1054.2000;0.0724;-0.9445;
1054.5000;0.0757;-0.9309;
1054.8000;0.0741;-0.9354;
1055.1000;0.0798;-0.9196;
1055.4000;0.0765;-0.9241;
1055.7000;0.0757;-0.9286;
1056.0000;0.0716;-0.9422;
1056.3000;0.0684;-0.9490;
1056.6000;0.0871;-0.9082;
1056.9000;0.0757;-0.9331;
1057.2000;0.0798;-0.9150;
1057.5000;0.0724;-0.9422;
1057.8000;0.0822;-0.9060;
1058.1000;0.0749;-0.9241;
1058.4000;0.0741;-0.9173;
1058.7000;0.0733;-0.9173;
1059.0000;0.0781;-0.9128;
1059.3000;0.0708;-0.9286;
1059.6000;0.0733;-0.9309;
1059.9000;0.0733;-0.9331;
1060.2000;0.0773;-0.9196;
1060.5000;0.0749;-0.9128;
1060.8000;0.0749;-0.9196;
1061.1000;0.0667;-0.9354;
1061.4000;0.0733;-0.9263;
1061.7000;0.0724;-0.9218;
1062.0000;0.0741;-0.9173;
1062.3000;0.0733;-0.9241;
1062.6000;0.0741;-0.9263;
1062.9000;0.0724;-0.9286;
1063.2000;0.0733;-0.9196;
1063.5000;0.0724;-0.9241;
1063.8000;0.0733;-0.9309;
1064.1000;0.0733;-0.9399;
1064.4000;0.0733;-0.9467;
1064.7000;0.0733;-0.9331;
1065.0000;0.0716;-0.9354;
1065.3000;0.0733;-0.9309;
1065.6000;0.0733;-0.9309;
1065.9000;0.0749;-0.9354;
1066.2000;0.0733;-0.9286;
1066.5000;0.0749;-0.9309;
1066.8000;0.0757;-0.9354;
1067.1000;0.0724;-0.9445;
1067.4000;0.0773;-0.9399;
1067.7000;0.0765;-0.9331;
1068.0000;0.0749;-0.9377;
1068.3000;0.0749;-0.9354;
1068.6000;0.0733;-0.9286;
1068.9000;0.0684;-0.9331;
1069.2000;0.0716;-0.9241;
1069.5000;0.0741;-0.9218;
1069.8000;0.0724;-0.9241;
1070.1000;0.0724;-0.9196;
1070.4000;0.0741;-0.9173;
1070.7000;0.0716;-0.9309;
1071.0000;0.0716;-0.9309;
1071.3000;0.0741;-0.9286;
1071.6000;0.0757;-0.9263;
1071.9000;0.0749;-0.9218;
1072.2000;0.0855;-0.9014;
1072.5000;0.0741;-0.9354;
1072.8000;0.0733;-0.9354;
1073.1000;0.0757;-0.9241;
1073.4000;0.0749;-0.9263;
1073.7000;0.0733;-0.9286;
1074.0000;0.0733;-0.9331;
1074.3000;0.0724;-0.9286;
1074.6000;0.0741;-0.9218;
1074.9000;0.0749;-0.9309;
1075.2000;0.0643;-0.9535;
1075.5000;0.0733;-0.9377;
1075.8000;0.0724;-0.9422;
1076.1000;0.0733;-0.9377;
1076.4000;0.0733;-0.9377;
1076.7000;0.0684;-0.9513;
1077.0000;0.0733;-0.9331;
1077.3000;0.0773;-0.9241;
1077.6000;0.0724;-0.9218;
1077.9000;0.0708;-0.9218;
1078.2000;0.0659;-0.9399;
1078.5000;0.0708;-0.9309;
1078.8000;0.0765;-0.9196;
1079.1000;0.0716;-0.9354;
1079.4000;0.0733;-0.9286;
1079.7000;0.0733;-0.9445;
1080.0000;0.0733;-0.9399;
1080.3000;0.0733;-0.9422;
1080.6000;0.0659;-0.9603;
1080.9000;0.0733;-0.9445;
1081.2000;0.0912;-0.9060;
1081.5000;0.0716;-0.9558;
1081.8000;0.0724;-0.9513;
1082.1000;0.0724;-0.9513;
1082.4000;0.0724;-0.9513;
1082.7000;0.0838;-0.9218;
1083.0000;0.0716;-0.9490;
1083.3000;0.0733;-0.9535;
1083.6000;0.0724;-0.9694;
1083.9000;0.0724;-0.9716;
1084.2000;0.0733;-0.9626;
1084.5000;0.0798;-0.9399;
1084.8000;0.0724;-0.9535;
1085.1000;0.0733;-0.9399;
1085.4000;0.0716;-0.9467;
1085.7000;0.0708;-0.9535;
1086.0000;0.0765;-0.9422;
1086.3000;0.0733;-0.9490;
1086.6000;0.0700;-0.9558;
1086.9000;0.0741;-0.9422;
1087.2000;0.0676;-0.9603;
1087.5000;0.0806;-0.9354;
1087.8000;0.0741;-0.9513;
1088.1000;0.0716;-0.9513;
1088.4000;0.0741;-0.9467;
1088.7000;0.0757;-0.9241;
1089.0000;0.0700;-0.9445;
1089.3000;0.0733;-0.9422;
1089.6000;0.0806;-0.9263;
1089.9000;0.0765;-0.9354;
1090.2000;0.0757;-0.9377;
1090.5000;0.0733;-0.9422;
1090.8000;0.0749;-0.9354;
1091.1000;0.0733;-0.9377;
1091.4000;0.0716;-0.9399;
1091.7000;0.0733;-0.9422;
1092.0000;0.0749;-0.9399;
1092.3000;0.0733;-0.9331;
1092.6000;0.0741;-0.9331;
1092.9000;0.0708;-0.9286;
1093.2000;0.0708;-0.9286;
1093.5000;0.0733;-0.9218;
1093.8000;0.0708;-0.9309;
1094.1000;0.0684;-0.9490;
1094.4000;0.0733;-0.9377;
1094.7000;0.0635;-0.9626;
1095.0000;0.0749;-0.9377;
1095.3000;0.0749;-0.9377;
1095.6000;0.0716;-0.9422;
1095.9000;0.0676;-0.9535;
1096.2000;0.0757;-0.9241;
1096.5000;0.0838;-0.9014;
1096.8000;0.0724;-0.9218;
1097.1000;0.0773;-0.9082;
1097.4000;0.0741;-0.9173;
1097.7000;0.0684;-0.9354;
1098.0000;0.0700;-0.9286;
1098.3000;0.0724;-0.9241;
1098.6000;0.0733;-0.9128;
1098.9000;0.0855;-0.8833;
1099.2000;0.0724;-0.9263;
1099.5000;0.0716;-0.9263;
1099.8000;0.0700;-0.9309;
1100.1000;0.0741;-0.9241;
1100.4000;0.0724;-0.9241;
1100.7000;0.0757;-0.9263;
1101.0000;0.0749;-0.9309;
1101.3000;0.0757;-0.9309;
1101.6000;0.0733;-0.9309;
1101.9000;0.0765;-0.9286;
1102.2000;0.0814;-0.9150;
1102.5000;0.0708;-0.9263;
1102.8000;0.0724;-0.9286;
1103.1000;0.0741;-0.9286;
1103.4000;0.0733;-0.9309;
1103.7000;0.0741;-0.9241;
1104.0000;0.0724;-0.9286;
1104.3000;0.0749;-0.9263;
1104.6000;0.0757;-0.9241;
1104.9000;0.0773;-0.9173;
1105.2000;0.0716;-0.9218;
1105.5000;0.0724;-0.9241;
1105.8000;0.0676;-0.9399;
1106.1000;0.0700;-0.9422;
1106.4000;0.0733;-0.9377;
1106.7000;0.0765;-0.9263;
1107.0000;0.0790;-0.9241;
1107.3000;0.0724;-0.9399;
1107.6000;0.0724;-0.9354;
1107.9000;0.0716;-0.9422;
1108.2000;0.0724;-0.9377;
1108.5000;0.0716;-0.9422;
1108.8000;0.0724;-0.9445;
1109.1000;0.0692;-0.9535;
1109.4000;0.0733;-0.9467;
1109.7000;0.0741;-0.9422;
1110.0000;0.0684;-0.9513;
1110.3000;0.0741;-0.9399;
1110.6000;0.0724;-0.9467;
1110.9000;0.0741;-0.9467;
1111.2000;0.0724;-0.9422;
1111.5000;0.0733;-0.9422;
1111.8000;0.0724;-0.9490;
1112.1000;0.0757;-0.9445;
1112.4000;0.0741;-0.9558;
1112.7000;0.0700;-0.9603;
1113.0000;0.0798;-0.9354;
1113.3000;0.0700;-0.9558;
1113.6000;0.0716;-0.9535;
1113.9000;0.0741;-0.9422;
1114.2000;0.0733;-0.9467;
1114.5000;0.0749;-0.9513;
1114.8000;0.0741;-0.9467;
1115.1000;0.0708;-0.9558;
1115.4000;0.0716;-0.9626;
1115.7000;0.0700;-0.9626;
1116.0000;0.0692;-0.9649;
1116.3000;0.0643;-0.9762;
1116.6000;0.0643;-0.9784;
1116.9000;0.0749;-0.9558;
1117.2000;0.0741;-0.9467;
1117.5000;0.0724;-0.9422;
1117.8000;0.0724;-0.9354;
1118.1000;0.0814;-0.9082;
1118.4000;0.0684;-0.9490;
1118.7000;0.0749;-0.9331;
1119.0000;0.0749;-0.9377;
1119.3000;0.0822;-0.9105;
1119.6000;0.0708;-0.9467;
1119.9000;0.0741;-0.9331;
1120.2000;0.0716;-0.9331;
1120.5000;0.0684;-0.9467;
1120.8000;0.0724;-0.9445;
1121.1000;0.0757;-0.9354;
1121.4000;0.0741;-0.9422;
1121.7000;0.0806;-0.9354;
1122.0000;0.0757;-0.9377;
1122.3000;0.0749;-0.9399;
1122.6000;0.0724;-0.9422;
1122.9000;0.0741;-0.9445;
1123.2000;0.0757;-0.9422;
1123.5000;0.0741;-0.9445;
1123.8000;0.0749;-0.9331;
1124.1000;0.0749;-0.9331;
1124.4000;0.0724;-0.9399;
1124.7000;0.0733;-0.9422;
1125.0000;0.0724;-0.9422;
1125.3000;0.0708;-0.9354;
1125.6000;0.0733;-0.9309;
1125.9000;0.0733;-0.9286;
1126.2000;0.0733;-0.9309;
1126.5000;0.0765;-0.9309;
1126.8000;0.0781;-0.9173;
1127.1000;0.0733;-0.9309;
1127.4000;0.0741;-0.9286;
1127.7000;0.0765;-0.9173;
1128.0000;0.0757;-0.9128;
1128.3000;0.0716;-0.9218;
1128.6000;0.0724;-0.9218;
1128.9000;0.0643;-0.9354;
1129.2000;0.0667;-0.9309;
1129.5000;0.0757;-0.9196;
1129.8000;0.0724;-0.9309;
1130.1000;0.0692;-0.9354;
1130.4000;0.0724;-0.9377;
1130.7000;0.0741;-0.9309;
1131.0000;0.0765;-0.9377;
1131.3000;0.0781;-0.9331;
1131.6000;0.0724;-0.9535;
1131.9000;0.0773;-0.9422;
1132.2000;0.0814;-0.9286;
1132.5000;0.0790;-0.9263;
1132.8000;0.0724;-0.9354;
1133.1000;0.0773;-0.9196;
1133.4000;0.0741;-0.9241;
1133.7000;0.0716;-0.9377;
1134.0000;0.0757;-0.9331;
1134.3000;0.0635;-0.9694;
1134.6000;0.0749;-0.9422;
1134.9000;0.0716;-0.9535;
1135.2000;0.0741;-0.9490;
1135.5000;0.0667;-0.9626;
1135.8000;0.0733;-0.9535;
1136.1000;0.0781;-0.9377;
1136.4000;0.0741;-0.9422;
1136.7000;0.0741;-0.9490;
1137.0000;0.0757;-0.9513;
1137.3000;0.0635;-0.9762;
1137.6000;0.0643;-0.9694;
1137.9000;0.0749;-0.9445;
1138.2000;0.0724;-0.9467;
1138.5000;0.0733;-0.9354;
1138.8000;0.0724;-0.9399;
1139.1000;0.0733;-0.9331;
1139.4000;0.0757;-0.9309;
1139.7000;0.0724;-0.9377;
1140.0000;0.0724;-0.9377;
1140.3000;0.0749;-0.9309;
1140.6000;0.0757;-0.9286;
1140.9000;0.0708;-0.9467;
1141.2000;0.0724;-0.9399;
1141.5000;0.0692;-0.9445;
1141.8000;0.0733;-0.9331;
1142.1000;0.0733;-0.9218;
1142.4000;0.0749;-0.9263;
1142.7000;0.0724;-0.9377;
1143.0000;0.0724;-0.9377;
1143.3000;0.0724;-0.9286;
1143.6000;0.0741;-0.9173;
1143.9000;0.0741;-0.9263;
1144.2000;0.0733;-0.9399;
1144.5000;0.0749;-0.9354;
1144.8000;0.0741;-0.9309;
1145.1000;0.0724;-0.9354;
1145.4000;0.0749;-0.9263;
1145.7000;0.0757;-0.9241;
1146.0000;0.0733;-0.9309;
1146.3000;0.0716;-0.9354;
1146.6000;0.0700;-0.9422;
1146.9000;0.0684;-0.9422;
1147.2000;0.0838;-0.9060;
1147.5000;0.0741;-0.9331;
1147.8000;0.0733;-0.9377;
1148.1000;0.0724;-0.9377;
1148.4000;0.0733;-0.9354;
1148.7000;0.0708;-0.9377;
1149.0000;0.0724;-0.9467;
1149.3000;0.0700;-0.9581;
1149.6000;0.0676;-0.9694;
1149.9000;0.0733;-0.9581;
1150.2000;0.0733;-0.9603;
1150.5000;0.0757;-0.9603;
1150.8000;0.0708;-0.9626;
1151.1000;0.0741;-0.9535;
1151.4000;0.0716;-0.9513;
1151.7000;0.0757;-0.9513;
1152.0000;0.0733;-0.9558;
1152.3000;0.0716;-0.9535;
1152.6000;0.0765;-0.9354;
1152.9000;0.0741;-0.9377;
1153.2000;0.0765;-0.9286;
1153.5000;0.0733;-0.9354;
1153.8000;0.0757;-0.9399;
1154.1000;0.0724;-0.9535;
1154.4000;0.0773;-0.9445;
1154.7000;0.0749;-0.9513;
1155.0000;0.0676;-0.9649;
1155.3000;0.0724;-0.9513;
1155.6000;0.0749;-0.9467;
1155.9000;0.0773;-0.9467;
1156.2000;0.0635;-0.9807;
1156.5000;0.0724;-0.9535;
1156.8000;0.0790;-0.9377;
1157.1000;0.0749;-0.9422;
1157.4000;0.0749;-0.9309;
1157.7000;0.0733;-0.9354;
1158.0000;0.0651;-0.9490;
1158.3000;0.0724;-0.9331;
1158.6000;0.0749;-0.9218;
1158.9000;0.0724;-0.9445;
1159.2000;0.0676;-0.9535;
1159.5000;0.0708;-0.9535;
1159.8000;0.0733;-0.9422;
1160.1000;0.0749;-0.9422;
1160.4000;0.0741;-0.9377;
1160.7000;0.0749;-0.9309;
1161.0000;0.0765;-0.9309;
1161.3000;0.0749;-0.9422;
1161.6000;0.0733;-0.9445;
1161.9000;0.0733;-0.9445;
1162.2000;0.0741;-0.9513;
1162.5000;0.0635;-0.9694;
1162.8000;0.0749;-0.9399;
1163.1000;0.0716;-0.9445;
1163.4000;0.0741;-0.9445;
1163.7000;0.0741;-0.9513;
1164.0000;0.0733;-0.9603;
1164.3000;0.0724;-0.9558;
1164.6000;0.0855;-0.9218;
1164.9000;0.0757;-0.9399;
1165.2000;0.0733;-0.9445;
1165.5000;0.0708;-0.9626;
1165.8000;0.0733;-0.9603;
1166.1000;0.0716;-0.9603;
1166.4000;0.0716;-0.9649;
1166.7000;0.0708;-0.9694;
1167.0000;0.0790;-0.9581;
1167.3000;0.0741;-0.9649;
1167.6000;0.0724;-0.9603;
1167.9000;0.0855;-0.9263;
1168.2000;0.0773;-0.9377;
1168.5000;0.0741;-0.9445;
1168.8000;0.0716;-0.9513;
1169.1000;0.0724;-0.9490;
1169.4000;0.0733;-0.9467;
1169.7000;0.0749;-0.9422;
1170.0000;0.0749;-0.9490;
1170.3000;0.0659;-0.9649;
1170.6000;0.0684;-0.9626;
1170.9000;0.0724;-0.9513;
1171.2000;0.0741;-0.9467;
1171.5000;0.0724;-0.9581;
1171.8000;0.0716;-0.9513;
1172.1000;0.0749;-0.9377;
1172.4000;0.0733;-0.9286;
1172.7000;0.0773;-0.9128;
1173.0000;0.0757;-0.9218;
1173.3000;0.0724;-0.9286;
1173.6000;0.0611;-0.9649;
1173.9000;0.0757;-0.9331;
1174.2000;0.0757;-0.9286;
1174.5000;0.0733;-0.9399;
1174.8000;0.0724;-0.9445;
1175.1000;0.0733;-0.9399;
1175.4000;0.0700;-0.9490;
1175.7000;0.0749;-0.9445;
1176.0000;0.0716;-0.9422;
1176.3000;0.0741;-0.9377;
1176.6000;0.0757;-0.9422;
1176.9000;0.0733;-0.9467;
1177.2000;0.0733;-0.9558;
1177.5000;0.0749;-0.9445;
1177.8000;0.0724;-0.9445;
1178.1000;0.0741;-0.9422;
1178.4000;0.0741;-0.9445;
1178.7000;0.0741;-0.9490;
1179.0000;0.0724;-0.9490;
1179.3000;0.0708;-0.9603;
1179.6000;0.0708;-0.9490;
1179.9000;0.0855;-0.9128;
1180.2000;0.0757;-0.9377;
1180.5000;0.0798;-0.9309;
1180.8000;0.0708;-0.9445;
1181.1000;0.0765;-0.9241;
1181.4000;0.0724;-0.9354;
1181.7000;0.0733;-0.9309;
1182.0000;0.0773;-0.9263;
1182.3000;0.0733;-0.9377;
1182.6000;0.0733;-0.9377;
1182.9000;0.0667;-0.9581;
1183.2000;0.0708;-0.9513;
1183.5000;0.0749;-0.9490;
1183.8000;0.0741;-0.9422;
1184.1000;0.0716;-0.9490;
1184.4000;0.0773;-0.9422;
1184.7000;0.0733;-0.9558;
1185.0000;0.0733;-0.9535;
1185.3000;0.0749;-0.9490;
1185.6000;0.0741;-0.9445;
1185.9000;0.0749;-0.9399;
1186.2000;0.0749;-0.9422;
1186.5000;0.0806;-0.9263;
1186.8000;0.0724;-0.9422;
1187.1000;0.0733;-0.9445;
1187.4000;0.0765;-0.9422;
1187.7000;0.0700;-0.9513;
1188.0000;0.0716;-0.9513;
1188.3000;0.0749;-0.9445;
1188.6000;0.0814;-0.9309;
1188.9000;0.0733;-0.9513;
1189.2000;0.0741;-0.9513;
1189.5000;0.0619;-0.9784;
1189.8000;0.0741;-0.9422;
1190.1000;0.0749;-0.9467;
1190.4000;0.0749;-0.9558;
1190.7000;0.0741;-0.9513;
1191.0000;0.0838;-0.9377;
1191.3000;0.0708;-0.9671;
1191.6000;0.0749;-0.9581;
1191.9000;0.0724;-0.9490;
1192.2000;0.0724;-0.9467;
1192.5000;0.0733;-0.9331;
1192.8000;0.0757;-0.9331;
1193.1000;0.0643;-0.9626;
1193.4000;0.0741;-0.9331;
1193.7000;0.0741;-0.9286;
1194.0000;0.0773;-0.9196;
1194.3000;0.0757;-0.9286;
1194.6000;0.0757;-0.9422;
1194.9000;0.0716;-0.9581;
1195.2000;0.0798;-0.9422;
1195.5000;0.0757;-0.9535;
1195.8000;0.0765;-0.9399;
1196.1000;0.0781;-0.9331;
1196.4000;0.0667;-0.9603;
1196.7000;0.0749;-0.9399;
1197.0000;0.0733;-0.9331;
1197.3000;0.0749;-0.9286;
1197.6000;0.0724;-0.9354;
1197.9000;0.0724;-0.9422;
1198.2000;0.0733;-0.9399;
1198.5000;0.0741;-0.9377;
1198.8000;0.0741;-0.9399;
1199.1000;0.0749;-0.9354;
1199.4000;0.0749;-0.9263;
1199.7000;0.0741;-0.9377;
1200.0000;0.0749;-0.9377;
1200.3000;0.0749;-0.9309;
1200.6000;0.0692;-0.9399;
1200.9000;0.0830;-0.9150;
1201.2000;0.0741;-0.9331;
1201.5000;0.0733;-0.9422;
1201.8000;0.0733;-0.9354;
1202.1000;0.0700;-0.9422;
1202.4000;0.0724;-0.9331;
1202.7000;0.0765;-0.9286;
1203.0000;0.0741;-0.9399;
1203.3000;0.0741;-0.9490;
1203.6000;0.0635;-0.9694;
1203.9000;0.0659;-0.9671;
1204.2000;0.0749;-0.9422;
1204.5000;0.0733;-0.9377;
1204.8000;0.0749;-0.9331;
1205.1000;0.0724;-0.9377;
1205.4000;0.0781;-0.9218;
1205.7000;0.0741;-0.9286;
1206.0000;0.0716;-0.9286;
1206.3000;0.0716;-0.9263;
1206.6000;0.0708;-0.9286;
1206.9000;0.0733;-0.9218;
1207.2000;0.0757;-0.9173;
1207.5000;0.0749;-0.9218;
1207.8000;0.0733;-0.9309;
1208.1000;0.0790;-0.9173;
1208.4000;0.0741;-0.9309;
1208.7000;0.0790;-0.9150;
1209.0000;0.0741;-0.9286;
1209.3000;0.0741;-0.9263;
1209.6000;0.0741;-0.9218;
1209.9000;0.0724;-0.9241;
1210.2000;0.0733;-0.9196;
1210.5000;0.0733;-0.9196;
1210.8000;0.0749;-0.9218;
1211.1000;0.0765;-0.9105;
1211.4000;0.0724;-0.9196;
1211.7000;0.0838;-0.8946;
1212.0000;0.0733;-0.9286;
1212.3000;0.0741;-0.9331;
1212.6000;0.0667;-0.9558;
1212.9000;0.0733;-0.9399;
1213.2000;0.0741;-0.9331;
1213.5000;0.0741;-0.9354;
1213.8000;0.0733;-0.9377;
1214.1000;0.0757;-0.9377;
1214.4000;0.0749;-0.9354;
1214.7000;0.0724;-0.9445;
1215.0000;0.0733;-0.9445;
1215.3000;0.0741;-0.9399;
1215.6000;0.0773;-0.9331;
1215.9000;0.0741;-0.9422;
1216.2000;0.0741;-0.9399;
1216.5000;0.0684;-0.9490;
1216.8000;0.0749;-0.9377;
1217.1000;0.0741;-0.9331;
1217.4000;0.0741;-0.9263;
1217.7000;0.0773;-0.9263;
1218.0000;0.0692;-0.9581;
1218.3000;0.0806;-0.9218;
1218.6000;0.0708;-0.9399;
1218.9000;0.0659;-0.9490;
1219.2000;0.0757;-0.9218;
1219.5000;0.0733;-0.9377;
1219.8000;0.0724;-0.9467;
1220.1000;0.0757;-0.9377;
1220.4000;0.0733;-0.9286;
1220.7000;0.0741;-0.9263;
1221.0000;0.0749;-0.9286;
1221.3000;0.0627;-0.9671;
1221.6000;0.0733;-0.9354;
1221.9000;0.0741;-0.9331;
1222.2000;0.0757;-0.9354;
1222.5000;0.0749;-0.9309;
1222.8000;0.0708;-0.9331;
1223.1000;0.0757;-0.9196;
1223.4000;0.0733;-0.9173;
1223.7000;0.0716;-0.9196;
1224.0000;0.0741;-0.9128;
1224.3000;0.0741;-0.9105;
1224.6000;0.0708;-0.9309;
1224.9000;0.0741;-0.9286;
1225.2000;0.0757;-0.9286;
1225.5000;0.0741;-0.9241;
1225.8000;0.0749;-0.9173;
1226.1000;0.0765;-0.9060;
1226.4000;0.0749;-0.9150;
1226.7000;0.0757;-0.9105;
1227.0000;0.0619;-0.9513;
1227.3000;0.0716;-0.9173;
1227.6000;0.0676;-0.9218;
1227.9000;0.0741;-0.9060;
1228.2000;0.0749;-0.9105;
1228.5000;0.0724;-0.9241;
1228.8000;0.0741;-0.9196;
1229.1000;0.0733;-0.9196;
1229.4000;0.0651;-0.9331;
1229.7000;0.0684;-0.9377;
1230.0000;0.0733;-0.9241;
1230.3000;0.0716;-0.9286;
1230.6000;0.0708;-0.9331;
1230.9000;0.0676;-0.9399;
1231.2000;0.0741;-0.9309;
1231.5000;0.0741;-0.9377;
1231.8000;0.0733;-0.9445;
1232.1000;0.0733;-0.9513;
1232.4000;0.0733;-0.9490;
1232.7000;0.0667;-0.9762;
1233.0000;0.0733;-0.9558;
1233.3000;0.0741;-0.9445;
1233.6000;0.0741;-0.9467;
1233.9000;0.0667;-0.9649;
1234.2000;0.0749;-0.9354;
1234.5000;0.0724;-0.9354;
1234.8000;0.0733;-0.9286;
1235.1000;0.0741;-0.9263;
1235.4000;0.0757;-0.9218;
1235.7000;0.0700;-0.9241;
1236.0000;0.0733;-0.9105;
1236.3000;0.0757;-0.9105;
1236.6000;0.0724;-0.9150;
1236.9000;0.0724;-0.9128;
1237.2000;0.0716;-0.9082;
1237.5000;0.0724;-0.9128;
1237.8000;0.0716;-0.9241;
1238.1000;0.0741;-0.9218;
1238.4000;0.0757;-0.9218;
1238.7000;0.0773;-0.9173;
1239.0000;0.0724;-0.9241;
1239.3000;0.0741;-0.9150;
1239.6000;0.0741;-0.9196;
1239.9000;0.0757;-0.9218;
1240.2000;0.0749;-0.9218;
1240.5000;0.0741;-0.9196;
1240.8000;0.0692;-0.9331;
1241.1000;0.0765;-0.9196;
1241.4000;0.0749;-0.9196;
1241.7000;0.0790;-0.9105;
1242.0000;0.0741;-0.9218;
1242.3000;0.0741;-0.9128;
1242.6000;0.0741;-0.9173;
1242.9000;0.0741;-0.9128;
1243.2000;0.0741;-0.9082;
1243.5000;0.0733;-0.9037;
1243.8000;0.0733;-0.9082;
1244.1000;0.0716;-0.9150;
1244.4000;0.0733;-0.9173;
1244.7000;0.0863;-0.8924;
1245.0000;0.0724;-0.9263;
1245.3000;0.0806;-0.9150;
1245.6000;0.0724;-0.9286;
1245.9000;0.0749;-0.9196;
1246.2000;0.0708;-0.9309;
1246.5000;0.0765;-0.9241;
1246.8000;0.0733;-0.9309;
1247.1000;0.0790;-0.9128;
1247.4000;0.0781;-0.9128;
1247.7000;0.0814;-0.8992;
1248.0000;0.0773;-0.9128;
1248.3000;0.0781;-0.9082;
1248.6000;0.0830;-0.8992;
1248.9000;0.0757;-0.9218;
1249.2000;0.0757;-0.9150;
1249.5000;0.0716;-0.9263;
1249.8000;0.0733;-0.9218;
1250.1000;0.0724;-0.9196;
1250.4000;0.0708;-0.9309;
1250.7000;0.0757;-0.9173;
1251.0000;0.0733;-0.9173;
1251.3000;0.0749;-0.9150;
1251.6000;0.0733;-0.9128;
1251.9000;0.0855;-0.8856;
1252.2000;0.0733;-0.9263;
1252.5000;0.0733;-0.9309;
1252.8000;0.0733;-0.9377;
1253.1000;0.0741;-0.9354;
1253.4000;0.0716;-0.9467;
1253.7000;0.0757;-0.9331;
1254.0000;0.0781;-0.9263;
1254.3000;0.0749;-0.9377;
1254.6000;0.0733;-0.9354;
1254.9000;0.0716;-0.9377;
1255.2000;0.0741;-0.9377;
1255.5000;0.0741;-0.9377;
1255.8000;0.0733;-0.9354;
1256.1000;0.0781;-0.9218;
1256.4000;0.0749;-0.9218;
1256.7000;0.0741;-0.9218;
1257.0000;0.0692;-0.9354;
1257.3000;0.0765;-0.9241;
1257.6000;0.0724;-0.9309;
1257.9000;0.0741;-0.9377;
1258.2000;0.0741;-0.9331;
1258.5000;0.0741;-0.9218;
1258.8000;0.0749;-0.9196;
1259.1000;0.0733;-0.9150;
1259.4000;0.0741;-0.9241;
1259.7000;0.0659;-0.9535;
1260.0000;0.0716;-0.9354;
1260.3000;0.0708;-0.9331;
1260.6000;0.0741;-0.9196;
1260.9000;0.0724;-0.9263;
1261.2000;0.0733;-0.9309;
1261.5000;0.0716;-0.9377;
1261.8000;0.0757;-0.9399;
1262.1000;0.0708;-0.9467;
1262.4000;0.0749;-0.9331;
1262.7000;0.0684;-0.9535;
1263.0000;0.0757;-0.9354;
1263.3000;0.0781;-0.9263;
1263.6000;0.0741;-0.9309;
1263.9000;0.0741;-0.9263;
1264.2000;0.0700;-0.9422;
1264.5000;0.0749;-0.9309;
1264.8000;0.0676;-0.9490;
1265.1000;0.0749;-0.9286;
1265.4000;0.0749;-0.9331;
1265.7000;0.0798;-0.9196;
1266.0000;0.0757;-0.9286;
1266.3000;0.0847;-0.8969;
1266.6000;0.0619;-0.9603;
1266.9000;0.0757;-0.9241;
1267.2000;0.0692;-0.9399;
1267.5000;0.0741;-0.9082;
1267.8000;0.0724;-0.9173;
1268.1000;0.0749;-0.9150;
1268.4000;0.0757;-0.9173;
1268.7000;0.0741;-0.9218;
1269.0000;0.0724;-0.9196;
1269.3000;0.0716;-0.9263;
1269.6000;0.0757;-0.9196;
1269.9000;0.0733;-0.9241;
1270.2000;0.0724;-0.9309;
1270.5000;0.0733;-0.9218;
1270.8000;0.0749;-0.9128;
1271.1000;0.0749;-0.9128;
1271.4000;0.0700;-0.9286;
1271.7000;0.0749;-0.9196;
1272.0000;0.0773;-0.9150;
1272.3000;0.0757;-0.9196;
1272.6000;0.0733;-0.9286;
1272.9000;0.0741;-0.9309;
1273.2000;0.0749;-0.9218;
1273.5000;0.0741;-0.9218;
1273.8000;0.0733;-0.9241;
1274.1000;0.0733;-0.9196;
1274.4000;0.0741;-0.9105;
1274.7000;0.0749;-0.9060;
1275.0000;0.0692;-0.9218;
1275.3000;0.0716;-0.9218;
1275.6000;0.0724;-0.9263;
1275.9000;0.0733;-0.9218;
1276.2000;0.0749;-0.9173;
1276.5000;0.0733;-0.9218;
1276.8000;0.0765;-0.9196;
1277.1000;0.0741;-0.9218;
1277.4000;0.0749;-0.9150;
1277.7000;0.0708;-0.9241;
1278.0000;0.0741;-0.9150;
1278.3000;0.0733;-0.9241;
1278.6000;0.0765;-0.9218;
1278.9000;0.0757;-0.9218;
1279.2000;0.0733;-0.9263;
1279.5000;0.0724;-0.9263;
1279.8000;0.0733;-0.9173;
1280.1000;0.0724;-0.9196;
1280.4000;0.0700;-0.9218;
1280.7000;0.0733;-0.9037;
1281.0000;0.0798;-0.8901;
1281.3000;0.0741;-0.9037;
1281.6000;0.0733;-0.9173;
1281.9000;0.0741;-0.9105;
1282.2000;0.0749;-0.9060;
1282.5000;0.0790;-0.8992;
1282.8000;0.0733;-0.9105;
1283.1000;0.0716;-0.9060;
1283.4000;0.0724;-0.9128;
1283.7000;0.0733;-0.9150;
1284.0000;0.0708;-0.9263;
1284.3000;0.0741;-0.9196;
1284.6000;0.0765;-0.9105;
1284.9000;0.0749;-0.9196;
1285.2000;0.0724;-0.9309;
1285.5000;0.0611;-0.9581;
1285.8000;0.0749;-0.9196;
1286.1000;0.0659;-0.9377;
1286.4000;0.0684;-0.9331;
1286.7000;0.0749;-0.9105;
1287.0000;0.0676;-0.9286;
1287.3000;0.0708;-0.9105;
1287.6000;0.0724;-0.9082;
1287.9000;0.0749;-0.9060;
1288.2000;0.0741;-0.9037;
1288.5000;0.0765;-0.8992;
1288.8000;0.0749;-0.9014;
1289.1000;0.0790;-0.9037;
1289.4000;0.0773;-0.9105;
1289.7000;0.0773;-0.8969;
1290.0000;0.0716;-0.9128;
1290.3000;0.0692;-0.9173;
1290.6000;0.0716;-0.9241;
1290.9000;0.0741;-0.9241;
1291.2000;0.0773;-0.9150;
1291.5000;0.0741;-0.9263;
1291.8000;0.0830;-0.9014;
1292.1000;0.0724;-0.9218;
1292.4000;0.0708;-0.9218;
1292.7000;0.0700;-0.9377;
1293.0000;0.0724;-0.9309;
1293.3000;0.0830;-0.9014;
1293.6000;0.0708;-0.9218;
1293.9000;0.0724;-0.9196;
1294.2000;0.0741;-0.9105;
1294.5000;0.0708;-0.9173;
1294.8000;0.0733;-0.9082;
1295.1000;0.0716;-0.9082;
1295.4000;0.0724;-0.9150;
1295.7000;0.0733;-0.9150;
1296.0000;0.0741;-0.9014;
1296.3000;0.0733;-0.8992;
1296.6000;0.0741;-0.8924;
1296.9000;0.0749;-0.8969;
1297.2000;0.0757;-0.8969;
1297.5000;0.0733;-0.9014;
1297.8000;0.0733;-0.8992;
1298.1000;0.0700;-0.9082;
1298.4000;0.0733;-0.9014;
1298.7000;0.0733;-0.9060;
1299.0000;0.0765;-0.9105;
1299.3000;0.0741;-0.9128;
1299.6000;0.0724;-0.9105;
1299.9000;0.0741;-0.9014;
1300.2000;0.0741;-0.8946;
1300.5000;0.0716;-0.9014;
1300.8000;0.0749;-0.8992;
1301.1000;0.0765;-0.9037;
1301.4000;0.0700;-0.9218;
1301.7000;0.0733;-0.9128;
1302.0000;0.0724;-0.9082;
1302.3000;0.0749;-0.9060;
1302.6000;0.0733;-0.9037;
1302.9000;0.0733;-0.9037;
1303.2000;0.0749;-0.9014;
1303.5000;0.0749;-0.9105;
1303.8000;0.0765;-0.9105;
1304.1000;0.0733;-0.9128;
1304.4000;0.0773;-0.9060;
1304.7000;0.0757;-0.9150;
1305.0000;0.0741;-0.9173;
1305.3000;0.0757;-0.9173;
1305.6000;0.0733;-0.9196;
1305.9000;0.0749;-0.9173;
1306.2000;0.0749;-0.9196;
1306.5000;0.0822;-0.9014;
1306.8000;0.0733;-0.9263;
1307.1000;0.0733;-0.9286;
1307.4000;0.0781;-0.9014;
1307.7000;0.0741;-0.9128;
1308.0000;0.0733;-0.9196;
1308.3000;0.0741;-0.9128;
1308.6000;0.0757;-0.8992;
1308.9000;0.0749;-0.9014;
1309.2000;0.0700;-0.9150;
1309.5000;0.0749;-0.9150;
1309.8000;0.0733;-0.9241;
1310.1000;0.0676;-0.9399;
1310.4000;0.0708;-0.9331;
1310.7000;0.0676;-0.9354;
1311.0000;0.0741;-0.9173;
1311.3000;0.0741;-0.9173;
1311.6000;0.0765;-0.9173;
1311.9000;0.0741;-0.9105;
1312.2000;0.0741;-0.9128;
1312.5000;0.0733;-0.9060;
1312.8000;0.0676;-0.9241;
1313.1000;0.0724;-0.9196;
1313.4000;0.0741;-0.9173;
1313.7000;0.0741;-0.9173;
1314.0000;0.0708;-0.9150;
1314.3000;0.0749;-0.9128;
1314.6000;0.0749;-0.9196;
1314.9000;0.0708;-0.9263;
1315.2000;0.0741;-0.9173;
1315.5000;0.0757;-0.8992;
1315.8000;0.0700;-0.9128;
1316.1000;0.0749;-0.8992;
1316.4000;0.0757;-0.8924;
1316.7000;0.0765;-0.8901;
1317.0000;0.0716;-0.9082;
1317.3000;0.0757;-0.9082;
1317.6000;0.0765;-0.9060;
1317.9000;0.0724;-0.9128;
1318.2000;0.0733;-0.9173;
1318.5000;0.0741;-0.9173;
1318.8000;0.0741;-0.9196;
1319.1000;0.0741;-0.9150;
1319.4000;0.0724;-0.9128;
1319.7000;0.0733;-0.9037;
1320.0000;0.0757;-0.8969;
1320.3000;0.0708;-0.9014;
1320.6000;0.0733;-0.9060;
1320.9000;0.0749;-0.9037;
1321.2000;0.0667;-0.9286;
1321.5000;0.0733;-0.9173;
1321.8000;0.0692;-0.9377;
1322.1000;0.0741;-0.9196;
1322.4000;0.0781;-0.9014;
1322.7000;0.0700;-0.9173;
1323.0000;0.0733;-0.9082;
1323.3000;0.0749;-0.9082;
1323.6000;0.0765;-0.9082;
1323.9000;0.0765;-0.9128;
1324.2000;0.0733;-0.9263;
1324.5000;0.0749;-0.9263;
1324.8000;0.0741;-0.9399;
1325.1000;0.0733;-0.9377;
1325.4000;0.0847;-0.9196;
1325.7000;0.0798;-0.9218;
1326.0000;0.0749;-0.9241;
1326.3000;0.0700;-0.9309;
1326.6000;0.0830;-0.8969;
1326.9000;0.0741;-0.9196;
1327.2000;0.0765;-0.9128;
1327.5000;0.0724;-0.9218;
1327.8000;0.0741;-0.9263;
1328.1000;0.0741;-0.9286;
1328.4000;0.0741;-0.9263;
1328.7000;0.0667;-0.9422;
1329.0000;0.0724;-0.9150;
1329.3000;0.0733;-0.9150;
1329.6000;0.0741;-0.9060;
1329.9000;0.0708;-0.9173;
1330.2000;0.0724;-0.9173;
1330.5000;0.0716;-0.9218;
1330.8000;0.0749;-0.9150;
1331.1000;0.0659;-0.9377;
1331.4000;0.0708;-0.9309;
1331.7000;0.0741;-0.9241;
1332.0000;0.0741;-0.9128;
1332.3000;0.0757;-0.9105;
1332.6000;0.0749;-0.9082;
1332.9000;0.0765;-0.9128;
1333.2000;0.0757;-0.9173;
1333.5000;0.0716;-0.9263;
1333.8000;0.0741;-0.9196;
1334.1000;0.0822;-0.8992;
1334.4000;0.0757;-0.9150;
1334.7000;0.0733;-0.9196;
1335.0000;0.0765;-0.9173;
1335.3000;0.0741;-0.9354;
1335.6000;0.0724;-0.9377;
1335.9000;0.0733;-0.9445;
1336.2000;0.0822;-0.9196;
1336.5000;0.0724;-0.9377;
1336.8000;0.0724;-0.9399;
1337.1000;0.0773;-0.9309;
1337.4000;0.0749;-0.9331;
1337.7000;0.0757;-0.9309;
1338.0000;0.0749;-0.9241;
1338.3000;0.0724;-0.9286;
1338.6000;0.0781;-0.9173;
1338.9000;0.0741;-0.9309;
1339.2000;0.0749;-0.9218;
1339.5000;0.0781;-0.9173;
1339.8000;0.0741;-0.9286;
1340.1000;0.0757;-0.9150;
1340.4000;0.0741;-0.9173;
1340.7000;0.0708;-0.9218;
1341.0000;0.0724;-0.9241;
1341.3000;0.0749;-0.9196;
1341.6000;0.0749;-0.9196;
1341.9000;0.0676;-0.9422;
1342.2000;0.0757;-0.9241;
1342.5000;0.0749;-0.9331;
1342.8000;0.0765;-0.9241;
1343.1000;0.0708;-0.9399;
1343.4000;0.0741;-0.9354;
1343.7000;0.0773;-0.9241;
1344.0000;0.0773;-0.9354;
1344.3000;0.0765;-0.9354;
1344.6000;0.0724;-0.9354;
1344.9000;0.0700;-0.9354;
1345.2000;0.0716;-0.9422;
1345.5000;0.0708;-0.9422;
1345.8000;0.0741;-0.9354;
1346.1000;0.0733;-0.9331;
1346.4000;0.0733;-0.9354;
1346.7000;0.0749;-0.9263;
1347.0000;0.0708;-0.9309;
1347.3000;0.0733;-0.9309;
1347.6000;0.0716;-0.9263;
1347.9000;0.0814;-0.9082;
1348.2000;0.0724;-0.9286;
1348.5000;0.0757;-0.9241;
1348.8000;0.0741;-0.9377;
1349.1000;0.0757;-0.9422;
1349.4000;0.0757;-0.9399;
1349.7000;0.0790;-0.9309;
1350.0000;0.0741;-0.9467;
1350.3000;0.0757;-0.9445;
1350.6000;0.0749;-0.9422;
1350.9000;0.0724;-0.9467;
1351.2000;0.0708;-0.9445;
1351.5000;0.0798;-0.9173;
1351.8000;0.0741;-0.9331;
1352.1000;0.0757;-0.9286;
1352.4000;0.0765;-0.9286;
1352.7000;0.0741;-0.9263;
1353.0000;0.0757;-0.9196;
1353.3000;0.0749;-0.9241;
1353.6000;0.0741;-0.9241;
1353.9000;0.0822;-0.8946;
1354.2000;0.0700;-0.9241;
1354.5000;0.0757;-0.9128;
1354.8000;0.0716;-0.9218;
1355.1000;0.0643;-0.9467;
1355.4000;0.0749;-0.9173;
1355.7000;0.0733;-0.9286;
1356.0000;0.0716;-0.9309;
1356.3000;0.0773;-0.9196;
1356.6000;0.0749;-0.9173;
1356.9000;0.0741;-0.9241;
1357.2000;0.0724;-0.9218;
1357.5000;0.0741;-0.9173;
1357.8000;0.0741;-0.9173;
1358.1000;0.0684;-0.9286;
1358.4000;0.0724;-0.9173;
1358.7000;0.0692;-0.9309;
1359.0000;0.0765;-0.9150;
1359.3000;0.0724;-0.9286;
1359.6000;0.0733;-0.9286;
1359.9000;0.0724;-0.9263;
1360.2000;0.0635;-0.9445;
1360.5000;0.0855;-0.8878;
1360.8000;0.0724;-0.9241;
1361.1000;0.0676;-0.9377;
1361.4000;0.0806;-0.9014;
1361.7000;0.0847;-0.8856;
1362.0000;0.0741;-0.9105;
1362.3000;0.0741;-0.9241;
1362.6000;0.0733;-0.9263;
1362.9000;0.0749;-0.9241;
1363.2000;0.0765;-0.9196;
1363.5000;0.0724;-0.9377;
1363.8000;0.0741;-0.9286;
1364.1000;0.0741;-0.9354;
1364.4000;0.0749;-0.9309;
1364.7000;0.0733;-0.9354;
1365.0000;0.0733;-0.9377;
1365.3000;0.0733;-0.9377;
1365.6000;0.0790;-0.9309;
1365.9000;0.0749;-0.9309;
1366.2000;0.0814;-0.9173;
1366.5000;0.0773;-0.9286;
1366.8000;0.0749;-0.9354;
1367.1000;0.0749;-0.9286;
1367.4000;0.0765;-0.9218;
1367.7000;0.0733;-0.9241;
1368.0000;0.0733;-0.9241;
1368.3000;0.0733;-0.9196;
1368.6000;0.0741;-0.9241;
1368.9000;0.0757;-0.9196;
1369.2000;0.0741;-0.9286;
1369.5000;0.0781;-0.9150;
1369.8000;0.0741;-0.9263;
1370.1000;0.0724;-0.9218;
1370.4000;0.0749;-0.9128;
1370.7000;0.0733;-0.9105;
1371.0000;0.0724;-0.9128;
1371.3000;0.0741;-0.9196;
1371.6000;0.0749;-0.9286;
1371.9000;0.0724;-0.9354;
1372.2000;0.0749;-0.9309;
1372.5000;0.0700;-0.9490;
1372.8000;0.0733;-0.9377;
1373.1000;0.0749;-0.9309;
1373.4000;0.0724;-0.9354;
1373.7000;0.0700;-0.9354;
1374.0000;0.0757;-0.9105;
1374.3000;0.0724;-0.9082;
1374.6000;0.0708;-0.9128;
1374.9000;0.0765;-0.9060;
1375.2000;0.0757;-0.9060;
1375.5000;0.0757;-0.9105;
1375.8000;0.0708;-0.9263;
1376.1000;0.0724;-0.9173;
1376.4000;0.0773;-0.9128;
1376.7000;0.0667;-0.9309;
1377.0000;0.0781;-0.8992;
1377.3000;0.0724;-0.9173;
1377.6000;0.0741;-0.9150;
1377.9000;0.0741;-0.9105;
1378.2000;0.0765;-0.9037;
1378.5000;0.0757;-0.8992;
1378.8000;0.0741;-0.9037;
1379.1000;0.0716;-0.9150;
1379.4000;0.0749;-0.9037;
1379.7000;0.0733;-0.9060;
1380.0000;0.0733;-0.9060;
1380.3000;0.0781;-0.9060;
1380.6000;0.0733;-0.9173;
1380.9000;0.0757;-0.9150;
1381.2000;0.0716;-0.9309;
1381.5000;0.0757;-0.9218;
1381.8000;0.0741;-0.9241;
1382.1000;0.0716;-0.9241;
1382.4000;0.0733;-0.9196;
1382.7000;0.0692;-0.9309;
1383.0000;0.0749;-0.9196;
1383.3000;0.0781;-0.9082;
1383.6000;0.0733;-0.9218;
1383.9000;0.0724;-0.9263;
1384.2000;0.0741;-0.9263;
1384.5000;0.0692;-0.9422;
1384.8000;0.0692;-0.9399;
1385.1000;0.0676;-0.9445;
1385.4000;0.0700;-0.9422;
1385.7000;0.0741;-0.9331;
1386.0000;0.0757;-0.9309;
1386.3000;0.0741;-0.9331;
1386.6000;0.0708;-0.9399;
1386.9000;0.0757;-0.9286;
1387.2000;0.0741;-0.9354;
1387.5000;0.0773;-0.9241;
1387.8000;0.0733;-0.9354;
1388.1000;0.0733;-0.9309;
1388.4000;0.0724;-0.9309;
1388.7000;0.0733;-0.9218;
1389.0000;0.0749;-0.9196;
1389.3000;0.0733;-0.9196;
1389.6000;0.0733;-0.9150;
1389.9000;0.0733;-0.9128;
1390.2000;0.0724;-0.9128;
1390.5000;0.0733;-0.9241;
1390.8000;0.0724;-0.9286;
1391.1000;0.0741;-0.9241;
1391.4000;0.0733;-0.9286;
1391.7000;0.0741;-0.9309;
1392.0000;0.0773;-0.9286;
1392.3000;0.0724;-0.9377;
1392.6000;0.0749;-0.9241;
1392.9000;0.0749;-0.9218;
1393.2000;0.0684;-0.9331;
1393.5000;0.0692;-0.9286;
1393.8000;0.0733;-0.9196;
1394.1000;0.0741;-0.9241;
1394.4000;0.0806;-0.9060;
1394.7000;0.0724;-0.9331;
1395.0000;0.0741;-0.9263;
1395.3000;0.0724;-0.9377;
1395.6000;0.0708;-0.9445;
1395.9000;0.0733;-0.9173;
1396.2000;0.0749;-0.9173;
1396.5000;0.0741;-0.9173;
1396.8000;0.0757;-0.9105;
1397.1000;0.0708;-0.9218;
1397.4000;0.0757;-0.8992;
1397.7000;0.0716;-0.9060;
1398.0000;0.0749;-0.9105;
1398.3000;0.0733;-0.9128;
1398.6000;0.0619;-0.9445;
1398.9000;0.0733;-0.9105;
1399.2000;0.0733;-0.9150;
1399.5000;0.0928;-0.8697;
1399.8000;0.0741;-0.9173;
