time/ms;Fluo/V;P700 deltaI/I x10³;
-199.8000;0.0879;-0.9196;
-199.5000;0.0798;-0.9263;
-199.2000;0.0790;-0.9309;
-198.9000;0.0814;-0.9173;
-198.6000;0.0814;-0.9286;
-198.3000;0.0806;-0.9399;
-198.0000;0.0790;-0.9399;
-197.7000;0.0822;-0.9354;
-197.4000;0.0814;-0.9377;
-197.1000;0.0822;-0.9377;
-196.8000;0.0798;-0.9422;
-196.5000;0.0806;-0.9467;
-196.2000;0.0830;-0.9422;
-195.9000;0.0822;-0.9490;
-195.6000;0.0822;-0.9422;
-195.3000;0.0814;-0.9377;
-195.0000;0.0822;-0.9331;
-194.7000;0.0798;-0.9377;
-194.4000;0.0814;-0.9331;
-194.1000;0.0708;-0.9558;
-193.8000;0.0790;-0.9309;
-193.5000;0.0822;-0.9196;
-193.2000;0.0798;-0.9286;
-192.9000;0.0773;-0.9309;
-192.6000;0.0781;-0.9331;
-192.3000;0.0830;-0.9196;
-192.0000;0.0814;-0.9173;
-191.7000;0.0928;-0.8810;
-191.4000;0.0847;-0.9105;
-191.1000;0.0830;-0.9150;
-190.8000;0.0798;-0.9309;
-190.5000;0.0814;-0.9241;
-190.2000;0.0871;-0.9128;
-189.9000;0.0855;-0.9173;
-189.6000;0.0822;-0.9354;
-189.3000;0.0855;-0.9241;
-189.0000;0.0806;-0.9263;
-188.7000;0.0806;-0.9263;
-188.4000;0.0798;-0.9331;
-188.1000;0.0814;-0.9354;
-187.8000;0.0798;-0.9422;
-187.5000;0.0798;-0.9422;
-187.2000;0.0863;-0.9218;
-186.9000;0.0822;-0.9286;
-186.6000;0.0822;-0.9309;
-186.3000;0.0798;-0.9331;
-186.0000;0.0822;-0.9286;
-185.7000;0.0830;-0.9354;
-185.4000;0.0790;-0.9422;
-185.1000;0.0814;-0.9354;
-184.8000;0.1058;-0.8720;
-184.5000;0.0822;-0.9173;
-184.2000;0.0822;-0.9128;
-183.9000;0.0798;-0.9150;
-183.6000;0.0838;-0.9128;
-183.3000;0.0830;-0.9218;
-183.0000;0.0757;-0.9445;
-182.7000;0.0741;-0.9535;
-182.4000;0.0798;-0.9354;
-182.1000;0.0741;-0.9490;
-181.8000;0.0830;-0.9196;
-181.5000;0.0806;-0.9241;
-181.2000;0.0806;-0.9218;
-180.9000;0.0814;-0.9173;
-180.6000;0.0847;-0.9037;
-180.3000;0.0806;-0.9196;
-180.0000;0.0806;-0.9309;
-179.7000;0.0814;-0.9309;
-179.4000;0.0741;-0.9445;
-179.1000;0.0798;-0.9331;
-178.8000;0.0798;-0.9173;
-178.5000;0.0822;-0.9173;
-178.2000;0.0822;-0.9150;
-177.9000;0.0781;-0.9286;
-177.6000;0.0814;-0.9150;
-177.3000;0.0838;-0.9128;
-177.0000;0.0847;-0.9105;
-176.7000;0.0790;-0.9241;
-176.4000;0.0781;-0.9263;
-176.1000;0.0806;-0.9196;
-175.8000;0.0822;-0.9128;
-175.5000;0.0838;-0.9196;
-175.2000;0.0798;-0.9286;
-174.9000;0.0806;-0.9263;
-174.6000;0.0814;-0.9196;
-174.3000;0.0814;-0.9309;
-174.0000;0.0830;-0.9241;
-173.7000;0.0798;-0.9263;
-173.4000;0.0822;-0.9286;
-173.1000;0.0806;-0.9377;
-172.8000;0.0838;-0.9286;
-172.5000;0.0806;-0.9377;
-172.2000;0.0814;-0.9331;
-171.9000;0.0969;-0.8878;
-171.6000;0.0806;-0.9263;
-171.3000;0.0830;-0.9196;
-171.0000;0.0822;-0.9218;
-170.7000;0.0855;-0.9173;
-170.4000;0.0814;-0.9263;
-170.1000;0.0830;-0.9241;
-169.8000;0.0781;-0.9286;
-169.5000;0.0806;-0.9218;
-169.2000;0.0912;-0.8924;
-168.9000;0.0871;-0.9037;
-168.6000;0.0790;-0.9173;
-168.3000;0.0814;-0.9082;
-168.0000;0.0798;-0.9196;
-167.7000;0.0724;-0.9354;
-167.4000;0.0855;-0.9173;
-167.1000;0.0814;-0.9399;
-166.8000;0.0749;-0.9490;
-166.5000;0.0822;-0.9241;
-166.2000;0.0863;-0.9128;
-165.9000;0.0928;-0.9037;
-165.6000;0.0838;-0.9286;
-165.3000;0.0806;-0.9309;
-165.0000;0.0822;-0.9331;
-164.7000;0.0822;-0.9331;
-164.4000;0.0806;-0.9331;
-164.1000;0.0830;-0.9218;
-163.8000;0.0806;-0.9173;
-163.5000;0.0822;-0.9196;
-163.2000;0.0887;-0.9014;
-162.9000;0.0781;-0.9331;
-162.6000;0.0790;-0.9286;
-162.3000;0.0822;-0.9196;
-162.0000;0.0806;-0.9150;
-161.7000;0.0806;-0.9082;
-161.4000;0.0806;-0.9128;
-161.1000;0.0814;-0.9150;
-160.8000;0.0822;-0.9241;
-160.5000;0.0814;-0.9241;
-160.2000;0.0863;-0.9128;
-159.9000;0.0798;-0.9286;
-159.6000;0.0806;-0.9263;
-159.3000;0.0814;-0.9196;
-159.0000;0.0757;-0.9354;
-158.7000;0.0887;-0.9037;
-158.4000;0.0806;-0.9196;
-158.1000;0.0806;-0.9173;
-157.8000;0.0838;-0.9105;
-157.5000;0.0822;-0.9173;
-157.2000;0.0838;-0.9150;
-156.9000;0.0773;-0.9286;
-156.6000;0.0749;-0.9354;
-156.3000;0.0830;-0.9173;
-156.0000;0.0822;-0.9263;
-155.7000;0.0879;-0.9082;
-155.4000;0.0863;-0.9150;
-155.1000;0.0806;-0.9331;
-154.8000;0.0781;-0.9399;
-154.5000;0.0830;-0.9286;
-154.2000;0.0920;-0.9173;
-153.9000;0.0765;-0.9535;
-153.6000;0.0814;-0.9399;
-153.3000;0.0814;-0.9422;
-153.0000;0.0822;-0.9354;
-152.7000;0.0806;-0.9377;
-152.4000;0.0806;-0.9331;
-152.1000;0.0822;-0.9196;
-151.8000;0.0822;-0.9196;
-151.5000;0.0879;-0.9037;
-151.2000;0.0822;-0.9128;
-150.9000;0.0798;-0.9263;
-150.6000;0.0790;-0.9377;
-150.3000;0.0806;-0.9286;
-150.0000;0.0773;-0.9309;
-149.7000;0.0895;-0.8969;
-149.4000;0.0806;-0.9105;
-149.1000;0.0830;-0.9082;
-148.8000;0.0814;-0.9128;
-148.5000;0.0822;-0.9060;
-148.2000;0.0830;-0.9082;
-147.9000;0.0838;-0.9037;
-147.6000;0.0830;-0.9082;
-147.3000;0.0822;-0.9241;
-147.0000;0.0838;-0.9196;
-146.7000;0.0838;-0.9173;
-146.4000;0.0814;-0.9196;
-146.1000;0.0798;-0.9218;
-145.8000;0.0814;-0.9218;
-145.5000;0.0838;-0.9173;
-145.2000;0.0822;-0.9241;
-144.9000;0.0863;-0.9014;
-144.6000;0.0830;-0.9082;
-144.3000;0.0790;-0.9218;
-144.0000;0.0806;-0.9060;
-143.7000;0.0806;-0.9082;
-143.4000;0.0822;-0.9105;
-143.1000;0.0781;-0.9263;
-142.8000;0.0855;-0.9128;
-142.5000;0.0822;-0.9263;
-142.2000;0.0887;-0.9037;
-141.9000;0.0822;-0.9150;
-141.6000;0.0814;-0.9286;
-141.3000;0.0830;-0.9173;
-141.0000;0.0798;-0.9286;
-140.7000;0.0814;-0.9196;
-140.4000;0.0806;-0.9309;
-140.1000;0.0847;-0.9150;
-139.8000;0.0838;-0.9218;
-139.5000;0.0798;-0.9331;
-139.2000;0.0830;-0.9196;
-138.9000;0.0838;-0.9128;
-138.6000;0.0814;-0.9218;
-138.3000;0.0781;-0.9263;
-138.0000;0.0838;-0.9082;
-137.7000;0.0822;-0.9105;
-137.4000;0.0806;-0.9218;
-137.1000;0.0798;-0.9196;
-136.8000;0.0798;-0.9173;
-136.5000;0.0838;-0.9128;
-136.2000;0.0798;-0.9150;
-135.9000;0.0863;-0.9037;
-135.6000;0.0838;-0.9105;
-135.3000;0.0806;-0.9263;
-135.0000;0.0781;-0.9263;
-134.7000;0.0838;-0.9196;
-134.4000;0.0814;-0.9196;
-134.1000;0.0806;-0.9241;
-133.8000;0.0806;-0.9241;
-133.5000;0.0814;-0.9173;
-133.2000;0.0781;-0.9331;
-132.9000;0.0830;-0.9218;
-132.6000;0.0806;-0.9263;
-132.3000;0.0806;-0.9241;
-132.0000;0.0806;-0.9263;
-131.7000;0.0798;-0.9309;
-131.4000;0.0798;-0.9196;
-131.1000;0.0724;-0.9331;
-130.8000;0.0814;-0.9128;
-130.5000;0.0781;-0.9173;
-130.2000;0.0814;-0.9060;
-129.9000;0.0830;-0.9014;
-129.6000;0.0830;-0.8992;
-129.3000;0.0830;-0.9037;
-129.0000;0.0814;-0.9037;
-128.7000;0.0765;-0.9128;
-128.4000;0.0773;-0.9105;
-128.1000;0.0798;-0.9128;
-127.8000;0.0838;-0.9060;
-127.5000;0.0684;-0.9513;
-127.2000;0.0790;-0.9331;
-126.9000;0.0757;-0.9377;
-126.6000;0.0838;-0.9173;
-126.3000;0.0822;-0.9173;
-126.0000;0.0806;-0.9128;
-125.7000;0.0781;-0.9196;
-125.4000;0.0814;-0.9196;
-125.1000;0.0822;-0.9218;
-124.8000;0.0830;-0.9263;
-124.5000;0.0781;-0.9354;
-124.2000;0.0830;-0.9196;
-123.9000;0.0798;-0.9286;
-123.6000;0.0806;-0.9241;
-123.3000;0.0847;-0.9150;
-123.0000;0.0798;-0.9241;
-122.7000;0.0798;-0.9377;
-122.4000;0.0814;-0.9286;
-122.1000;0.0847;-0.9309;
-121.8000;0.0806;-0.9377;
-121.5000;0.0798;-0.9445;
-121.2000;0.0806;-0.9490;
-120.9000;0.0838;-0.9422;
-120.6000;0.0798;-0.9535;
-120.3000;0.0871;-0.9354;
-120.0000;0.0830;-0.9422;
-119.7000;0.0765;-0.9490;
-119.4000;0.0798;-0.9377;
-119.1000;0.0830;-0.9286;
-118.8000;0.0822;-0.9196;
-118.5000;0.0814;-0.9150;
-118.2000;0.0708;-0.9399;
-117.9000;0.0822;-0.9128;
-117.6000;0.0798;-0.9263;
-117.3000;0.0773;-0.9309;
-117.0000;0.0806;-0.9196;
-116.7000;0.0822;-0.9263;
-116.4000;0.0814;-0.9241;
-116.1000;0.0830;-0.9218;
-115.8000;0.0814;-0.9196;
-115.5000;0.0814;-0.9128;
-115.2000;0.0822;-0.9150;
-114.9000;0.0798;-0.9196;
-114.6000;0.0798;-0.9241;
-114.3000;0.0806;-0.9241;
-114.0000;0.0806;-0.9173;
-113.7000;0.0806;-0.9218;
-113.4000;0.0830;-0.9241;
-113.1000;0.0814;-0.9263;
-112.8000;0.0814;-0.9331;
-112.5000;0.0814;-0.9354;
-112.2000;0.0798;-0.9286;
-111.9000;0.0806;-0.9196;
-111.6000;0.0806;-0.9173;
-111.3000;0.0806;-0.9173;
-111.0000;0.0814;-0.9218;
-110.7000;0.0912;-0.8901;
-110.4000;0.0806;-0.9128;
-110.1000;0.0806;-0.9105;
-109.8000;0.0847;-0.8878;
-109.5000;0.0838;-0.8969;
-109.2000;0.0798;-0.9060;
-108.9000;0.0651;-0.9354;
-108.6000;0.0798;-0.9037;
-108.3000;0.0822;-0.9014;
-108.0000;0.0806;-0.9060;
-107.7000;0.0806;-0.9060;
-107.4000;0.0806;-0.9060;
-107.1000;0.0814;-0.9128;
-106.8000;0.0806;-0.9218;
-106.5000;0.0814;-0.9196;
-106.2000;0.0798;-0.9263;
-105.9000;0.0806;-0.9241;
-105.6000;0.0814;-0.9218;
-105.3000;0.0830;-0.9241;
-105.0000;0.0749;-0.9422;
-104.7000;0.0814;-0.9241;
-104.4000;0.0814;-0.9218;
-104.1000;0.0822;-0.9196;
-103.8000;0.0822;-0.9241;
-103.5000;0.0863;-0.9082;
-103.2000;0.0798;-0.9263;
-102.9000;0.0822;-0.9128;
-102.6000;0.0765;-0.9309;
-102.3000;0.0790;-0.9218;
-102.0000;0.0879;-0.8946;
-101.7000;0.0814;-0.9060;
-101.4000;0.0814;-0.9037;
-101.1000;0.0830;-0.8992;
-100.8000;0.0822;-0.9105;
-100.5000;0.0822;-0.9060;
-100.2000;0.0830;-0.9014;
-99.9000;0.0855;-0.8901;
-99.6000;0.0838;-0.8946;
-99.3000;0.0822;-0.9037;
-99.0000;0.0822;-0.9263;
-98.7000;0.0798;-0.9377;
-98.4000;0.0806;-0.9286;
-98.1000;0.0838;-0.9286;
-97.8000;0.0806;-0.9331;
-97.5000;0.0822;-0.9309;
-97.2000;0.0887;-0.9105;
-96.9000;0.0838;-0.9218;
-96.6000;0.0798;-0.9241;
-96.3000;0.0724;-0.9399;
-96.0000;0.0806;-0.9241;
-95.7000;0.0814;-0.9241;
-95.4000;0.0814;-0.9263;
-95.1000;0.0798;-0.9309;
-94.8000;0.0830;-0.9218;
-94.5000;0.0822;-0.9263;
-94.2000;0.0749;-0.9422;
-93.9000;0.0765;-0.9331;
-93.6000;0.0781;-0.9331;
-93.3000;0.0830;-0.9241;
-93.0000;0.0822;-0.9309;
-92.7000;0.0806;-0.9399;
-92.4000;0.0806;-0.9399;
-92.1000;0.0798;-0.9354;
-91.8000;0.0838;-0.9263;
-91.5000;0.0822;-0.9331;
-91.2000;0.0806;-0.9377;
-90.9000;0.0830;-0.9354;
-90.6000;0.0806;-0.9399;
-90.3000;0.0822;-0.9377;
-90.0000;0.0822;-0.9354;
-89.7000;0.0847;-0.9377;
-89.4000;0.0814;-0.9467;
-89.1000;0.0822;-0.9467;
-88.8000;0.0806;-0.9467;
-88.5000;0.0822;-0.9331;
-88.2000;0.0814;-0.9286;
-87.9000;0.0814;-0.9241;
-87.6000;0.0814;-0.9241;
-87.3000;0.0814;-0.9173;
-87.0000;0.0838;-0.9105;
-86.7000;0.0822;-0.9128;
-86.4000;0.0822;-0.9105;
-86.1000;0.0830;-0.9082;
-85.8000;0.0814;-0.9150;
-85.5000;0.0830;-0.9060;
-85.2000;0.0806;-0.9263;
-84.9000;0.0830;-0.9150;
-84.6000;0.0830;-0.9128;
-84.3000;0.0806;-0.9196;
-84.0000;0.0814;-0.9082;
-83.7000;0.0806;-0.9060;
-83.4000;0.0806;-0.9060;
-83.1000;0.0822;-0.8992;
-82.8000;0.0733;-0.9263;
-82.5000;0.0806;-0.9037;
-82.2000;0.0798;-0.9082;
-81.9000;0.0798;-0.9082;
-81.6000;0.0806;-0.9128;
-81.3000;0.0806;-0.9082;
-81.0000;0.0798;-0.9037;
-80.7000;0.0806;-0.9082;
-80.4000;0.0822;-0.9105;
-80.1000;0.0757;-0.9354;
-79.8000;0.0757;-0.9422;
-79.5000;0.0830;-0.9286;
-79.2000;0.0830;-0.9286;
-78.9000;0.0838;-0.9218;
-78.6000;0.0790;-0.9241;
-78.3000;0.0887;-0.9082;
-78.0000;0.0757;-0.9513;
-77.7000;0.0822;-0.9354;
-77.4000;0.0822;-0.9377;
-77.1000;0.0822;-0.9263;
-76.8000;0.0830;-0.9331;
-76.5000;0.0814;-0.9331;
-76.2000;0.0822;-0.9263;
-75.9000;0.0912;-0.9060;
-75.6000;0.0822;-0.9196;
-75.3000;0.0847;-0.9218;
-75.0000;0.0790;-0.9377;
-74.7000;0.0814;-0.9263;
-74.4000;0.0806;-0.9354;
-74.1000;0.0765;-0.9399;
-73.8000;0.0814;-0.9309;
-73.5000;0.0806;-0.9331;
-73.2000;0.0822;-0.9263;
-72.9000;0.0781;-0.9354;
-72.6000;0.0822;-0.9263;
-72.3000;0.0692;-0.9603;
-72.0000;0.0847;-0.9218;
-71.7000;0.0822;-0.9377;
-71.4000;0.0814;-0.9377;
-71.1000;0.0806;-0.9263;
-70.8000;0.0822;-0.9196;
-70.5000;0.0822;-0.9173;
-70.2000;0.0798;-0.9196;
-69.9000;0.0822;-0.9128;
-69.6000;0.0790;-0.9150;
-69.3000;0.0806;-0.9173;
-69.0000;0.0814;-0.9241;
-68.7000;0.0830;-0.9218;
-68.4000;0.0822;-0.9286;
-68.1000;0.0847;-0.9218;
-67.8000;0.0798;-0.9196;
-67.5000;0.0798;-0.9218;
-67.2000;0.0887;-0.8992;
-66.9000;0.0814;-0.9218;
-66.6000;0.0765;-0.9354;
-66.3000;0.0798;-0.9196;
-66.0000;0.0814;-0.9105;
-65.7000;0.0781;-0.9150;
-65.4000;0.0830;-0.9037;
-65.1000;0.0790;-0.9060;
-64.8000;0.0798;-0.9037;
-64.5000;0.0895;-0.8969;
-64.2000;0.0806;-0.9196;
-63.9000;0.0822;-0.9128;
-63.6000;0.0716;-0.9445;
-63.3000;0.0773;-0.9331;
-63.0000;0.0806;-0.9309;
-62.7000;0.0838;-0.9241;
-62.4000;0.0822;-0.9218;
-62.1000;0.0814;-0.9218;
-61.8000;0.0822;-0.9263;
-61.5000;0.0822;-0.9263;
-61.2000;0.0790;-0.9309;
-60.9000;0.0822;-0.9286;
-60.6000;0.0814;-0.9263;
-60.3000;0.0830;-0.9150;
-60.0000;0.0806;-0.9263;
-59.7000;0.0814;-0.9150;
-59.4000;0.0814;-0.9196;
-59.1000;0.0814;-0.9196;
-58.8000;0.0847;-0.9037;
-58.5000;0.0806;-0.9173;
-58.2000;0.0806;-0.9173;
-57.9000;0.0855;-0.9105;
-57.6000;0.0724;-0.9422;
-57.3000;0.0806;-0.9241;
-57.0000;0.0830;-0.9218;
-56.7000;0.0830;-0.9082;
-56.4000;0.0822;-0.9196;
-56.1000;0.0895;-0.9037;
-55.8000;0.0798;-0.9286;
-55.5000;0.0838;-0.9128;
-55.2000;0.0830;-0.9128;
-54.9000;0.0822;-0.9105;
-54.6000;0.0814;-0.9173;
-54.3000;0.0814;-0.9150;
-54.0000;0.0822;-0.9128;
-53.7000;0.0847;-0.9105;
-53.4000;0.0814;-0.9241;
-53.1000;0.0798;-0.9173;
-52.8000;0.0806;-0.9150;
-52.5000;0.0814;-0.9105;
-52.2000;0.0847;-0.8992;
-51.9000;0.0757;-0.9286;
-51.6000;0.0830;-0.9105;
-51.3000;0.0838;-0.9105;
-51.0000;0.0814;-0.9150;
-50.7000;0.0838;-0.9150;
-50.4000;0.0838;-0.9105;
-50.1000;0.0741;-0.9286;
-49.8000;0.0790;-0.9150;
-49.5000;0.0830;-0.9037;
-49.2000;0.0871;-0.8946;
-48.9000;0.0765;-0.9309;
-48.6000;0.0822;-0.9241;
-48.3000;0.0757;-0.9422;
-48.0000;0.0822;-0.9196;
-47.7000;0.0806;-0.9263;
-47.4000;0.0806;-0.9196;
-47.1000;0.0790;-0.9241;
-46.8000;0.0814;-0.9150;
-46.5000;0.0806;-0.9128;
-46.2000;0.0822;-0.9105;
-45.9000;0.0871;-0.9014;
-45.6000;0.0806;-0.9173;
-45.3000;0.0806;-0.9150;
-45.0000;0.0814;-0.9082;
-44.7000;0.0806;-0.9037;
-44.4000;0.0830;-0.9014;
-44.1000;0.0806;-0.9037;
-43.8000;0.0847;-0.8992;
-43.5000;0.0773;-0.9218;
-43.2000;0.0814;-0.9060;
-42.9000;0.0814;-0.9082;
-42.6000;0.0830;-0.9014;
-42.3000;0.0822;-0.9060;
-42.0000;0.0855;-0.9037;
-41.7000;0.0838;-0.9014;
-41.4000;0.0871;-0.8946;
-41.1000;0.0830;-0.8969;
-40.8000;0.0847;-0.8946;
-40.5000;0.0822;-0.9060;
-40.2000;0.0838;-0.8969;
-39.9000;0.0822;-0.9014;
-39.6000;0.0830;-0.8992;
-39.3000;0.0830;-0.8969;
-39.0000;0.0895;-0.8788;
-38.7000;0.0790;-0.9105;
-38.4000;0.0798;-0.9173;
-38.1000;0.0733;-0.9422;
-37.8000;0.0757;-0.9331;
-37.5000;0.0814;-0.9196;
-37.2000;0.0830;-0.9128;
-36.9000;0.0806;-0.9196;
-36.6000;0.0830;-0.9263;
-36.3000;0.0798;-0.9331;
-36.0000;0.0838;-0.9309;
-35.7000;0.0806;-0.9354;
-35.4000;0.0822;-0.9309;
-35.1000;0.0838;-0.9490;
-34.8000;0.0822;-0.9535;
-34.5000;0.0741;-0.9671;
-34.2000;0.0757;-0.9467;
-33.9000;0.0790;-0.9286;
-33.6000;0.0830;-0.9241;
-33.3000;0.0806;-0.9309;
-33.0000;0.0830;-0.9218;
-32.7000;0.0969;-0.8788;
-32.4000;0.0838;-0.9037;
-32.1000;0.0830;-0.9037;
-31.8000;0.0798;-0.9173;
-31.5000;0.0814;-0.9150;
-31.2000;0.0684;-0.9558;
-30.9000;0.0814;-0.9173;
-30.6000;0.0822;-0.9241;
-30.3000;0.0838;-0.9218;
-30.0000;0.0814;-0.9354;
-29.7000;0.0814;-0.9218;
-29.4000;0.0822;-0.9196;
-29.1000;0.0806;-0.9218;
-28.8000;0.0830;-0.9196;
-28.5000;0.0798;-0.9241;
-28.2000;0.0757;-0.9377;
-27.9000;0.0798;-0.9263;
-27.6000;0.0798;-0.9354;
-27.3000;0.0814;-0.9263;
-27.0000;0.0814;-0.9286;
-26.7000;0.0928;-0.9014;
-26.4000;0.0855;-0.9218;
-26.1000;0.0830;-0.9309;
-25.8000;0.0806;-0.9263;
-25.5000;0.0814;-0.9286;
-25.2000;0.0806;-0.9196;
-24.9000;0.0855;-0.9150;
-24.6000;0.0822;-0.9241;
-24.3000;0.0822;-0.9399;
-24.0000;0.0814;-0.9377;
-23.7000;0.0814;-0.9377;
-23.4000;0.0798;-0.9399;
-23.1000;0.0798;-0.9354;
-22.8000;0.0781;-0.9490;
-22.5000;0.0806;-0.9377;
-22.2000;0.0757;-0.9467;
-21.9000;0.0822;-0.9173;
-21.6000;0.0879;-0.9082;
-21.3000;0.0830;-0.9150;
-21.0000;0.0814;-0.9105;
-20.7000;0.0822;-0.8992;
-20.4000;0.0814;-0.8969;
-20.1000;0.0798;-0.8969;
-19.8000;0.0838;-0.8946;
-19.5000;0.0733;-0.9105;
-19.2000;0.0773;-0.8992;
-18.9000;0.0814;-0.8901;
-18.6000;0.0830;-0.8810;
-18.3000;0.0806;-0.8924;
-18.0000;0.0912;-0.8652;
-17.7000;0.0806;-0.9060;
-17.4000;0.0838;-0.8969;
-17.1000;0.0830;-0.9014;
-16.8000;0.0822;-0.9082;
-16.5000;0.0806;-0.9082;
-16.2000;0.0806;-0.9105;
-15.9000;0.0790;-0.9128;
-15.6000;0.0838;-0.9082;
-15.3000;0.0814;-0.9218;
-15.0000;0.0830;-0.9218;
-14.7000;0.0822;-0.9173;
-14.4000;0.0830;-0.9105;
-14.1000;0.0822;-0.9150;
-13.8000;0.0871;-0.8992;
-13.5000;0.0806;-0.9150;
-13.2000;0.0814;-0.9037;
-12.9000;0.0814;-0.9060;
-12.6000;0.0781;-0.9128;
-12.3000;0.0838;-0.8992;
-12.0000;0.0838;-0.9060;
-11.7000;0.0773;-0.9241;
-11.4000;0.0806;-0.9173;
-11.1000;0.0716;-0.9422;
-10.8000;0.0790;-0.9150;
-10.5000;0.0692;-0.9331;
-10.2000;0.0733;-0.9241;
-9.9000;0.0806;-0.9105;
-9.6000;0.0830;-0.9082;
-9.3000;0.0822;-0.9105;
-9.0000;0.0765;-0.9331;
-8.7000;0.0871;-0.9082;
-8.4000;0.0838;-0.9128;
-8.1000;0.0806;-0.9263;
-7.8000;0.0830;-0.9309;
-7.5000;0.0814;-0.9422;
-7.2000;0.0847;-0.9331;
-6.9000;0.0798;-0.9445;
-6.6000;0.0814;-0.9490;
-6.3000;0.0806;-0.9581;
-6.0000;0.0830;-0.9467;
-5.7000;0.0830;-0.9377;
-5.4000;0.0798;-0.9422;
-5.1000;0.0855;-0.9241;
-4.8000;0.0822;-0.9331;
-4.5000;0.0822;-0.9263;
-4.2000;0.0814;-0.9218;
-3.9000;0.0822;-0.9150;
-3.6000;0.0814;-0.9286;
-3.3000;0.0822;-0.9309;
-3.0000;0.0814;-0.9354;
-2.7000;0.0830;-0.9309;
-2.4000;0.0790;-0.9422;
-2.1000;0.0814;-0.9399;
-1.8000;0.0822;-0.9422;
-1.5000;0.0814;-0.9377;
-1.2000;0.0692;-0.9671;
-0.9000;0.0830;-0.9309;
-0.6000;0.0838;-0.9354;
-0.3000;0.0879;-0.9241;
0.0000;0.0879;-0.9241;
0.3000;0.0822;-0.9694;
0.6000;0.0830;-0.9445;
0.9000;0.0847;-0.9241;
1.2000;0.0806;-0.9241;
1.5000;0.0863;-0.9014;
1.8000;0.0855;-0.8992;
2.1000;0.0871;-0.8946;
2.4000;0.0838;-0.8901;
2.7000;0.0887;-0.8788;
3.0000;0.0847;-0.8765;
3.3000;0.0773;-0.8833;
3.6000;0.0936;-0.8312;
3.9000;0.0855;-0.8448;
4.2000;0.0985;-0.8176;
4.5000;0.0871;-0.8358;
4.8000;0.0879;-0.8358;
5.1000;0.0887;-0.8290;
5.4000;0.0863;-0.8335;
5.7000;0.0895;-0.8267;
6.0000;0.0904;-0.8312;
6.3000;0.1018;-0.7927;
6.6000;0.0887;-0.8244;
6.9000;0.0969;-0.8040;
7.2000;0.0879;-0.8222;
7.5000;0.0904;-0.8199;
7.8000;0.0895;-0.8154;
8.1000;0.0895;-0.8154;
8.4000;0.0920;-0.8199;
8.7000;0.0871;-0.8244;
9.0000;0.0895;-0.8222;
9.3000;0.0928;-0.8176;
9.6000;0.0887;-0.8244;
9.9000;0.0871;-0.8222;
10.2000;0.0879;-0.8176;
10.5000;0.0887;-0.8154;
10.8000;0.1042;-0.7814;
11.1000;0.0928;-0.8086;
11.4000;0.0871;-0.8312;
11.7000;0.0887;-0.8267;
12.0000;0.0871;-0.8358;
12.3000;0.0887;-0.8222;
12.6000;0.0871;-0.8244;
12.9000;0.0895;-0.8108;
13.2000;0.0912;-0.8018;
13.5000;0.0863;-0.8086;
13.8000;0.0863;-0.8040;
14.1000;0.0879;-0.7927;
14.4000;0.0895;-0.7859;
14.7000;0.0887;-0.7927;
15.0000;0.0887;-0.7950;
15.3000;0.0871;-0.8040;
15.6000;0.0904;-0.7972;
15.9000;0.0887;-0.8018;
16.2000;0.0887;-0.8086;
16.5000;0.0879;-0.8176;
16.8000;0.0879;-0.8108;
17.1000;0.0912;-0.8176;
17.4000;0.0887;-0.8222;
17.7000;0.0895;-0.8244;
18.0000;0.0895;-0.8222;
18.3000;0.0887;-0.8290;
18.6000;0.0879;-0.8312;
18.9000;0.0863;-0.8335;
19.2000;0.0895;-0.8244;
19.5000;0.0895;-0.8199;
19.8000;0.0871;-0.8244;
20.1000;0.0912;-0.8154;
20.4000;0.0895;-0.8176;
20.7000;0.0871;-0.8108;
21.0000;0.0887;-0.7972;
21.3000;0.0904;-0.7927;
21.6000;0.0887;-0.7950;
21.9000;0.0887;-0.8040;
22.2000;0.0904;-0.8086;
22.5000;0.0887;-0.8154;
22.8000;0.0904;-0.8018;
23.1000;0.0961;-0.7950;
23.4000;0.0920;-0.8040;
23.7000;0.0895;-0.8063;
24.0000;0.0887;-0.7995;
24.3000;0.0912;-0.7972;
24.6000;0.0879;-0.8040;
24.9000;0.0985;-0.7837;
25.2000;0.0920;-0.8040;
25.5000;0.0887;-0.8063;
25.8000;0.0895;-0.8108;
26.1000;0.0879;-0.8131;
26.4000;0.0895;-0.8131;
26.7000;0.0895;-0.8108;
27.0000;0.0952;-0.7972;
27.3000;0.0806;-0.8358;
27.6000;0.0920;-0.8063;
27.9000;0.0904;-0.8018;
28.2000;0.0887;-0.8040;
28.5000;0.0904;-0.8040;
28.8000;0.0895;-0.8018;
29.1000;0.0912;-0.8018;
29.4000;0.0879;-0.8086;
29.7000;0.0912;-0.8063;
30.0000;0.0904;-0.8086;
30.3000;0.0887;-0.8131;
30.6000;0.0928;-0.8040;
30.9000;0.0847;-0.8244;
31.2000;0.0904;-0.8154;
31.5000;0.0904;-0.8108;
31.8000;0.0871;-0.8086;
32.1000;0.0895;-0.8131;
32.4000;0.0895;-0.8199;
32.7000;0.0904;-0.8108;
33.0000;0.0912;-0.8086;
33.3000;0.0895;-0.8131;
33.6000;0.0912;-0.8154;
33.9000;0.0904;-0.8267;
34.2000;0.0904;-0.8335;
34.5000;0.0936;-0.8335;
34.8000;0.0838;-0.8539;
35.1000;0.0879;-0.8471;
35.4000;0.0879;-0.8471;
35.7000;0.0895;-0.8222;
36.0000;0.0961;-0.7972;
36.3000;0.0895;-0.8131;
36.6000;0.0920;-0.8063;
36.9000;0.0895;-0.8086;
37.2000;0.0895;-0.8108;
37.5000;0.0912;-0.8131;
37.8000;0.0879;-0.8267;
38.1000;0.0912;-0.8199;
38.4000;0.0920;-0.8154;
38.7000;0.0879;-0.8267;
39.0000;0.0887;-0.8244;
39.3000;0.0887;-0.8222;
39.6000;0.0904;-0.8108;
39.9000;0.0904;-0.8154;
40.2000;0.0928;-0.8131;
40.5000;0.0912;-0.8131;
40.8000;0.0895;-0.8176;
41.1000;0.0952;-0.8063;
41.4000;0.0904;-0.8176;
41.7000;0.0895;-0.8131;
42.0000;0.0920;-0.8040;
42.3000;0.0904;-0.8063;
42.6000;0.0904;-0.8108;
42.9000;0.0904;-0.8199;
43.2000;0.0985;-0.8040;
43.5000;0.0912;-0.8222;
43.8000;0.0879;-0.8312;
44.1000;0.0887;-0.8222;
44.4000;0.0928;-0.8199;
44.7000;0.0863;-0.8222;
45.0000;0.0920;-0.8131;
45.3000;0.0871;-0.8290;
45.6000;0.0912;-0.8312;
45.9000;0.0895;-0.8335;
46.2000;0.0912;-0.8290;
46.5000;0.0904;-0.8267;
46.8000;0.0928;-0.8199;
47.1000;0.0895;-0.8131;
47.4000;0.0838;-0.8290;
47.7000;0.0887;-0.8086;
48.0000;0.0879;-0.8086;
48.3000;0.0895;-0.8063;
48.6000;0.0912;-0.8018;
48.9000;0.0944;-0.7950;
49.2000;0.0904;-0.7995;
49.5000;0.0904;-0.8063;
49.8000;0.0912;-0.8131;
50.1000;0.0928;-0.8154;
50.4000;0.0895;-0.8244;
50.7000;0.0952;-0.8131;
51.0000;0.0879;-0.8199;
51.3000;0.0895;-0.8222;
51.6000;0.0895;-0.8199;
51.9000;0.0904;-0.8199;
52.2000;0.0879;-0.8131;
52.5000;0.0895;-0.8086;
52.8000;0.0904;-0.8154;
53.1000;0.0912;-0.8108;
53.4000;0.0855;-0.8222;
53.7000;0.0904;-0.8086;
54.0000;0.0904;-0.8108;
54.3000;0.0895;-0.8108;
54.6000;0.0912;-0.8154;
54.9000;0.0895;-0.8222;
55.2000;0.0904;-0.8154;
55.5000;0.0920;-0.8063;
55.8000;0.0952;-0.7927;
56.1000;0.0871;-0.8154;
56.4000;0.0912;-0.8040;
56.7000;0.0912;-0.8108;
57.0000;0.0977;-0.7972;
57.3000;0.0928;-0.8131;
57.6000;0.0912;-0.8154;
57.9000;0.0847;-0.8290;
58.2000;0.0904;-0.8040;
58.5000;0.0928;-0.8040;
58.8000;0.0912;-0.8018;
59.1000;0.0790;-0.8335;
59.4000;0.0765;-0.8244;
59.7000;0.0887;-0.8018;
60.0000;0.1018;-0.7791;
60.3000;0.0887;-0.8018;
60.6000;0.0912;-0.8086;
60.9000;0.0920;-0.8063;
61.2000;0.0936;-0.7972;
61.5000;0.0904;-0.8086;
61.8000;0.0928;-0.8040;
62.1000;0.0904;-0.8040;
62.4000;0.0961;-0.7882;
62.7000;0.0920;-0.7905;
63.0000;0.0904;-0.7927;
63.3000;0.0887;-0.7950;
63.6000;0.0912;-0.7905;
63.9000;0.0920;-0.7859;
64.2000;0.0928;-0.7791;
64.5000;0.0904;-0.7769;
64.8000;0.0912;-0.7769;
65.1000;0.0912;-0.7859;
65.4000;0.0936;-0.7905;
65.7000;0.0895;-0.7995;
66.0000;0.0863;-0.8063;
66.3000;0.0904;-0.8063;
66.6000;0.0887;-0.8018;
66.9000;0.0855;-0.8131;
67.2000;0.0895;-0.8086;
67.5000;0.0904;-0.7995;
67.8000;0.0912;-0.8086;
68.1000;0.0912;-0.8018;
68.4000;0.0920;-0.8018;
68.7000;0.0904;-0.8018;
69.0000;0.0920;-0.7972;
69.3000;0.0895;-0.7972;
69.6000;0.0904;-0.7927;
69.9000;0.0912;-0.7859;
70.2000;0.0961;-0.7814;
70.5000;0.0904;-0.7972;
70.8000;0.0847;-0.8176;
71.1000;0.0879;-0.8063;
71.4000;0.0895;-0.7972;
71.7000;0.0936;-0.7927;
72.0000;0.0944;-0.7882;
72.3000;0.0904;-0.7927;
72.6000;0.0912;-0.7927;
72.9000;0.0904;-0.7995;
73.2000;0.1066;-0.7587;
73.5000;0.0904;-0.8018;
73.8000;0.0895;-0.8040;
74.1000;0.0920;-0.8086;
74.4000;0.0920;-0.8108;
74.7000;0.0936;-0.8086;
75.0000;0.0887;-0.8199;
75.3000;0.0871;-0.8267;
75.6000;0.0904;-0.8244;
75.9000;0.0944;-0.8154;
76.2000;0.0895;-0.8131;
76.5000;0.0895;-0.8086;
76.8000;0.0969;-0.7882;
77.1000;0.0912;-0.7905;
77.4000;0.0912;-0.7814;
77.7000;0.0895;-0.7837;
78.0000;0.0912;-0.7678;
78.3000;0.0887;-0.7769;
78.6000;0.0912;-0.7791;
78.9000;0.0912;-0.7814;
79.2000;0.0944;-0.7769;
79.5000;0.0944;-0.7723;
79.8000;0.0920;-0.7882;
80.1000;0.0920;-0.7882;
80.4000;0.0822;-0.8199;
80.7000;0.0944;-0.7882;
81.0000;0.0855;-0.8131;
81.3000;0.0871;-0.8063;
81.6000;0.0904;-0.7882;
81.9000;0.0936;-0.7769;
82.2000;0.0944;-0.7746;
82.5000;0.0920;-0.7791;
82.8000;0.0887;-0.7882;
83.1000;0.1001;-0.7610;
83.4000;0.0847;-0.7995;
83.7000;0.0895;-0.7905;
84.0000;0.0912;-0.7995;
84.3000;0.0895;-0.8131;
84.6000;0.0928;-0.8063;
84.9000;0.0936;-0.8018;
85.2000;0.0928;-0.8063;
85.5000;0.0895;-0.8086;
85.8000;0.0847;-0.8176;
86.1000;0.0855;-0.8108;
86.4000;0.0887;-0.8063;
86.7000;0.0895;-0.8063;
87.0000;0.0928;-0.8086;
87.3000;0.0904;-0.8267;
87.6000;0.0912;-0.8222;
87.9000;0.0895;-0.8222;
88.2000;0.0806;-0.8425;
88.5000;0.0920;-0.8108;
88.8000;0.0920;-0.8131;
89.1000;0.0847;-0.8312;
89.4000;0.0904;-0.8131;
89.7000;0.0912;-0.8131;
90.0000;0.0904;-0.8086;
90.3000;0.0904;-0.8086;
90.6000;0.0920;-0.7995;
90.9000;0.0928;-0.7950;
91.2000;0.1018;-0.7701;
91.5000;0.0887;-0.8018;
91.8000;0.0879;-0.7927;
92.1000;0.0895;-0.7927;
92.4000;0.0895;-0.8018;
92.7000;0.0904;-0.8040;
93.0000;0.0879;-0.8108;
93.3000;0.0904;-0.8086;
93.6000;0.0912;-0.8063;
93.9000;0.0936;-0.8040;
94.2000;0.0887;-0.8131;
94.5000;0.0887;-0.8176;
94.8000;0.0912;-0.8108;
95.1000;0.0887;-0.8176;
95.4000;0.0855;-0.8267;
95.7000;0.0904;-0.8086;
96.0000;0.0871;-0.8176;
96.3000;0.0912;-0.8108;
96.6000;0.0895;-0.8108;
96.9000;0.0904;-0.8108;
97.2000;0.0895;-0.8063;
97.5000;0.0952;-0.7950;
97.8000;0.0912;-0.8018;
98.1000;0.0887;-0.8018;
98.4000;0.0871;-0.7995;
98.7000;0.0912;-0.7972;
99.0000;0.0912;-0.8018;
99.3000;0.0887;-0.8131;
99.6000;0.0895;-0.8199;
99.9000;0.0912;-0.8176;
100.2000;0.0895;-0.8244;
100.5000;0.0895;-0.8290;
100.8000;0.0904;-0.8290;
101.1000;0.0944;-0.8154;
101.4000;0.0912;-0.8267;
101.7000;0.0912;-0.8290;
102.0000;0.0895;-0.8312;
102.3000;0.0895;-0.8267;
102.6000;0.0920;-0.8154;
102.9000;0.0904;-0.8131;
103.2000;0.0887;-0.8108;
103.5000;0.0879;-0.8108;
103.8000;0.0904;-0.8040;
104.1000;0.0920;-0.8018;
104.4000;0.0961;-0.7995;
104.7000;0.0936;-0.8040;
105.0000;0.0920;-0.7995;
105.3000;0.0895;-0.8131;
105.6000;0.0887;-0.8086;
105.9000;0.0879;-0.8063;
106.2000;0.0895;-0.8018;
106.5000;0.0895;-0.8040;
106.8000;0.0895;-0.8086;
107.1000;0.0985;-0.7882;
107.4000;0.0928;-0.7995;
107.7000;0.0961;-0.7882;
108.0000;0.0944;-0.7972;
108.3000;0.0887;-0.8176;
108.6000;0.0920;-0.8176;
108.9000;0.0920;-0.8222;
109.2000;0.0952;-0.8131;
109.5000;0.0887;-0.8290;
109.8000;0.0912;-0.8176;
110.1000;0.0920;-0.8199;
110.4000;0.0928;-0.8199;
110.7000;0.0920;-0.8199;
111.0000;0.0904;-0.8199;
111.3000;0.0904;-0.8154;
111.6000;0.0904;-0.8108;
111.9000;0.0936;-0.8040;
112.2000;0.0863;-0.8267;
112.5000;0.0904;-0.8063;
112.8000;0.0879;-0.8086;
113.1000;0.0912;-0.7950;
113.4000;0.0904;-0.7972;
113.7000;0.0912;-0.7972;
114.0000;0.0920;-0.7905;
114.3000;0.0912;-0.7837;
114.6000;0.0912;-0.7837;
114.9000;0.0928;-0.7950;
115.2000;0.0904;-0.7927;
115.5000;0.0928;-0.7882;
115.8000;0.0887;-0.7972;
116.1000;0.0936;-0.7950;
116.4000;0.0904;-0.8018;
116.7000;0.0879;-0.8108;
117.0000;0.0879;-0.8108;
117.3000;0.0904;-0.8086;
117.6000;0.0879;-0.8108;
117.9000;0.0887;-0.8108;
118.2000;0.0822;-0.8267;
118.5000;0.0928;-0.8063;
118.8000;0.0936;-0.7995;
119.1000;0.1034;-0.7701;
119.4000;0.0895;-0.8063;
119.7000;0.0887;-0.8040;
120.0000;0.0912;-0.7950;
120.3000;0.0855;-0.8108;
120.6000;0.0944;-0.7972;
120.9000;0.0904;-0.7972;
121.2000;0.0863;-0.8040;
121.5000;0.0904;-0.7972;
121.8000;0.0773;-0.8222;
122.1000;0.0871;-0.7927;
122.4000;0.0920;-0.7927;
122.7000;0.0895;-0.7995;
123.0000;0.0904;-0.7927;
123.3000;0.0904;-0.7995;
123.6000;0.0928;-0.7995;
123.9000;0.0920;-0.7950;
124.2000;0.0904;-0.8018;
124.5000;0.0920;-0.7950;
124.8000;0.0912;-0.7905;
125.1000;0.0912;-0.7859;
125.4000;0.0904;-0.7927;
125.7000;0.0912;-0.7927;
126.0000;0.0895;-0.7972;
126.3000;0.0961;-0.7927;
126.6000;0.0904;-0.8063;
126.9000;0.0912;-0.8040;
127.2000;0.0912;-0.7972;
127.5000;0.0879;-0.7995;
127.8000;0.0904;-0.7950;
128.1000;0.0822;-0.8222;
128.4000;0.0912;-0.7950;
128.7000;0.0895;-0.7995;
129.0000;0.0912;-0.7972;
129.3000;0.0928;-0.7927;
129.6000;0.0904;-0.8040;
129.9000;0.0928;-0.7950;
130.2000;0.0904;-0.7995;
130.5000;0.0895;-0.7995;
130.8000;0.0936;-0.7927;
131.1000;0.0920;-0.7927;
131.4000;0.0904;-0.7995;
131.7000;0.0912;-0.8018;
132.0000;0.0936;-0.7905;
132.3000;0.0912;-0.7927;
132.6000;0.0936;-0.7905;
132.9000;0.0936;-0.7927;
133.2000;0.0920;-0.8018;
133.5000;0.0904;-0.7927;
133.8000;0.0904;-0.7950;
134.1000;0.0895;-0.8040;
134.4000;0.0912;-0.7927;
134.7000;0.0912;-0.7927;
135.0000;0.0920;-0.7927;
135.3000;0.0895;-0.7950;
135.6000;0.0920;-0.7995;
135.9000;0.0895;-0.8108;
136.2000;0.0814;-0.8358;
136.5000;0.0912;-0.8086;
136.8000;0.0887;-0.8108;
137.1000;0.1018;-0.7837;
137.4000;0.0871;-0.8176;
137.7000;0.0936;-0.8131;
138.0000;0.0904;-0.8222;
138.3000;0.0879;-0.8244;
138.6000;0.0904;-0.8222;
138.9000;0.0904;-0.8199;
139.2000;0.0895;-0.8312;
139.5000;0.0904;-0.8199;
139.8000;0.0920;-0.8176;
140.1000;0.0944;-0.8176;
140.4000;0.0895;-0.8290;
140.7000;0.0904;-0.8222;
141.0000;0.0912;-0.8108;
141.3000;0.0904;-0.8063;
141.6000;0.0887;-0.8040;
141.9000;0.0904;-0.8086;
142.2000;0.0904;-0.8086;
142.5000;0.0904;-0.8086;
142.8000;0.0928;-0.8086;
143.1000;0.0920;-0.8154;
143.4000;0.0895;-0.8222;
143.7000;0.0871;-0.8176;
144.0000;0.0912;-0.8040;
144.3000;0.0895;-0.8131;
144.6000;0.0830;-0.8290;
144.9000;0.0912;-0.8086;
145.2000;0.0936;-0.7972;
145.5000;0.0895;-0.8108;
145.8000;0.0928;-0.8018;
146.1000;0.0928;-0.8018;
146.4000;0.0928;-0.8040;
146.7000;0.0912;-0.8063;
147.0000;0.0895;-0.8108;
147.3000;0.0920;-0.7995;
147.6000;0.0904;-0.8018;
147.9000;0.0879;-0.8063;
148.2000;0.0904;-0.7972;
148.5000;0.0928;-0.7859;
148.8000;0.0928;-0.7905;
149.1000;0.0912;-0.7927;
149.4000;0.0928;-0.7905;
149.7000;0.0895;-0.7927;
150.0000;0.0920;-0.7927;
150.3000;0.0944;-0.7859;
150.6000;0.0904;-0.7972;
150.9000;0.0936;-0.7859;
151.2000;0.0928;-0.7950;
151.5000;0.0920;-0.8063;
151.8000;0.0920;-0.8063;
152.1000;0.0952;-0.7972;
152.4000;0.0920;-0.8063;
152.7000;0.0920;-0.7995;
153.0000;0.1034;-0.7769;
153.3000;0.0912;-0.8063;
153.6000;0.0895;-0.8086;
153.9000;0.0928;-0.8040;
154.2000;0.0863;-0.8199;
154.5000;0.0920;-0.8018;
154.8000;0.0920;-0.8176;
155.1000;0.0920;-0.8154;
155.4000;0.0920;-0.8131;
155.7000;0.0920;-0.8176;
156.0000;0.0944;-0.8154;
156.3000;0.0904;-0.8312;
156.6000;0.0912;-0.8267;
156.9000;0.0895;-0.8358;
157.2000;0.0928;-0.8290;
157.5000;0.0920;-0.8425;
157.8000;0.0871;-0.8493;
158.1000;0.0904;-0.8380;
158.4000;0.0912;-0.8312;
158.7000;0.0928;-0.8335;
159.0000;0.0985;-0.8199;
159.3000;0.0863;-0.8493;
159.6000;0.0871;-0.8448;
159.9000;0.0904;-0.8335;
160.2000;0.0912;-0.8335;
160.5000;0.0920;-0.8312;
160.8000;0.0904;-0.8267;
161.1000;0.0814;-0.8380;
161.4000;0.0887;-0.8176;
161.7000;0.0904;-0.8199;
162.0000;0.0936;-0.8154;
162.3000;0.0855;-0.8380;
162.6000;0.0904;-0.8222;
162.9000;0.0928;-0.8199;
163.2000;0.0912;-0.8222;
163.5000;0.0920;-0.8154;
163.8000;0.0887;-0.8222;
164.1000;0.0920;-0.8154;
164.4000;0.0895;-0.8244;
164.7000;0.0920;-0.8176;
165.0000;0.0985;-0.7995;
165.3000;0.0904;-0.8244;
165.6000;0.0895;-0.8290;
165.9000;0.0920;-0.8176;
166.2000;0.0879;-0.8290;
166.5000;0.0887;-0.8244;
166.8000;0.0855;-0.8335;
167.1000;0.0895;-0.8335;
167.4000;0.0912;-0.8312;
167.7000;0.0895;-0.8358;
168.0000;0.0822;-0.8539;
168.3000;0.0822;-0.8493;
168.6000;0.0904;-0.8199;
168.9000;0.1066;-0.7814;
169.2000;0.0863;-0.8358;
169.5000;0.0904;-0.8199;
169.8000;0.0863;-0.8267;
170.1000;0.0879;-0.8312;
170.4000;0.1018;-0.8040;
170.7000;0.0944;-0.8176;
171.0000;0.1018;-0.8018;
171.3000;0.0879;-0.8335;
171.6000;0.0895;-0.8335;
171.9000;0.0928;-0.8290;
172.2000;0.0895;-0.8380;
172.5000;0.0904;-0.8403;
172.8000;0.0895;-0.8471;
173.1000;0.0904;-0.8403;
173.4000;0.0871;-0.8425;
173.7000;0.0912;-0.8312;
174.0000;0.0904;-0.8290;
174.3000;0.0944;-0.8176;
174.6000;0.0904;-0.8176;
174.9000;0.0912;-0.8222;
175.2000;0.0904;-0.8267;
175.5000;0.0879;-0.8244;
175.8000;0.0944;-0.8131;
176.1000;0.0904;-0.8290;
176.4000;0.0773;-0.8584;
176.7000;0.0895;-0.8222;
177.0000;0.0904;-0.8312;
177.3000;0.0798;-0.8516;
177.6000;0.0895;-0.8244;
177.9000;0.0912;-0.8267;
178.2000;0.0920;-0.8244;
178.5000;0.1001;-0.8018;
178.8000;0.0904;-0.8199;
179.1000;0.0895;-0.8244;
179.4000;0.0879;-0.8312;
179.7000;0.0936;-0.8222;
180.0000;0.0928;-0.8290;
180.3000;0.0912;-0.8380;
180.6000;0.0920;-0.8335;
180.9000;0.0904;-0.8267;
181.2000;0.0879;-0.8312;
181.5000;0.0887;-0.8244;
181.8000;0.0912;-0.8267;
182.1000;0.0822;-0.8448;
182.4000;0.0904;-0.8199;
182.7000;0.0887;-0.8267;
183.0000;0.0912;-0.8154;
183.3000;0.0928;-0.8131;
183.6000;0.0928;-0.8222;
183.9000;0.0944;-0.8267;
184.2000;0.0993;-0.8176;
184.5000;0.0920;-0.8403;
184.8000;0.0904;-0.8448;
185.1000;0.0928;-0.8335;
185.4000;0.0912;-0.8403;
185.7000;0.0912;-0.8380;
186.0000;0.0855;-0.8493;
186.3000;0.0936;-0.8267;
186.6000;0.0920;-0.8358;
186.9000;0.0904;-0.8403;
187.2000;0.0920;-0.8448;
187.5000;0.0920;-0.8471;
187.8000;0.0879;-0.8561;
188.1000;0.0887;-0.8471;
188.4000;0.0863;-0.8516;
188.7000;0.0871;-0.8516;
189.0000;0.0920;-0.8425;
189.3000;0.0944;-0.8358;
189.6000;0.0920;-0.8267;
189.9000;0.0928;-0.8199;
190.2000;0.0936;-0.8199;
190.5000;0.0936;-0.8199;
190.8000;0.0920;-0.8267;
191.1000;0.0920;-0.8290;
191.4000;0.0879;-0.8471;
191.7000;0.0904;-0.8403;
192.0000;0.0806;-0.8493;
192.3000;0.0887;-0.8267;
192.6000;0.0912;-0.8222;
192.9000;0.0733;-0.8675;
193.2000;0.1042;-0.7972;
193.5000;0.0912;-0.8267;
193.8000;0.0936;-0.8154;
194.1000;0.0895;-0.8335;
194.4000;0.0879;-0.8448;
194.7000;0.0895;-0.8358;
195.0000;0.1018;-0.8040;
195.3000;0.0904;-0.8335;
195.6000;0.0904;-0.8335;
195.9000;0.0847;-0.8516;
196.2000;0.0961;-0.8358;
196.5000;0.0895;-0.8471;
196.8000;0.0879;-0.8516;
197.1000;0.0863;-0.8584;
197.4000;0.0936;-0.8471;
197.7000;0.0855;-0.8629;
198.0000;0.0904;-0.8516;
198.3000;0.0871;-0.8629;
198.6000;0.0904;-0.8516;
198.9000;0.0904;-0.8471;
199.2000;0.0855;-0.8539;
199.5000;0.0928;-0.8290;
199.8000;0.0879;-0.8335;
200.1000;0.0904;-0.8267;
200.4000;0.0855;-0.8403;
200.7000;0.0863;-0.8335;
201.0000;0.0904;-0.8244;
201.3000;0.0944;-0.8199;
201.6000;0.0920;-0.8244;
201.9000;0.0855;-0.8403;
202.2000;0.0912;-0.8312;
202.5000;0.0928;-0.8290;
202.8000;0.0936;-0.8244;
203.1000;0.0920;-0.8244;
203.4000;0.0895;-0.8290;
203.7000;0.0904;-0.8290;
204.0000;0.0887;-0.8380;
204.3000;0.0912;-0.8358;
204.6000;0.0895;-0.8425;
204.9000;0.0887;-0.8358;
205.2000;0.0912;-0.8290;
205.5000;0.0912;-0.8335;
205.8000;0.0912;-0.8312;
206.1000;0.0887;-0.8358;
206.4000;0.0912;-0.8244;
206.7000;0.0912;-0.8312;
207.0000;0.0904;-0.8312;
207.3000;0.0936;-0.8176;
207.6000;0.0912;-0.8199;
207.9000;0.0920;-0.8312;
208.2000;0.0944;-0.8358;
208.5000;0.0887;-0.8448;
208.8000;0.0904;-0.8448;
209.1000;0.0912;-0.8448;
209.4000;0.0928;-0.8380;
209.7000;0.0895;-0.8448;
210.0000;0.0928;-0.8403;
210.3000;0.0952;-0.8335;
210.6000;0.0928;-0.8425;
210.9000;0.0879;-0.8607;
211.2000;0.0904;-0.8539;
211.5000;0.0920;-0.8584;
211.8000;0.0928;-0.8471;
212.1000;0.0895;-0.8516;
212.4000;0.0838;-0.8607;
212.7000;0.0920;-0.8358;
213.0000;0.0928;-0.8199;
213.3000;0.0920;-0.8176;
213.6000;0.0887;-0.8267;
213.9000;0.0887;-0.8176;
214.2000;0.0920;-0.8222;
214.5000;0.0952;-0.8154;
214.8000;0.0904;-0.8267;
215.1000;0.0904;-0.8290;
215.4000;0.0952;-0.8154;
215.7000;0.0912;-0.8222;
216.0000;0.0871;-0.8335;
216.3000;0.0871;-0.8358;
216.6000;0.0904;-0.8290;
216.9000;0.0895;-0.8267;
217.2000;0.0912;-0.8267;
217.5000;0.0895;-0.8403;
217.8000;0.0912;-0.8290;
218.1000;0.0887;-0.8267;
218.4000;0.0920;-0.8154;
218.7000;0.0904;-0.8267;
219.0000;0.0952;-0.8222;
219.3000;0.0936;-0.8267;
219.6000;0.0904;-0.8312;
219.9000;0.0920;-0.8267;
220.2000;0.0887;-0.8425;
220.5000;0.0912;-0.8335;
220.8000;0.0871;-0.8539;
221.1000;0.0863;-0.8493;
221.4000;0.0904;-0.8516;
221.7000;0.0912;-0.8425;
222.0000;0.0871;-0.8493;
222.3000;0.0879;-0.8358;
222.6000;0.0887;-0.8312;
222.9000;0.0887;-0.8335;
223.2000;0.0912;-0.8312;
223.5000;0.0912;-0.8290;
223.8000;0.0879;-0.8403;
224.1000;0.0920;-0.8312;
224.4000;0.0887;-0.8493;
224.7000;0.0920;-0.8358;
225.0000;0.0936;-0.8335;
225.3000;0.0912;-0.8380;
225.6000;0.0912;-0.8358;
225.9000;0.0944;-0.8244;
226.2000;0.0952;-0.8244;
226.5000;0.0887;-0.8425;
226.8000;0.0928;-0.8335;
227.1000;0.0904;-0.8471;
227.4000;0.0920;-0.8448;
227.7000;0.0936;-0.8471;
228.0000;0.0887;-0.8652;
228.3000;0.0985;-0.8471;
228.6000;0.0879;-0.8720;
228.9000;0.0887;-0.8561;
229.2000;0.0936;-0.8358;
229.5000;0.0928;-0.8358;
229.8000;0.0887;-0.8358;
230.1000;0.0912;-0.8335;
230.4000;0.0952;-0.8290;
230.7000;0.0904;-0.8380;
231.0000;0.0920;-0.8312;
231.3000;0.0904;-0.8403;
231.6000;0.0928;-0.8403;
231.9000;0.0936;-0.8312;
232.2000;0.0936;-0.8222;
232.5000;0.0928;-0.8199;
232.8000;0.0904;-0.8312;
233.1000;0.0936;-0.8222;
233.4000;0.0855;-0.8358;
233.7000;0.0871;-0.8312;
234.0000;0.0904;-0.8267;
234.3000;0.0993;-0.8063;
234.6000;0.0928;-0.8176;
234.9000;0.0920;-0.8176;
235.2000;0.0895;-0.8176;
235.5000;0.0904;-0.8108;
235.8000;0.0912;-0.8176;
236.1000;0.0887;-0.8312;
236.4000;0.0952;-0.8154;
236.7000;0.0904;-0.8290;
237.0000;0.0920;-0.8199;
237.3000;0.0904;-0.8244;
237.6000;0.0920;-0.8244;
237.9000;0.0895;-0.8267;
238.2000;0.0871;-0.8312;
238.5000;0.0904;-0.8222;
238.8000;0.0912;-0.8335;
239.1000;0.0887;-0.8403;
239.4000;0.0928;-0.8335;
239.7000;0.0936;-0.8380;
240.0000;0.0904;-0.8471;
240.3000;0.0977;-0.8358;
240.6000;0.0904;-0.8539;
240.9000;0.0936;-0.8403;
241.2000;0.0920;-0.8358;
241.5000;0.0904;-0.8380;
241.8000;0.0920;-0.8403;
242.1000;0.0928;-0.8403;
242.4000;0.0895;-0.8516;
242.7000;0.0920;-0.8403;
243.0000;0.0879;-0.8471;
243.3000;0.0895;-0.8584;
243.6000;0.0887;-0.8516;
243.9000;0.0904;-0.8403;
244.2000;0.0920;-0.8358;
244.5000;0.0936;-0.8244;
244.8000;0.0920;-0.8290;
245.1000;0.0969;-0.8086;
245.4000;0.0912;-0.8108;
245.7000;0.0936;-0.8018;
246.0000;0.0961;-0.7972;
246.3000;0.0920;-0.8086;
246.6000;0.0912;-0.8131;
246.9000;0.0928;-0.8063;
247.2000;0.0838;-0.8244;
247.5000;0.0912;-0.8086;
247.8000;0.0920;-0.8040;
248.1000;0.0863;-0.8108;
248.4000;0.0895;-0.8040;
248.7000;0.0904;-0.8086;
249.0000;0.0920;-0.8131;
249.3000;0.0912;-0.8176;
249.6000;0.0912;-0.8222;
249.9000;0.0904;-0.8176;
250.2000;0.0977;-0.8086;
250.5000;0.0912;-0.8244;
250.8000;0.0912;-0.8244;
251.1000;0.0944;-0.8244;
251.4000;0.0855;-0.8448;
251.7000;0.0904;-0.8380;
252.0000;0.0912;-0.8380;
252.3000;0.0912;-0.8358;
252.6000;0.0912;-0.8358;
252.9000;0.0887;-0.8403;
253.2000;0.0887;-0.8403;
253.5000;0.0912;-0.8403;
253.8000;0.0904;-0.8403;
254.1000;0.0904;-0.8335;
254.4000;0.0920;-0.8380;
254.7000;0.0936;-0.8312;
255.0000;0.0904;-0.8267;
255.3000;0.0912;-0.8199;
255.6000;0.0936;-0.8176;
255.9000;0.0904;-0.8154;
256.2000;0.0895;-0.8222;
256.5000;0.0912;-0.8154;
256.8000;0.0912;-0.8222;
257.1000;0.0895;-0.8222;
257.4000;0.0928;-0.8154;
257.7000;0.0895;-0.8176;
258.0000;0.0895;-0.8199;
258.3000;0.0912;-0.8131;
258.6000;0.0904;-0.8176;
258.9000;0.0887;-0.8290;
259.2000;0.0928;-0.8222;
259.5000;0.0895;-0.8244;
259.8000;0.0928;-0.8267;
260.1000;0.0920;-0.8290;
260.4000;0.0838;-0.8561;
260.7000;0.0895;-0.8380;
261.0000;0.0920;-0.8312;
261.3000;0.0944;-0.8267;
261.6000;0.0912;-0.8358;
261.9000;0.0928;-0.8312;
262.2000;0.0920;-0.8358;
262.5000;0.0928;-0.8312;
262.8000;0.0920;-0.8312;
263.1000;0.0871;-0.8448;
263.4000;0.0895;-0.8403;
263.7000;0.0887;-0.8425;
264.0000;0.0928;-0.8290;
264.3000;0.0895;-0.8358;
264.6000;0.0904;-0.8380;
264.9000;0.0936;-0.8358;
265.2000;0.0928;-0.8380;
265.5000;0.0912;-0.8448;
265.8000;0.0904;-0.8493;
266.1000;0.0904;-0.8425;
266.4000;0.0961;-0.8290;
266.7000;0.0904;-0.8380;
267.0000;0.0928;-0.8267;
267.3000;0.0895;-0.8335;
267.6000;0.0920;-0.8312;
267.9000;0.0920;-0.8380;
268.2000;0.0904;-0.8380;
268.5000;0.0895;-0.8380;
268.8000;0.0912;-0.8290;
269.1000;0.0920;-0.8244;
269.4000;0.0928;-0.8131;
269.7000;0.0895;-0.8176;
270.0000;0.0887;-0.8176;
270.3000;0.0887;-0.8290;
270.6000;0.0904;-0.8199;
270.9000;0.0977;-0.8108;
271.2000;0.0863;-0.8380;
271.5000;0.0912;-0.8244;
271.8000;0.0912;-0.8222;
272.1000;0.0879;-0.8244;
272.4000;0.0912;-0.8312;
272.7000;0.0969;-0.8131;
273.0000;0.0830;-0.8425;
273.3000;0.0895;-0.8176;
273.6000;0.0887;-0.8267;
273.9000;0.0920;-0.8131;
274.2000;0.0765;-0.8448;
274.5000;0.0920;-0.8040;
274.8000;0.0969;-0.7950;
275.1000;0.0847;-0.8244;
275.4000;0.0920;-0.8176;
275.7000;0.0757;-0.8607;
276.0000;0.0895;-0.8267;
276.3000;0.0822;-0.8380;
276.6000;0.0912;-0.8176;
276.9000;0.0904;-0.8108;
277.2000;0.0912;-0.8131;
277.5000;0.1009;-0.7927;
277.8000;0.0928;-0.8063;
278.1000;0.0920;-0.8086;
278.4000;0.0928;-0.8108;
278.7000;0.0936;-0.8176;
279.0000;0.0895;-0.8290;
279.3000;0.0944;-0.8176;
279.6000;0.0928;-0.8199;
279.9000;0.0985;-0.7972;
280.2000;0.0895;-0.8199;
280.5000;0.0912;-0.8176;
280.8000;0.0936;-0.8108;
281.1000;0.0952;-0.8040;
281.4000;0.0904;-0.8063;
281.7000;0.0887;-0.8018;
282.0000;0.0904;-0.8086;
282.3000;0.0904;-0.8063;
282.6000;0.0912;-0.8063;
282.9000;0.1009;-0.7814;
283.2000;0.0904;-0.8108;
283.5000;0.0895;-0.8222;
283.8000;0.0904;-0.8108;
284.1000;0.0912;-0.8063;
284.4000;0.0904;-0.8018;
284.7000;0.0904;-0.8018;
285.0000;0.0895;-0.7995;
285.3000;0.0952;-0.7950;
285.6000;0.0904;-0.8108;
285.9000;0.0920;-0.8108;
286.2000;0.0936;-0.8154;
286.5000;0.1001;-0.7972;
286.8000;0.0895;-0.8108;
287.1000;0.0895;-0.8199;
287.4000;0.0904;-0.8176;
287.7000;0.0920;-0.8176;
288.0000;0.0904;-0.8222;
288.3000;0.0895;-0.8267;
288.6000;0.0912;-0.8267;
288.9000;0.0904;-0.8335;
289.2000;0.0920;-0.8290;
289.5000;0.0895;-0.8290;
289.8000;0.0904;-0.8312;
290.1000;0.0961;-0.8222;
290.4000;0.0928;-0.8154;
290.7000;0.0879;-0.8290;
291.0000;0.1001;-0.8018;
291.3000;0.0895;-0.8244;
291.6000;0.0912;-0.8244;
291.9000;0.0912;-0.8222;
292.2000;0.0904;-0.8244;
292.5000;0.0904;-0.8267;
292.8000;0.0928;-0.8267;
293.1000;0.0814;-0.8561;
293.4000;0.0887;-0.8335;
293.7000;0.0904;-0.8290;
294.0000;0.0904;-0.8244;
294.3000;0.0912;-0.8244;
294.6000;0.0904;-0.8290;
294.9000;0.0952;-0.8244;
295.2000;0.0920;-0.8244;
295.5000;0.0920;-0.8244;
295.8000;0.0936;-0.8222;
296.1000;0.0920;-0.8290;
296.4000;0.0887;-0.8290;
296.7000;0.0928;-0.8199;
297.0000;0.0830;-0.8358;
297.3000;0.0887;-0.8290;
297.6000;0.0904;-0.8267;
297.9000;0.0887;-0.8312;
298.2000;0.0895;-0.8380;
298.5000;0.0904;-0.8358;
298.8000;0.0920;-0.8267;
299.1000;0.0814;-0.8493;
299.4000;0.0920;-0.8154;
299.7000;0.0920;-0.8222;
300.0000;0.0928;-0.8176;
300.3000;0.1001;-0.7927;
300.6000;0.0928;-0.8108;
300.9000;0.0863;-0.8176;
301.2000;0.0887;-0.8086;
301.5000;0.0904;-0.8176;
301.8000;0.0920;-0.8154;
302.1000;0.0977;-0.8040;
302.4000;0.0895;-0.8267;
302.7000;0.0904;-0.8131;
303.0000;0.0887;-0.8222;
303.3000;0.0920;-0.8131;
303.6000;0.0863;-0.8267;
303.9000;0.0879;-0.8267;
304.2000;0.0961;-0.8108;
304.5000;0.0912;-0.8222;
304.8000;0.0928;-0.8154;
305.1000;0.0912;-0.8312;
305.4000;0.0879;-0.8358;
305.7000;0.0904;-0.8290;
306.0000;0.0871;-0.8425;
306.3000;0.0920;-0.8267;
306.6000;0.0895;-0.8358;
306.9000;0.0936;-0.8244;
307.2000;0.0952;-0.8244;
307.5000;0.0969;-0.8199;
307.8000;0.1001;-0.8086;
308.1000;0.0912;-0.8290;
308.4000;0.0895;-0.8312;
308.7000;0.0895;-0.8222;
309.0000;0.0838;-0.8312;
309.3000;0.0895;-0.8108;
309.6000;0.0912;-0.8063;
309.9000;0.0904;-0.8086;
310.2000;0.0936;-0.7972;
310.5000;0.0912;-0.8063;
310.8000;0.0912;-0.8086;
311.1000;0.0904;-0.8176;
311.4000;0.0912;-0.8222;
311.7000;0.0904;-0.8312;
312.0000;0.0944;-0.8244;
312.3000;0.0920;-0.8312;
312.6000;0.0920;-0.8335;
312.9000;0.0904;-0.8380;
313.2000;0.0920;-0.8244;
313.5000;0.0912;-0.8267;
313.8000;0.0912;-0.8290;
314.1000;0.0895;-0.8290;
314.4000;0.0855;-0.8403;
314.7000;0.0912;-0.8290;
315.0000;0.0944;-0.8199;
315.3000;0.0895;-0.8290;
315.6000;0.0936;-0.8108;
315.9000;0.0904;-0.8154;
316.2000;0.0855;-0.8290;
316.5000;0.0912;-0.8222;
316.8000;0.0920;-0.8131;
317.1000;0.0928;-0.8267;
317.4000;0.0912;-0.8222;
317.7000;0.0928;-0.8131;
318.0000;0.0904;-0.8131;
318.3000;0.0912;-0.8131;
318.6000;0.0920;-0.8154;
318.9000;0.0944;-0.8063;
319.2000;0.0912;-0.8222;
319.5000;0.0920;-0.8222;
319.8000;0.0822;-0.8516;
320.1000;0.0895;-0.8244;
320.4000;0.0912;-0.8131;
320.7000;0.0904;-0.8086;
321.0000;0.0928;-0.7972;
321.3000;0.0887;-0.8086;
321.6000;0.0944;-0.8086;
321.9000;0.0961;-0.8131;
322.2000;0.0912;-0.8290;
322.5000;0.0912;-0.8312;
322.8000;0.0895;-0.8290;
323.1000;0.0912;-0.8267;
323.4000;0.0904;-0.8199;
323.7000;0.0920;-0.8154;
324.0000;0.0871;-0.8222;
324.3000;0.0920;-0.8131;
324.6000;0.0912;-0.8154;
324.9000;0.0887;-0.8176;
325.2000;0.0920;-0.8063;
325.5000;0.0920;-0.8086;
325.8000;0.0936;-0.8131;
326.1000;0.0879;-0.8312;
326.4000;0.0912;-0.8335;
326.7000;0.0887;-0.8425;
327.0000;0.0904;-0.8335;
327.3000;0.0928;-0.8290;
327.6000;0.0912;-0.8380;
327.9000;0.0895;-0.8403;
328.2000;0.0879;-0.8290;
328.5000;0.0895;-0.8267;
328.8000;0.0920;-0.8176;
329.1000;0.0912;-0.8154;
329.4000;0.0895;-0.8199;
329.7000;0.0920;-0.8154;
330.0000;0.0887;-0.8312;
330.3000;0.0920;-0.8267;
330.6000;0.0920;-0.8290;
330.9000;0.0912;-0.8335;
331.2000;0.0904;-0.8380;
331.5000;0.0904;-0.8403;
331.8000;0.0920;-0.8380;
332.1000;0.0936;-0.8290;
332.4000;0.0887;-0.8380;
332.7000;0.0920;-0.8222;
333.0000;0.0879;-0.8290;
333.3000;0.0928;-0.8222;
333.6000;0.0993;-0.8063;
333.9000;0.0936;-0.8312;
334.2000;0.0895;-0.8493;
334.5000;0.0920;-0.8425;
334.8000;0.0895;-0.8358;
335.1000;0.1034;-0.8018;
335.4000;0.0944;-0.8267;
335.7000;0.0920;-0.8335;
336.0000;0.0912;-0.8380;
336.3000;0.0944;-0.8335;
336.6000;0.0912;-0.8471;
336.9000;0.0904;-0.8584;
337.2000;0.0912;-0.8607;
337.5000;0.0912;-0.8607;
337.8000;0.0936;-0.8539;
338.1000;0.0920;-0.8516;
338.4000;0.0855;-0.8652;
338.7000;0.0928;-0.8516;
339.0000;0.0781;-0.8743;
339.3000;0.0912;-0.8403;
339.6000;0.0912;-0.8380;
339.9000;0.0936;-0.8335;
340.2000;0.0928;-0.8380;
340.5000;0.0904;-0.8425;
340.8000;0.0912;-0.8403;
341.1000;0.0920;-0.8380;
341.4000;0.0887;-0.8380;
341.7000;0.0928;-0.8312;
342.0000;0.0904;-0.8358;
342.3000;0.0904;-0.8312;
342.6000;0.0912;-0.8335;
342.9000;0.0887;-0.8380;
343.2000;0.0912;-0.8380;
343.5000;0.0936;-0.8358;
343.8000;0.0961;-0.8312;
344.1000;0.0912;-0.8403;
344.4000;0.0944;-0.8335;
344.7000;0.0912;-0.8471;
345.0000;0.0822;-0.8675;
345.3000;0.0887;-0.8539;
345.6000;0.0920;-0.8448;
345.9000;0.0855;-0.8584;
346.2000;0.0879;-0.8561;
346.5000;0.0920;-0.8448;
346.8000;0.0904;-0.8425;
347.1000;0.0985;-0.8199;
347.4000;0.0822;-0.8516;
347.7000;0.0895;-0.8335;
348.0000;0.0879;-0.8493;
348.3000;0.0895;-0.8448;
348.6000;0.0887;-0.8516;
348.9000;0.0912;-0.8471;
349.2000;0.0993;-0.8222;
349.5000;0.0904;-0.8425;
349.8000;0.0912;-0.8335;
350.1000;0.0895;-0.8403;
350.4000;0.0928;-0.8335;
350.7000;0.0895;-0.8425;
351.0000;0.0936;-0.8335;
351.3000;0.0863;-0.8493;
351.6000;0.0912;-0.8403;
351.9000;0.0920;-0.8380;
352.2000;0.0928;-0.8380;
352.5000;0.0895;-0.8539;
352.8000;0.0904;-0.8516;
353.1000;0.0904;-0.8584;
353.4000;0.0936;-0.8471;
353.7000;0.0895;-0.8493;
354.0000;0.0920;-0.8425;
354.3000;0.0944;-0.8154;
354.6000;0.0895;-0.8290;
354.9000;0.0920;-0.8267;
355.2000;0.0936;-0.8290;
355.5000;0.0944;-0.8267;
355.8000;0.0928;-0.8335;
356.1000;0.0912;-0.8380;
356.4000;0.0855;-0.8607;
356.7000;0.0912;-0.8358;
357.0000;0.0887;-0.8380;
357.3000;0.0912;-0.8290;
357.6000;0.0904;-0.8290;
357.9000;0.0887;-0.8335;
358.2000;0.0814;-0.8584;
358.5000;0.0904;-0.8290;
358.8000;0.0855;-0.8471;
359.1000;0.0920;-0.8335;
359.4000;0.0912;-0.8335;
359.7000;0.0912;-0.8380;
360.0000;0.0879;-0.8358;
360.3000;0.0879;-0.8403;
360.6000;0.0887;-0.8335;
360.9000;0.0895;-0.8358;
361.2000;0.0904;-0.8290;
361.5000;0.0887;-0.8267;
361.8000;0.0904;-0.8199;
362.1000;0.0920;-0.8131;
362.4000;0.0895;-0.8244;
362.7000;0.0936;-0.8154;
363.0000;0.1001;-0.8018;
363.3000;0.0879;-0.8290;
363.6000;0.0895;-0.8244;
363.9000;0.1018;-0.7950;
364.2000;0.0904;-0.8154;
364.5000;0.0904;-0.8267;
364.8000;0.0904;-0.8290;
365.1000;0.0871;-0.8358;
365.4000;0.0920;-0.8199;
365.7000;0.0920;-0.8199;
366.0000;0.0895;-0.8244;
366.3000;0.0928;-0.8199;
366.6000;0.0912;-0.8199;
366.9000;0.0912;-0.8154;
367.2000;0.0887;-0.8222;
367.5000;0.0863;-0.8358;
367.8000;0.0798;-0.8516;
368.1000;0.0928;-0.8040;
368.4000;0.1074;-0.7633;
368.7000;0.0912;-0.8040;
369.0000;0.0855;-0.8154;
369.3000;0.0879;-0.8154;
369.6000;0.0912;-0.8086;
369.9000;0.0879;-0.8063;
370.2000;0.0936;-0.7995;
370.5000;0.0887;-0.8131;
370.8000;0.0944;-0.7950;
371.1000;0.0952;-0.7905;
371.4000;0.0838;-0.8176;
371.7000;0.0904;-0.8040;
372.0000;0.0887;-0.7995;
372.3000;0.0863;-0.8063;
372.6000;0.0895;-0.7995;
372.9000;0.0904;-0.8040;
373.2000;0.0920;-0.8018;
373.5000;0.0895;-0.8131;
373.8000;0.0879;-0.8131;
374.1000;0.0863;-0.8108;
374.4000;0.0928;-0.7882;
374.7000;0.0920;-0.7837;
375.0000;0.0928;-0.7882;
375.3000;0.0895;-0.7950;
375.6000;0.0920;-0.7882;
375.9000;0.0887;-0.8018;
376.2000;0.0887;-0.8086;
376.5000;0.0912;-0.8154;
376.8000;0.0920;-0.8199;
377.1000;0.0904;-0.8222;
377.4000;0.0847;-0.8358;
377.7000;0.0887;-0.8244;
378.0000;0.0912;-0.8222;
378.3000;0.0904;-0.8222;
378.6000;0.0969;-0.7995;
378.9000;0.0895;-0.8086;
379.2000;0.0904;-0.8176;
379.5000;0.0936;-0.8108;
379.8000;0.0912;-0.8131;
380.1000;0.0904;-0.8222;
380.4000;0.0920;-0.8176;
380.7000;0.0912;-0.8199;
381.0000;0.0928;-0.8154;
381.3000;0.0904;-0.8176;
381.6000;0.0920;-0.8108;
381.9000;0.0920;-0.7972;
382.2000;0.0928;-0.7995;
382.5000;0.0895;-0.8176;
382.8000;0.0920;-0.8063;
383.1000;0.0895;-0.8131;
383.4000;0.0887;-0.8176;
383.7000;0.0912;-0.8131;
384.0000;0.0887;-0.8176;
384.3000;0.0920;-0.8086;
384.6000;0.0895;-0.8199;
384.9000;0.0928;-0.8040;
385.2000;0.0969;-0.8040;
385.5000;0.0912;-0.8222;
385.8000;0.0920;-0.8154;
386.1000;0.0936;-0.8108;
386.4000;0.0895;-0.8290;
386.7000;0.0912;-0.8222;
387.0000;0.0952;-0.8131;
387.3000;0.0887;-0.8222;
387.6000;0.0887;-0.8222;
387.9000;0.0920;-0.8244;
388.2000;0.0904;-0.8267;
388.5000;0.0895;-0.8267;
388.8000;0.0904;-0.8176;
389.1000;0.0944;-0.8086;
389.4000;0.0912;-0.8176;
389.7000;0.0928;-0.8154;
390.0000;0.0920;-0.8176;
390.3000;0.0887;-0.8290;
390.6000;0.0912;-0.8244;
390.9000;0.0912;-0.8222;
391.2000;0.0920;-0.8244;
391.5000;0.0920;-0.8290;
391.8000;0.0887;-0.8290;
392.1000;0.0895;-0.8312;
392.4000;0.0985;-0.7995;
392.7000;0.0879;-0.8199;
393.0000;0.0920;-0.8154;
393.3000;0.0920;-0.8176;
393.6000;0.0904;-0.8222;
393.9000;0.0895;-0.8131;
394.2000;0.0871;-0.8063;
394.5000;0.0920;-0.8131;
394.8000;0.0920;-0.8131;
395.1000;0.0985;-0.7882;
395.4000;0.0920;-0.8018;
395.7000;0.0920;-0.8063;
396.0000;0.0887;-0.8176;
396.3000;0.0895;-0.8108;
396.6000;0.0912;-0.8154;
396.9000;0.0863;-0.8244;
397.2000;0.0928;-0.8108;
397.5000;0.0920;-0.8199;
397.8000;0.0912;-0.8222;
398.1000;0.0790;-0.8584;
398.4000;0.1018;-0.8086;
398.7000;0.0904;-0.8290;
399.0000;0.0887;-0.8335;
399.3000;0.0895;-0.8290;
399.6000;0.0830;-0.8335;
399.9000;0.0904;-0.8290;
400.2000;0.0879;-0.8358;
400.5000;0.0904;-0.8222;
400.8000;0.0895;-0.8199;
401.1000;0.0838;-0.8335;
401.4000;0.0879;-0.8267;
401.7000;0.0904;-0.8176;
402.0000;0.0936;-0.8018;
402.3000;0.0920;-0.8131;
402.6000;0.0798;-0.8425;
402.9000;0.1050;-0.7882;
403.2000;0.0920;-0.8176;
403.5000;0.0928;-0.8131;
403.8000;0.0904;-0.8199;
404.1000;0.0904;-0.8222;
404.4000;0.0920;-0.8131;
404.7000;0.0920;-0.8040;
405.0000;0.0887;-0.8040;
405.3000;0.0904;-0.8040;
405.6000;0.0887;-0.8154;
405.9000;0.0912;-0.8176;
406.2000;0.0806;-0.8493;
406.5000;0.0920;-0.8063;
406.8000;0.0879;-0.8108;
407.1000;0.0895;-0.8108;
407.4000;0.0879;-0.8154;
407.7000;0.0887;-0.8131;
408.0000;0.0904;-0.8086;
408.3000;0.0912;-0.8086;
408.6000;0.0904;-0.8086;
408.9000;0.0895;-0.8108;
409.2000;0.0904;-0.8154;
409.5000;0.0904;-0.8131;
409.8000;0.0912;-0.8063;
410.1000;0.0790;-0.8380;
410.4000;0.0887;-0.8086;
410.7000;0.0920;-0.8086;
411.0000;0.0920;-0.8176;
411.3000;0.0904;-0.8176;
411.6000;0.0912;-0.8222;
411.9000;0.0871;-0.8358;
412.2000;0.0904;-0.8267;
412.5000;0.0895;-0.8290;
412.8000;0.0920;-0.8290;
413.1000;0.0920;-0.8222;
413.4000;0.0936;-0.8154;
413.7000;0.0912;-0.8199;
414.0000;0.0904;-0.8199;
414.3000;0.0920;-0.8108;
414.6000;0.0904;-0.8131;
414.9000;0.0920;-0.8131;
415.2000;0.0895;-0.8199;
415.5000;0.0912;-0.8108;
415.8000;0.0895;-0.8086;
416.1000;0.0798;-0.8358;
416.4000;0.0895;-0.8131;
416.7000;0.0887;-0.8222;
417.0000;0.0912;-0.8222;
417.3000;0.0895;-0.8312;
417.6000;0.0904;-0.8267;
417.9000;0.0912;-0.8222;
418.2000;0.0895;-0.8244;
418.5000;0.0920;-0.8108;
418.8000;0.0879;-0.8176;
419.1000;0.0920;-0.8199;
419.4000;0.0887;-0.8358;
419.7000;0.0904;-0.8290;
420.0000;0.0904;-0.8222;
420.3000;0.0895;-0.8244;
420.6000;0.0920;-0.8244;
420.9000;0.0920;-0.8290;
421.2000;0.0928;-0.8312;
421.5000;0.0920;-0.8290;
421.8000;0.0904;-0.8425;
422.1000;0.0822;-0.8629;
422.4000;0.0814;-0.8584;
422.7000;0.0912;-0.8267;
423.0000;0.0871;-0.8380;
423.3000;0.0961;-0.8199;
423.6000;0.0961;-0.8244;
423.9000;0.0847;-0.8493;
424.2000;0.0847;-0.8539;
424.5000;0.0977;-0.8199;
424.8000;0.0904;-0.8448;
425.1000;0.0936;-0.8425;
425.4000;0.0822;-0.8607;
425.7000;0.0912;-0.8380;
426.0000;0.0871;-0.8448;
426.3000;0.0871;-0.8403;
426.6000;0.0912;-0.8290;
426.9000;0.0920;-0.8312;
427.2000;0.0904;-0.8358;
427.5000;0.0920;-0.8312;
427.8000;0.0904;-0.8290;
428.1000;0.0879;-0.8403;
428.4000;0.0912;-0.8335;
428.7000;0.0904;-0.8380;
429.0000;0.0863;-0.8516;
429.3000;0.0904;-0.8380;
429.6000;0.0904;-0.8335;
429.9000;0.0855;-0.8471;
430.2000;0.0871;-0.8380;
430.5000;0.0887;-0.8312;
430.8000;0.1042;-0.7950;
431.1000;0.0895;-0.8199;
431.4000;0.0944;-0.8131;
431.7000;0.0920;-0.8267;
432.0000;0.0936;-0.8290;
432.3000;0.0904;-0.8312;
432.6000;0.0920;-0.8222;
432.9000;0.0904;-0.8131;
433.2000;0.0904;-0.8154;
433.5000;0.0904;-0.8154;
433.8000;0.0904;-0.8267;
434.1000;0.0912;-0.8312;
434.4000;0.0928;-0.8290;
434.7000;0.0912;-0.8335;
435.0000;0.0920;-0.8380;
435.3000;0.0887;-0.8539;
435.6000;0.0920;-0.8448;
435.9000;0.0928;-0.8448;
436.2000;0.0920;-0.8403;
436.5000;0.0912;-0.8358;
436.8000;0.0904;-0.8448;
437.1000;0.0904;-0.8493;
437.4000;0.0904;-0.8493;
437.7000;0.0904;-0.8493;
438.0000;0.0904;-0.8493;
438.3000;0.0904;-0.8425;
438.6000;0.0871;-0.8471;
438.9000;0.0912;-0.8448;
439.2000;0.0895;-0.8471;
439.5000;0.0904;-0.8425;
439.8000;0.0855;-0.8607;
440.1000;0.0920;-0.8471;
440.4000;0.0977;-0.8222;
440.7000;0.0912;-0.8358;
441.0000;0.0904;-0.8358;
441.3000;0.0977;-0.8335;
441.6000;0.0912;-0.8425;
441.9000;0.0928;-0.8335;
442.2000;0.0912;-0.8471;
442.5000;0.0912;-0.8471;
442.8000;0.0855;-0.8607;
443.1000;0.0969;-0.8312;
443.4000;0.0904;-0.8380;
443.7000;0.0920;-0.8290;
444.0000;0.0928;-0.8244;
444.3000;0.0879;-0.8358;
444.6000;0.0887;-0.8471;
444.9000;0.0961;-0.8290;
445.2000;0.0920;-0.8335;
445.5000;0.0912;-0.8358;
445.8000;0.0904;-0.8290;
446.1000;0.0887;-0.8267;
446.4000;0.0920;-0.8222;
446.7000;0.0895;-0.8244;
447.0000;0.0969;-0.8086;
447.3000;0.0961;-0.8108;
447.6000;0.0969;-0.8063;
447.9000;0.0969;-0.8131;
448.2000;0.0912;-0.8335;
448.5000;0.0904;-0.8312;
448.8000;0.0912;-0.8154;
449.1000;0.0920;-0.8063;
449.4000;0.0912;-0.8154;
449.7000;0.0904;-0.8222;
450.0000;0.0912;-0.8176;
450.3000;0.0912;-0.8131;
450.6000;0.0904;-0.8154;
450.9000;0.0904;-0.8176;
451.2000;0.0920;-0.8176;
451.5000;0.0912;-0.8154;
451.8000;0.0920;-0.8222;
452.1000;0.0920;-0.8267;
452.4000;0.0912;-0.8267;
452.7000;0.0928;-0.8176;
453.0000;0.0871;-0.8267;
453.3000;0.0944;-0.8222;
453.6000;0.0895;-0.8403;
453.9000;0.0904;-0.8244;
454.2000;0.0969;-0.8018;
454.5000;0.0928;-0.8199;
454.8000;0.0822;-0.8448;
455.1000;0.0887;-0.8267;
455.4000;0.0887;-0.8222;
455.7000;0.0920;-0.8108;
456.0000;0.0895;-0.8154;
456.3000;0.0895;-0.8154;
456.6000;0.0879;-0.8086;
456.9000;0.0871;-0.8154;
457.2000;0.0879;-0.8131;
457.5000;0.0879;-0.8244;
457.8000;0.0904;-0.8222;
458.1000;0.1018;-0.7972;
458.4000;0.0920;-0.8176;
458.7000;0.0912;-0.8222;
459.0000;0.0895;-0.8358;
459.3000;0.0936;-0.8244;
459.6000;0.0936;-0.8267;
459.9000;0.0912;-0.8176;
460.2000;0.0887;-0.8154;
460.5000;0.0936;-0.8176;
460.8000;0.0830;-0.8425;
461.1000;0.0887;-0.8267;
461.4000;0.0904;-0.8290;
461.7000;0.0904;-0.8222;
462.0000;0.0936;-0.8176;
462.3000;0.0912;-0.8131;
462.6000;0.0904;-0.8176;
462.9000;0.0912;-0.8222;
463.2000;0.0920;-0.8199;
463.5000;0.0952;-0.8108;
463.8000;0.0895;-0.8335;
464.1000;0.0838;-0.8493;
464.4000;0.0920;-0.8222;
464.7000;0.0920;-0.8290;
465.0000;0.0887;-0.8448;
465.3000;0.0879;-0.8425;
465.6000;0.0912;-0.8335;
465.9000;0.0904;-0.8425;
466.2000;0.0936;-0.8290;
466.5000;0.0912;-0.8448;
466.8000;0.0904;-0.8380;
467.1000;0.0912;-0.8335;
467.4000;0.0887;-0.8403;
467.7000;0.0912;-0.8471;
468.0000;0.0895;-0.8448;
468.3000;0.0879;-0.8448;
468.6000;0.0928;-0.8312;
468.9000;0.0838;-0.8493;
469.2000;0.0920;-0.8244;
469.5000;0.0920;-0.8222;
469.8000;0.0895;-0.8267;
470.1000;0.0871;-0.8267;
470.4000;0.0895;-0.8154;
470.7000;0.0904;-0.8154;
471.0000;0.0781;-0.8448;
471.3000;0.0912;-0.8290;
471.6000;0.0863;-0.8335;
471.9000;0.0993;-0.7972;
472.2000;0.0895;-0.8244;
472.5000;0.0887;-0.8244;
472.8000;0.0961;-0.8154;
473.1000;0.0887;-0.8335;
473.4000;0.0879;-0.8403;
473.7000;0.0944;-0.8154;
474.0000;0.0887;-0.8358;
474.3000;0.0895;-0.8290;
474.6000;0.1009;-0.8063;
474.9000;0.0895;-0.8358;
475.2000;0.0904;-0.8312;
475.5000;0.0928;-0.8199;
475.8000;0.0920;-0.8108;
476.1000;0.0904;-0.8131;
476.4000;0.0904;-0.8108;
476.7000;0.0895;-0.8199;
477.0000;0.0920;-0.8244;
477.3000;0.0928;-0.8244;
477.6000;0.0904;-0.8290;
477.9000;0.0952;-0.8199;
478.2000;0.0912;-0.8335;
478.5000;0.0912;-0.8403;
478.8000;0.0904;-0.8425;
479.1000;0.0912;-0.8471;
479.4000;0.0912;-0.8471;
479.7000;0.0912;-0.8425;
480.0000;0.0895;-0.8425;
480.3000;0.0904;-0.8425;
480.6000;0.0920;-0.8380;
480.9000;0.0993;-0.8244;
481.2000;0.0912;-0.8380;
481.5000;0.0944;-0.8358;
481.8000;0.0895;-0.8471;
482.1000;0.0912;-0.8448;
482.4000;0.0928;-0.8267;
482.7000;0.0920;-0.8335;
483.0000;0.0887;-0.8358;
483.3000;0.0904;-0.8290;
483.6000;0.0887;-0.8335;
483.9000;0.0936;-0.8267;
484.2000;0.0928;-0.8222;
484.5000;0.0928;-0.8108;
484.8000;0.0912;-0.8086;
485.1000;0.0895;-0.8063;
485.4000;0.0887;-0.7972;
485.7000;0.0904;-0.7927;
486.0000;0.0912;-0.7995;
486.3000;0.0895;-0.8131;
486.6000;0.0936;-0.8063;
486.9000;0.0904;-0.8108;
487.2000;0.0920;-0.8131;
487.5000;0.0952;-0.8018;
487.8000;0.0912;-0.8063;
488.1000;0.0838;-0.8244;
488.4000;0.0871;-0.8222;
488.7000;0.0904;-0.8222;
489.0000;0.0912;-0.8154;
489.3000;0.0936;-0.8131;
489.6000;0.0895;-0.8244;
489.9000;0.0944;-0.8108;
490.2000;0.0928;-0.8176;
490.5000;0.0912;-0.8199;
490.8000;0.0871;-0.8267;
491.1000;0.0952;-0.8131;
491.4000;0.0928;-0.8244;
491.7000;0.0912;-0.8244;
492.0000;0.0920;-0.8335;
492.3000;0.0920;-0.8335;
492.6000;0.0928;-0.8244;
492.9000;0.1009;-0.8040;
493.2000;0.0904;-0.8290;
493.5000;0.0920;-0.8267;
493.8000;0.0887;-0.8380;
494.1000;0.0895;-0.8335;
494.4000;0.0904;-0.8267;
494.7000;0.0920;-0.8244;
495.0000;0.0895;-0.8267;
495.3000;0.0920;-0.8176;
495.6000;0.0920;-0.8154;
495.9000;0.1026;-0.7837;
496.2000;0.0920;-0.8108;
496.5000;0.0920;-0.8131;
496.8000;0.0895;-0.8108;
497.1000;0.0806;-0.8290;
497.4000;0.0904;-0.8131;
497.7000;0.0838;-0.8312;
498.0000;0.0904;-0.8176;
498.3000;0.0944;-0.8086;
498.6000;0.0895;-0.8199;
498.9000;0.0904;-0.8199;
499.2000;0.0920;-0.8244;
499.5000;0.0871;-0.8425;
499.8000;0.0912;-0.8312;
500.1000;0.0952;-0.8244;
500.4000;0.0904;-0.8335;
500.7000;0.0912;-0.8267;
501.0000;0.0838;-0.8448;
501.3000;0.0928;-0.8244;
501.6000;0.0904;-0.8267;
501.9000;0.0904;-0.8244;
502.2000;0.0879;-0.8403;
502.5000;0.0912;-0.8358;
502.8000;0.0912;-0.8403;
503.1000;0.0806;-0.8516;
503.4000;0.0928;-0.8244;
503.7000;0.0895;-0.8358;
504.0000;0.0887;-0.8425;
504.3000;0.0920;-0.8403;
504.6000;0.0920;-0.8335;
504.9000;0.0936;-0.8244;
505.2000;0.0904;-0.8267;
505.5000;0.0904;-0.8290;
505.8000;0.0887;-0.8358;
506.1000;0.0871;-0.8471;
506.4000;0.0904;-0.8425;
506.7000;0.0904;-0.8425;
507.0000;0.0928;-0.8312;
507.3000;0.0912;-0.8403;
507.6000;0.0920;-0.8312;
507.9000;0.0904;-0.8403;
508.2000;0.0895;-0.8471;
508.5000;0.0879;-0.8425;
508.8000;0.0863;-0.8471;
509.1000;0.0904;-0.8290;
509.4000;0.0887;-0.8312;
509.7000;0.0912;-0.8290;
510.0000;0.0904;-0.8290;
510.3000;0.0895;-0.8267;
510.6000;0.0936;-0.8244;
510.9000;0.0887;-0.8403;
511.2000;0.0920;-0.8312;
511.5000;0.0920;-0.8312;
511.8000;0.0912;-0.8425;
512.1000;0.0912;-0.8358;
512.4000;0.0904;-0.8335;
512.7000;0.0904;-0.8403;
513.0000;0.0895;-0.8403;
513.3000;0.0879;-0.8425;
513.6000;0.0887;-0.8380;
513.9000;0.0904;-0.8290;
514.2000;0.0904;-0.8312;
514.5000;0.0814;-0.8607;
514.8000;0.0790;-0.8652;
515.1000;0.0904;-0.8335;
515.4000;0.0944;-0.8267;
515.7000;0.0928;-0.8222;
516.0000;0.0904;-0.8199;
516.3000;0.0912;-0.8199;
516.6000;0.0920;-0.8222;
516.9000;0.0920;-0.8244;
517.2000;0.0830;-0.8493;
517.5000;0.0895;-0.8380;
517.8000;0.0904;-0.8335;
518.1000;0.0936;-0.8335;
518.4000;0.0895;-0.8403;
518.7000;0.0847;-0.8493;
519.0000;0.0895;-0.8425;
519.3000;0.0798;-0.8561;
519.6000;0.0993;-0.8131;
519.9000;0.0944;-0.8199;
520.2000;0.1018;-0.7995;
520.5000;0.0904;-0.8358;
520.8000;0.0904;-0.8358;
521.1000;0.0928;-0.8267;
521.4000;0.0855;-0.8380;
521.7000;0.0887;-0.8267;
522.0000;0.0904;-0.8222;
522.3000;0.0855;-0.8290;
522.6000;0.0895;-0.8244;
522.9000;0.1058;-0.7882;
523.2000;0.0855;-0.8380;
523.5000;0.0887;-0.8244;
523.8000;0.1001;-0.7995;
524.1000;0.0912;-0.8108;
524.4000;0.0887;-0.8244;
524.7000;0.0781;-0.8584;
525.0000;0.0920;-0.8358;
525.3000;0.0920;-0.8335;
525.6000;0.0912;-0.8335;
525.9000;0.0871;-0.8448;
526.2000;0.0904;-0.8425;
526.5000;0.0928;-0.8290;
526.8000;0.0928;-0.8358;
527.1000;0.0904;-0.8335;
527.4000;0.0920;-0.8290;
527.7000;0.0928;-0.8222;
528.0000;0.0904;-0.8335;
528.3000;0.0912;-0.8290;
528.6000;0.0904;-0.8290;
528.9000;0.0863;-0.8335;
529.2000;0.0863;-0.8312;
529.5000;0.0920;-0.8154;
529.8000;0.0920;-0.8131;
530.1000;0.0928;-0.8154;
530.4000;0.0920;-0.8199;
530.7000;0.0879;-0.8267;
531.0000;0.0879;-0.8244;
531.3000;0.0895;-0.8108;
531.6000;0.0944;-0.7995;
531.9000;0.0944;-0.8018;
532.2000;0.0912;-0.8108;
532.5000;0.0920;-0.8131;
532.8000;0.0904;-0.8176;
533.1000;0.0920;-0.8199;
533.4000;0.0920;-0.8176;
533.7000;0.0895;-0.8108;
534.0000;0.0904;-0.8154;
534.3000;0.0887;-0.8108;
534.6000;0.0928;-0.7995;
534.9000;0.0912;-0.8086;
535.2000;0.0871;-0.8222;
535.5000;0.0920;-0.8108;
535.8000;0.0830;-0.8380;
536.1000;0.0928;-0.8108;
536.4000;0.0879;-0.8222;
536.7000;0.0928;-0.8108;
537.0000;0.0895;-0.8154;
537.3000;0.0928;-0.8040;
537.6000;0.0895;-0.8131;
537.9000;0.0879;-0.8086;
538.2000;0.0822;-0.8222;
538.5000;0.0936;-0.7882;
538.8000;0.0904;-0.8063;
539.1000;0.0863;-0.8176;
539.4000;0.0912;-0.8063;
539.7000;0.0912;-0.8086;
540.0000;0.0944;-0.8131;
540.3000;0.0936;-0.8040;
540.6000;0.0936;-0.7995;
540.9000;0.0928;-0.8040;
541.2000;0.0904;-0.8222;
541.5000;0.0863;-0.8380;
541.8000;0.0944;-0.8267;
542.1000;0.0895;-0.8335;
542.4000;0.0895;-0.8244;
542.7000;0.0895;-0.8199;
543.0000;0.0879;-0.8267;
543.3000;0.0912;-0.8222;
543.6000;0.0969;-0.8108;
543.9000;0.0895;-0.8199;
544.2000;0.0952;-0.8063;
544.5000;0.0847;-0.8267;
544.8000;0.0928;-0.8131;
545.1000;0.0912;-0.8176;
545.4000;0.0887;-0.8244;
545.7000;0.0920;-0.8176;
546.0000;0.0871;-0.8335;
546.3000;0.0928;-0.8222;
546.6000;0.0757;-0.8810;
546.9000;0.0952;-0.8358;
547.2000;0.0904;-0.8335;
547.5000;0.0863;-0.8471;
547.8000;0.0904;-0.8335;
548.1000;0.0895;-0.8358;
548.4000;0.0895;-0.8312;
548.7000;0.0895;-0.8335;
549.0000;0.0969;-0.8131;
549.3000;0.0904;-0.8312;
549.6000;0.0847;-0.8471;
549.9000;0.0830;-0.8629;
550.2000;0.0912;-0.8471;
550.5000;0.0912;-0.8358;
550.8000;0.0895;-0.8358;
551.1000;0.0904;-0.8312;
551.4000;0.0887;-0.8335;
551.7000;0.0985;-0.8154;
552.0000;0.0977;-0.8131;
552.3000;0.0912;-0.8358;
552.6000;0.0920;-0.8312;
552.9000;0.0895;-0.8448;
553.2000;0.0936;-0.8380;
553.5000;0.0912;-0.8425;
553.8000;0.0895;-0.8448;
554.1000;0.0912;-0.8403;
554.4000;0.0887;-0.8471;
554.7000;0.0863;-0.8561;
555.0000;0.0904;-0.8493;
555.3000;0.0814;-0.8584;
555.6000;0.0879;-0.8380;
555.9000;0.0912;-0.8290;
556.2000;0.0887;-0.8448;
556.5000;0.0895;-0.8425;
556.8000;0.0920;-0.8312;
557.1000;0.0904;-0.8290;
557.4000;0.0952;-0.8176;
557.7000;0.0912;-0.8312;
558.0000;0.0952;-0.8222;
558.3000;0.0928;-0.8267;
558.6000;0.0887;-0.8380;
558.9000;0.0879;-0.8312;
559.2000;0.0895;-0.8290;
559.5000;0.0961;-0.8154;
559.8000;0.0920;-0.8244;
560.1000;0.0887;-0.8290;
560.4000;0.0920;-0.8154;
560.7000;0.0985;-0.8108;
561.0000;0.0944;-0.8244;
561.3000;0.0928;-0.8290;
561.6000;0.0920;-0.8312;
561.9000;0.0920;-0.8244;
562.2000;0.0920;-0.8267;
562.5000;0.0838;-0.8561;
562.8000;0.0936;-0.8176;
563.1000;0.0920;-0.8199;
563.4000;0.0879;-0.8267;
563.7000;0.0912;-0.8244;
564.0000;0.0904;-0.8244;
564.3000;0.0912;-0.8244;
564.6000;0.0961;-0.8063;
564.9000;0.0912;-0.8154;
565.2000;0.0920;-0.8131;
565.5000;0.0912;-0.8086;
565.8000;0.0904;-0.8131;
566.1000;0.0887;-0.8222;
566.4000;0.0887;-0.8312;
566.7000;0.0936;-0.8086;
567.0000;0.0871;-0.8199;
567.3000;0.0904;-0.8108;
567.6000;0.1018;-0.7972;
567.9000;0.0904;-0.8290;
568.2000;0.0887;-0.8358;
568.5000;0.0895;-0.8290;
568.8000;0.0887;-0.8403;
569.1000;0.0895;-0.8425;
569.4000;0.0871;-0.8539;
569.7000;0.0912;-0.8493;
570.0000;0.0879;-0.8584;
570.3000;0.0904;-0.8493;
570.6000;0.0912;-0.8448;
570.9000;0.0895;-0.8425;
571.2000;0.0904;-0.8290;
571.5000;0.0912;-0.8244;
571.8000;0.0936;-0.8199;
572.1000;0.1050;-0.8040;
572.4000;0.0920;-0.8425;
572.7000;0.0928;-0.8448;
573.0000;0.0912;-0.8425;
573.3000;0.0912;-0.8471;
573.6000;0.0838;-0.8607;
573.9000;0.0920;-0.8425;
574.2000;0.0879;-0.8720;
574.5000;0.0863;-0.8561;
574.8000;0.0904;-0.8561;
575.1000;0.0920;-0.8584;
575.4000;0.0871;-0.8607;
575.7000;0.0928;-0.8425;
576.0000;0.0904;-0.8425;
576.3000;0.0920;-0.8312;
576.6000;0.0920;-0.8312;
576.9000;0.0912;-0.8267;
577.2000;0.0928;-0.8290;
577.5000;0.0822;-0.8584;
577.8000;0.0928;-0.8358;
578.1000;0.0920;-0.8358;
578.4000;0.0912;-0.8493;
578.7000;0.0895;-0.8516;
579.0000;0.0887;-0.8539;
579.3000;0.0838;-0.8743;
579.6000;0.0912;-0.8516;
579.9000;0.0904;-0.8493;
580.2000;0.0912;-0.8493;
580.5000;0.0912;-0.8516;
580.8000;0.0904;-0.8584;
581.1000;0.0904;-0.8629;
581.4000;0.0904;-0.8584;
581.7000;0.0912;-0.8539;
582.0000;0.0928;-0.8584;
582.3000;0.0895;-0.8652;
582.6000;0.0912;-0.8675;
582.9000;0.0920;-0.8561;
583.2000;0.0847;-0.8720;
583.5000;0.0920;-0.8425;
583.8000;0.0977;-0.8267;
584.1000;0.0912;-0.8312;
584.4000;0.0895;-0.8403;
584.7000;0.0912;-0.8403;
585.0000;0.0855;-0.8539;
585.3000;0.0928;-0.8358;
585.6000;0.0904;-0.8448;
585.9000;0.0920;-0.8290;
586.2000;0.0912;-0.8222;
586.5000;0.0936;-0.8176;
586.8000;0.0928;-0.8222;
587.1000;0.0928;-0.8335;
587.4000;0.0895;-0.8448;
587.7000;0.0993;-0.8222;
588.0000;0.0961;-0.8358;
588.3000;0.0887;-0.8448;
588.6000;0.0920;-0.8380;
588.9000;0.0904;-0.8380;
589.2000;0.0920;-0.8335;
589.5000;0.1001;-0.8108;
589.8000;0.0912;-0.8312;
590.1000;0.0879;-0.8403;
590.4000;0.0912;-0.8312;
590.7000;0.0928;-0.8290;
591.0000;0.0912;-0.8358;
591.3000;0.0879;-0.8290;
591.6000;0.0936;-0.8176;
591.9000;0.0920;-0.8154;
592.2000;0.0920;-0.8176;
592.5000;0.0895;-0.8222;
592.8000;0.0904;-0.8290;
593.1000;0.0912;-0.8335;
593.4000;0.0887;-0.8403;
593.7000;0.0895;-0.8403;
594.0000;0.0847;-0.8448;
594.3000;0.0904;-0.8335;
594.6000;0.0895;-0.8380;
594.9000;0.0920;-0.8358;
595.2000;0.0936;-0.8358;
595.5000;0.0904;-0.8448;
595.8000;0.0944;-0.8312;
596.1000;0.0863;-0.8448;
596.4000;0.0928;-0.8312;
596.7000;0.0904;-0.8335;
597.0000;0.0961;-0.8267;
597.3000;0.0904;-0.8380;
597.6000;0.0912;-0.8380;
597.9000;0.0895;-0.8403;
598.2000;0.0904;-0.8290;
598.5000;0.0895;-0.8335;
598.8000;0.0879;-0.8358;
599.1000;0.0855;-0.8516;
599.4000;0.0895;-0.8380;
599.7000;0.0904;-0.8380;
600.0000;0.0887;-0.8358;
600.3000;0.0928;-0.8154;
600.6000;0.0920;-0.8222;
600.9000;0.0895;-0.8358;
601.2000;0.0904;-0.8448;
601.5000;0.0879;-0.8539;
601.8000;0.0871;-0.8629;
602.1000;0.0879;-0.8675;
602.4000;0.0871;-0.8810;
602.7000;0.0838;-0.8992;
603.0000;0.0871;-0.8969;
603.3000;0.0781;-0.9218;
603.6000;0.0855;-0.9082;
603.9000;0.0855;-0.9128;
604.2000;0.0847;-0.9196;
604.5000;0.0871;-0.9218;
604.8000;0.0855;-0.9331;
605.1000;0.0847;-0.9377;
605.4000;0.0847;-0.9331;
605.7000;0.0847;-0.9331;
606.0000;0.0830;-0.9354;
606.3000;0.0822;-0.9399;
606.6000;0.0871;-0.9286;
606.9000;0.0855;-0.9354;
607.2000;0.0855;-0.9422;
607.5000;0.0847;-0.9535;
607.8000;0.0830;-0.9535;
608.1000;0.0822;-0.9558;
608.4000;0.0847;-0.9513;
608.7000;0.0806;-0.9694;
609.0000;0.0830;-0.9694;
609.3000;0.0798;-0.9807;
609.6000;0.0855;-0.9603;
609.9000;0.0847;-0.9581;
610.2000;0.0912;-0.9422;
610.5000;0.0847;-0.9671;
610.8000;0.0773;-0.9830;
611.1000;0.0871;-0.9558;
611.4000;0.0814;-0.9739;
611.7000;0.0806;-0.9762;
612.0000;0.0822;-0.9716;
612.3000;0.0798;-0.9739;
612.6000;0.0741;-0.9875;
612.9000;0.0814;-0.9694;
613.2000;0.0798;-0.9739;
613.5000;0.0830;-0.9694;
613.8000;0.0806;-0.9807;
614.1000;0.0822;-0.9875;
614.4000;0.0798;-0.9898;
614.7000;0.0806;-0.9830;
615.0000;0.0790;-0.9852;
615.3000;0.0822;-0.9920;
615.6000;0.0773;-1.0056;
615.9000;0.0806;-0.9875;
616.2000;0.0822;-0.9807;
616.5000;0.0781;-0.9920;
616.8000;0.0822;-0.9852;
617.1000;0.0724;-1.0056;
617.4000;0.0790;-0.9852;
617.7000;0.0773;-0.9898;
618.0000;0.0798;-0.9852;
618.3000;0.0798;-0.9807;
618.6000;0.0814;-0.9807;
618.9000;0.0806;-0.9830;
619.2000;0.0724;-1.0101;
619.5000;0.0790;-0.9875;
619.8000;0.0798;-0.9852;
620.1000;0.0814;-0.9830;
620.4000;0.0822;-0.9739;
620.7000;0.0790;-0.9830;
621.0000;0.0798;-0.9807;
621.3000;0.0806;-0.9739;
621.6000;0.0781;-0.9739;
621.9000;0.0798;-0.9649;
622.2000;0.0749;-0.9694;
622.5000;0.0790;-0.9603;
622.8000;0.0781;-0.9626;
623.1000;0.0781;-0.9671;
623.4000;0.0814;-0.9581;
623.7000;0.0781;-0.9694;
624.0000;0.0757;-0.9694;
624.3000;0.0741;-0.9807;
624.6000;0.0757;-0.9784;
624.9000;0.0773;-0.9784;
625.2000;0.0749;-0.9830;
625.5000;0.0781;-0.9694;
625.8000;0.0757;-0.9694;
626.1000;0.0790;-0.9671;
626.4000;0.0798;-0.9603;
626.7000;0.0790;-0.9581;
627.0000;0.0765;-0.9739;
627.3000;0.0781;-0.9716;
627.6000;0.0749;-0.9830;
627.9000;0.0773;-0.9784;
628.2000;0.0773;-0.9807;
628.5000;0.0838;-0.9603;
628.8000;0.0757;-0.9762;
629.1000;0.0773;-0.9739;
629.4000;0.0781;-0.9716;
629.7000;0.0781;-0.9784;
630.0000;0.0822;-0.9694;
630.3000;0.0765;-0.9807;
630.6000;0.0781;-0.9784;
630.9000;0.0773;-0.9762;
631.2000;0.0765;-0.9784;
631.5000;0.0781;-0.9830;
631.8000;0.0781;-0.9830;
632.1000;0.0773;-0.9830;
632.4000;0.0757;-0.9898;
632.7000;0.0814;-0.9784;
633.0000;0.0724;-1.0056;
633.3000;0.0781;-0.9830;
633.6000;0.0765;-0.9875;
633.9000;0.0773;-0.9807;
634.2000;0.0741;-0.9852;
634.5000;0.0781;-0.9739;
634.8000;0.0773;-0.9784;
635.1000;0.0757;-0.9830;
635.4000;0.0692;-1.0011;
635.7000;0.0814;-0.9784;
636.0000;0.0773;-0.9920;
636.3000;0.0741;-0.9988;
636.6000;0.0806;-0.9784;
636.9000;0.0667;-1.0124;
637.2000;0.0765;-0.9784;
637.5000;0.0757;-0.9694;
637.8000;0.0733;-0.9739;
638.1000;0.0749;-0.9762;
638.4000;0.0757;-0.9784;
638.7000;0.0781;-0.9739;
639.0000;0.0773;-0.9694;
639.3000;0.0757;-0.9671;
639.6000;0.0765;-0.9694;
639.9000;0.0814;-0.9581;
640.2000;0.0765;-0.9716;
640.5000;0.0773;-0.9694;
640.8000;0.0773;-0.9694;
641.1000;0.0765;-0.9671;
641.4000;0.0765;-0.9649;
641.7000;0.0781;-0.9626;
642.0000;0.0757;-0.9694;
642.3000;0.0773;-0.9784;
642.6000;0.0765;-0.9784;
642.9000;0.0781;-0.9716;
643.2000;0.0855;-0.9535;
643.5000;0.0741;-0.9784;
643.8000;0.0773;-0.9694;
644.1000;0.0847;-0.9558;
644.4000;0.0847;-0.9603;
644.7000;0.0757;-0.9852;
645.0000;0.0757;-0.9739;
645.3000;0.0757;-0.9762;
645.6000;0.0773;-0.9716;
645.9000;0.0749;-0.9694;
646.2000;0.0765;-0.9581;
646.5000;0.0741;-0.9671;
646.8000;0.0765;-0.9649;
647.1000;0.0790;-0.9626;
647.4000;0.0733;-0.9716;
647.7000;0.0773;-0.9581;
648.0000;0.0749;-0.9626;
648.3000;0.0733;-0.9671;
648.6000;0.0838;-0.9467;
648.9000;0.0716;-0.9762;
649.2000;0.0757;-0.9649;
649.5000;0.0838;-0.9467;
649.8000;0.0749;-0.9716;
650.1000;0.0765;-0.9807;
650.4000;0.0716;-0.9920;
650.7000;0.0781;-0.9671;
651.0000;0.0765;-0.9671;
651.3000;0.0708;-0.9830;
651.6000;0.0847;-0.9513;
651.9000;0.0765;-0.9784;
652.2000;0.0708;-0.9966;
652.5000;0.0757;-0.9694;
652.8000;0.0749;-0.9671;
653.1000;0.0822;-0.9558;
653.4000;0.0749;-0.9716;
653.7000;0.0765;-0.9716;
654.0000;0.0765;-0.9716;
654.3000;0.0806;-0.9694;
654.6000;0.0757;-0.9852;
654.9000;0.0757;-0.9830;
655.2000;0.0773;-0.9807;
655.5000;0.0724;-0.9875;
655.8000;0.0765;-0.9830;
656.1000;0.0741;-0.9830;
656.4000;0.0749;-0.9852;
656.7000;0.0781;-0.9649;
657.0000;0.0806;-0.9535;
657.3000;0.0741;-0.9603;
657.6000;0.0757;-0.9671;
657.9000;0.0781;-0.9535;
658.2000;0.0773;-0.9513;
658.5000;0.0716;-0.9762;
658.8000;0.0806;-0.9603;
659.1000;0.0749;-0.9716;
659.4000;0.0684;-0.9898;
659.7000;0.0741;-0.9852;
660.0000;0.0757;-0.9807;
660.3000;0.0757;-0.9830;
660.6000;0.0676;-0.9943;
660.9000;0.0773;-0.9762;
661.2000;0.0757;-0.9852;
661.5000;0.0765;-0.9875;
661.8000;0.0765;-0.9875;
662.1000;0.0765;-0.9852;
662.4000;0.0733;-0.9920;
662.7000;0.0757;-0.9830;
663.0000;0.0781;-0.9762;
663.3000;0.0773;-0.9694;
663.6000;0.0724;-0.9784;
663.9000;0.0741;-0.9716;
664.2000;0.0700;-0.9920;
664.5000;0.0781;-0.9762;
664.8000;0.0692;-0.9920;
665.1000;0.0765;-0.9807;
665.4000;0.0757;-0.9830;
665.7000;0.0749;-0.9807;
666.0000;0.0733;-0.9762;
666.3000;0.0757;-0.9649;
666.6000;0.0757;-0.9626;
666.9000;0.0749;-0.9603;
667.2000;0.0733;-0.9626;
667.5000;0.0814;-0.9467;
667.8000;0.0790;-0.9603;
668.1000;0.0781;-0.9626;
668.4000;0.0733;-0.9694;
668.7000;0.0814;-0.9581;
669.0000;0.0733;-0.9716;
669.3000;0.0781;-0.9581;
669.6000;0.0749;-0.9649;
669.9000;0.0741;-0.9671;
670.2000;0.0741;-0.9649;
670.5000;0.0757;-0.9626;
670.8000;0.0757;-0.9649;
671.1000;0.0724;-0.9694;
671.4000;0.0765;-0.9535;
671.7000;0.0667;-0.9875;
672.0000;0.0757;-0.9671;
672.3000;0.0643;-0.9943;
672.6000;0.0749;-0.9739;
672.9000;0.0741;-0.9694;
673.2000;0.0838;-0.9490;
673.5000;0.0741;-0.9694;
673.8000;0.0773;-0.9626;
674.1000;0.0765;-0.9626;
674.4000;0.0781;-0.9513;
674.7000;0.0733;-0.9558;
675.0000;0.0741;-0.9626;
675.3000;0.0692;-0.9762;
675.6000;0.0765;-0.9558;
675.9000;0.0757;-0.9467;
676.2000;0.0757;-0.9513;
676.5000;0.0773;-0.9535;
676.8000;0.0765;-0.9558;
677.1000;0.0773;-0.9513;
677.4000;0.0741;-0.9626;
677.7000;0.0757;-0.9626;
678.0000;0.0798;-0.9535;
678.3000;0.0733;-0.9716;
678.6000;0.0912;-0.9263;
678.9000;0.0741;-0.9671;
679.2000;0.0749;-0.9603;
679.5000;0.0741;-0.9581;
679.8000;0.0749;-0.9535;
680.1000;0.0733;-0.9581;
680.4000;0.0716;-0.9603;
680.7000;0.0716;-0.9558;
681.0000;0.0790;-0.9377;
681.3000;0.0765;-0.9445;
681.6000;0.0749;-0.9467;
681.9000;0.0757;-0.9445;
682.2000;0.0724;-0.9603;
682.5000;0.0741;-0.9603;
682.8000;0.0765;-0.9603;
683.1000;0.0741;-0.9716;
683.4000;0.0716;-0.9716;
683.7000;0.0733;-0.9739;
684.0000;0.0749;-0.9603;
684.3000;0.0798;-0.9558;
684.6000;0.0741;-0.9694;
684.9000;0.0724;-0.9716;
685.2000;0.0708;-0.9762;
685.5000;0.0757;-0.9626;
685.8000;0.0749;-0.9558;
686.1000;0.0749;-0.9558;
686.4000;0.0749;-0.9649;
686.7000;0.0724;-0.9739;
687.0000;0.0757;-0.9626;
687.3000;0.0773;-0.9671;
687.6000;0.0749;-0.9716;
687.9000;0.0765;-0.9603;
688.2000;0.0749;-0.9649;
688.5000;0.0724;-0.9784;
688.8000;0.0741;-0.9739;
689.1000;0.0724;-0.9739;
689.4000;0.0659;-0.9966;
689.7000;0.0741;-0.9626;
690.0000;0.0684;-0.9716;
690.3000;0.0749;-0.9490;
690.6000;0.0733;-0.9467;
690.9000;0.0733;-0.9422;
691.2000;0.0773;-0.9331;
691.5000;0.0749;-0.9422;
691.8000;0.0724;-0.9513;
692.1000;0.0619;-0.9762;
692.4000;0.0733;-0.9422;
692.7000;0.0659;-0.9649;
693.0000;0.0765;-0.9467;
693.3000;0.0741;-0.9445;
693.6000;0.0749;-0.9490;
693.9000;0.0757;-0.9490;
694.2000;0.0765;-0.9467;
694.5000;0.0749;-0.9603;
694.8000;0.0749;-0.9694;
695.1000;0.0749;-0.9739;
695.4000;0.0814;-0.9558;
695.7000;0.0741;-0.9739;
696.0000;0.0741;-0.9716;
696.3000;0.0773;-0.9649;
696.6000;0.0611;-1.0011;
696.9000;0.0741;-0.9671;
697.2000;0.0798;-0.9581;
697.5000;0.0757;-0.9649;
697.8000;0.0741;-0.9671;
698.1000;0.0749;-0.9671;
698.4000;0.0798;-0.9581;
698.7000;0.0741;-0.9716;
699.0000;0.0724;-0.9694;
699.3000;0.0871;-0.9286;
699.6000;0.0749;-0.9535;
699.9000;0.0724;-0.9558;
700.2000;0.0716;-0.9694;
700.5000;0.0741;-0.9649;
700.8000;0.0765;-0.9513;
701.1000;0.0757;-0.9581;
701.4000;0.0757;-0.9513;
701.7000;0.0733;-0.9581;
702.0000;0.0659;-0.9739;
702.3000;0.0716;-0.9626;
702.6000;0.0749;-0.9445;
702.9000;0.0724;-0.9603;
703.2000;0.0724;-0.9558;
703.5000;0.0757;-0.9490;
703.8000;0.0765;-0.9399;
704.1000;0.0684;-0.9581;
704.4000;0.0765;-0.9422;
704.7000;0.0741;-0.9490;
705.0000;0.0749;-0.9445;
705.3000;0.0749;-0.9467;
705.6000;0.0749;-0.9467;
705.9000;0.0741;-0.9467;
706.2000;0.0724;-0.9558;
706.5000;0.0863;-0.9128;
706.8000;0.0741;-0.9445;
707.1000;0.0643;-0.9603;
707.4000;0.0708;-0.9467;
707.7000;0.0749;-0.9445;
708.0000;0.0765;-0.9422;
708.3000;0.0765;-0.9513;
708.6000;0.0733;-0.9558;
708.9000;0.0724;-0.9581;
709.2000;0.0724;-0.9581;
709.5000;0.0749;-0.9490;
709.8000;0.0749;-0.9467;
710.1000;0.0814;-0.9331;
710.4000;0.0749;-0.9558;
710.7000;0.0733;-0.9535;
711.0000;0.0806;-0.9286;
711.3000;0.0724;-0.9513;
711.6000;0.0749;-0.9399;
711.9000;0.0700;-0.9513;
712.2000;0.0741;-0.9445;
712.5000;0.0708;-0.9513;
712.8000;0.0757;-0.9422;
713.1000;0.0676;-0.9649;
713.4000;0.0806;-0.9377;
713.7000;0.0741;-0.9558;
714.0000;0.0749;-0.9603;
714.3000;0.0733;-0.9649;
714.6000;0.0749;-0.9581;
714.9000;0.0749;-0.9558;
715.2000;0.0895;-0.9241;
715.5000;0.0741;-0.9649;
715.8000;0.0716;-0.9762;
716.1000;0.0749;-0.9784;
716.4000;0.0733;-0.9830;
716.7000;0.0749;-0.9784;
717.0000;0.0757;-0.9852;
717.3000;0.0741;-0.9875;
717.6000;0.0838;-0.9581;
717.9000;0.0741;-0.9762;
718.2000;0.0692;-0.9852;
718.5000;0.0757;-0.9603;
718.8000;0.0765;-0.9716;
719.1000;0.0749;-0.9716;
719.4000;0.0716;-0.9852;
719.7000;0.0757;-0.9739;
720.0000;0.0733;-0.9784;
720.3000;0.0724;-0.9807;
720.6000;0.0724;-0.9807;
720.9000;0.0716;-0.9875;
721.2000;0.0757;-0.9784;
721.5000;0.0765;-0.9762;
721.8000;0.0838;-0.9581;
722.1000;0.0749;-0.9784;
722.4000;0.0724;-0.9807;
722.7000;0.0741;-0.9649;
723.0000;0.0757;-0.9603;
723.3000;0.0749;-0.9716;
723.6000;0.0773;-0.9739;
723.9000;0.0773;-0.9739;
724.2000;0.0716;-0.9852;
724.5000;0.0749;-0.9739;
724.8000;0.0749;-0.9807;
725.1000;0.0741;-0.9830;
725.4000;0.0692;-0.9898;
725.7000;0.0724;-0.9762;
726.0000;0.0708;-0.9807;
726.3000;0.0733;-0.9739;
726.6000;0.0724;-0.9739;
726.9000;0.0749;-0.9762;
727.2000;0.0741;-0.9762;
727.5000;0.0716;-0.9852;
727.8000;0.0724;-0.9807;
728.1000;0.0749;-0.9739;
728.4000;0.0651;-0.9943;
728.7000;0.0733;-0.9694;
729.0000;0.0781;-0.9445;
729.3000;0.0741;-0.9535;
729.6000;0.0773;-0.9535;
729.9000;0.0724;-0.9671;
730.2000;0.0773;-0.9626;
730.5000;0.0757;-0.9626;
730.8000;0.0708;-0.9671;
731.1000;0.0757;-0.9581;
731.4000;0.0765;-0.9603;
731.7000;0.0724;-0.9671;
732.0000;0.0749;-0.9513;
732.3000;0.0733;-0.9513;
732.6000;0.0724;-0.9581;
732.9000;0.0773;-0.9626;
733.2000;0.0757;-0.9739;
733.5000;0.0724;-0.9762;
733.8000;0.0757;-0.9694;
734.1000;0.0741;-0.9671;
734.4000;0.0741;-0.9581;
734.7000;0.0741;-0.9649;
735.0000;0.0741;-0.9581;
735.3000;0.0724;-0.9581;
735.6000;0.0716;-0.9739;
735.9000;0.0765;-0.9603;
736.2000;0.0724;-0.9694;
736.5000;0.0765;-0.9581;
736.8000;0.0757;-0.9739;
737.1000;0.0733;-0.9784;
737.4000;0.0765;-0.9694;
737.7000;0.0757;-0.9671;
738.0000;0.0733;-0.9603;
738.3000;0.0733;-0.9626;
738.6000;0.0716;-0.9716;
738.9000;0.0716;-0.9716;
739.2000;0.0724;-0.9603;
739.5000;0.0724;-0.9649;
739.8000;0.0733;-0.9671;
740.1000;0.0741;-0.9649;
740.4000;0.0765;-0.9603;
740.7000;0.0716;-0.9626;
741.0000;0.0757;-0.9581;
741.3000;0.0757;-0.9513;
741.6000;0.0733;-0.9513;
741.9000;0.0741;-0.9558;
742.2000;0.0814;-0.9422;
742.5000;0.0765;-0.9513;
742.8000;0.0741;-0.9558;
743.1000;0.0684;-0.9762;
743.4000;0.0700;-0.9762;
743.7000;0.0773;-0.9581;
744.0000;0.0741;-0.9649;
744.3000;0.0830;-0.9445;
744.6000;0.0724;-0.9603;
744.9000;0.0741;-0.9558;
745.2000;0.0741;-0.9535;
745.5000;0.0741;-0.9467;
745.8000;0.0724;-0.9513;
746.1000;0.0619;-0.9852;
746.4000;0.0733;-0.9581;
746.7000;0.0733;-0.9603;
747.0000;0.0838;-0.9331;
747.3000;0.0733;-0.9603;
747.6000;0.0822;-0.9286;
747.9000;0.0741;-0.9558;
748.2000;0.0741;-0.9603;
748.5000;0.0749;-0.9694;
748.8000;0.0749;-0.9716;
749.1000;0.0741;-0.9739;
749.4000;0.0684;-0.9920;
749.7000;0.0724;-0.9852;
750.0000;0.0733;-0.9898;
750.3000;0.0741;-0.9830;
750.6000;0.0757;-0.9626;
750.9000;0.0838;-0.9422;
751.2000;0.0765;-0.9581;
751.5000;0.0716;-0.9671;
751.8000;0.0749;-0.9581;
752.1000;0.0741;-0.9513;
752.4000;0.0790;-0.9399;
752.7000;0.0733;-0.9558;
753.0000;0.0733;-0.9626;
753.3000;0.0749;-0.9603;
753.6000;0.0716;-0.9581;
753.9000;0.0741;-0.9535;
754.2000;0.0741;-0.9490;
754.5000;0.0684;-0.9716;
754.8000;0.0773;-0.9490;
755.1000;0.0708;-0.9649;
755.4000;0.0749;-0.9671;
755.7000;0.0708;-0.9784;
756.0000;0.0733;-0.9694;
756.3000;0.0733;-0.9649;
756.6000;0.0741;-0.9603;
756.9000;0.0716;-0.9603;
757.2000;0.0741;-0.9626;
757.5000;0.0716;-0.9603;
757.8000;0.0741;-0.9558;
758.1000;0.0741;-0.9649;
758.4000;0.0684;-0.9852;
758.7000;0.0724;-0.9671;
759.0000;0.0749;-0.9535;
759.3000;0.0765;-0.9581;
759.6000;0.0733;-0.9649;
759.9000;0.0741;-0.9558;
760.2000;0.0733;-0.9603;
760.5000;0.0749;-0.9535;
760.8000;0.0733;-0.9513;
761.1000;0.0700;-0.9603;
761.4000;0.0757;-0.9558;
761.7000;0.0757;-0.9649;
762.0000;0.0798;-0.9490;
762.3000;0.0879;-0.9354;
762.6000;0.0749;-0.9739;
762.9000;0.0733;-0.9807;
763.2000;0.0716;-0.9716;
763.5000;0.0627;-0.9920;
763.8000;0.0790;-0.9581;
764.1000;0.0749;-0.9649;
764.4000;0.0741;-0.9649;
764.7000;0.0757;-0.9581;
765.0000;0.0741;-0.9603;
765.3000;0.0765;-0.9558;
765.6000;0.0716;-0.9558;
765.9000;0.0765;-0.9422;
766.2000;0.0757;-0.9467;
766.5000;0.0733;-0.9558;
766.8000;0.0741;-0.9581;
767.1000;0.0765;-0.9513;
767.4000;0.0855;-0.9309;
767.7000;0.0611;-0.9920;
768.0000;0.0757;-0.9581;
768.3000;0.0602;-1.0034;
768.6000;0.0684;-0.9875;
768.9000;0.0773;-0.9694;
769.2000;0.0822;-0.9558;
769.5000;0.0692;-0.9830;
769.8000;0.0741;-0.9716;
770.1000;0.0692;-0.9852;
770.4000;0.0741;-0.9671;
770.7000;0.0741;-0.9581;
771.0000;0.0741;-0.9535;
771.3000;0.0733;-0.9513;
771.6000;0.0741;-0.9558;
771.9000;0.0733;-0.9535;
772.2000;0.0757;-0.9490;
772.5000;0.0773;-0.9467;
772.8000;0.0733;-0.9694;
773.1000;0.0724;-0.9671;
773.4000;0.0733;-0.9581;
773.7000;0.0749;-0.9581;
774.0000;0.0708;-0.9784;
774.3000;0.0749;-0.9694;
774.6000;0.0733;-0.9716;
774.9000;0.0708;-0.9852;
775.2000;0.0733;-0.9784;
775.5000;0.0733;-0.9762;
775.8000;0.0724;-0.9807;
776.1000;0.0708;-0.9943;
776.4000;0.0676;-1.0011;
776.7000;0.0716;-0.9807;
777.0000;0.0757;-0.9671;
777.3000;0.0749;-0.9626;
777.6000;0.0757;-0.9649;
777.9000;0.0773;-0.9603;
778.2000;0.0757;-0.9603;
778.5000;0.0781;-0.9513;
778.8000;0.0716;-0.9716;
779.1000;0.0733;-0.9649;
779.4000;0.0733;-0.9694;
779.7000;0.0708;-0.9694;
780.0000;0.0724;-0.9739;
780.3000;0.0757;-0.9671;
780.6000;0.0781;-0.9649;
780.9000;0.0741;-0.9739;
781.2000;0.0667;-0.9988;
781.5000;0.0765;-0.9739;
781.8000;0.0741;-0.9784;
782.1000;0.0724;-0.9784;
782.4000;0.0757;-0.9716;
782.7000;0.0781;-0.9694;
783.0000;0.0700;-0.9943;
783.3000;0.0741;-0.9739;
783.6000;0.0749;-0.9807;
783.9000;0.0741;-0.9875;
784.2000;0.0790;-0.9739;
784.5000;0.0716;-0.9898;
784.8000;0.0749;-0.9830;
785.1000;0.0822;-0.9716;
785.4000;0.0749;-0.9920;
785.7000;0.0741;-0.9988;
786.0000;0.0651;-1.0147;
786.3000;0.0692;-1.0011;
786.6000;0.0741;-0.9830;
786.9000;0.0757;-0.9739;
787.2000;0.0798;-0.9581;
787.5000;0.0724;-0.9649;
787.8000;0.0716;-0.9716;
788.1000;0.0741;-0.9649;
788.4000;0.0708;-0.9739;
788.7000;0.0684;-0.9807;
789.0000;0.0724;-0.9694;
789.3000;0.0733;-0.9649;
789.6000;0.0708;-0.9558;
789.9000;0.0749;-0.9445;
790.2000;0.0733;-0.9513;
790.5000;0.0749;-0.9535;
790.8000;0.0667;-0.9739;
791.1000;0.0749;-0.9558;
791.4000;0.0724;-0.9581;
791.7000;0.0692;-0.9581;
792.0000;0.0749;-0.9354;
792.3000;0.0741;-0.9377;
792.6000;0.0749;-0.9445;
792.9000;0.0733;-0.9422;
793.2000;0.0724;-0.9422;
793.5000;0.0806;-0.9218;
793.8000;0.0773;-0.9399;
794.1000;0.0708;-0.9513;
794.4000;0.0716;-0.9558;
794.7000;0.0692;-0.9716;
795.0000;0.0684;-0.9762;
795.3000;0.0724;-0.9626;
795.6000;0.0757;-0.9535;
795.9000;0.0765;-0.9558;
796.2000;0.0773;-0.9445;
796.5000;0.0741;-0.9467;
796.8000;0.0733;-0.9490;
797.1000;0.0741;-0.9354;
797.4000;0.0749;-0.9354;
797.7000;0.0749;-0.9377;
798.0000;0.0749;-0.9445;
798.3000;0.0741;-0.9422;
798.6000;0.0749;-0.9445;
798.9000;0.0708;-0.9558;
799.2000;0.0733;-0.9490;
799.5000;0.0700;-0.9581;
799.8000;0.0659;-0.9762;
800.1000;0.0749;-0.9513;
800.4000;0.0733;-0.9513;
800.7000;0.0733;-0.9558;
801.0000;0.0733;-0.9513;
801.3000;0.0757;-0.9535;
801.6000;0.0733;-0.9603;
801.9000;0.0684;-0.9739;
802.2000;0.0749;-0.9513;
802.5000;0.0863;-0.9263;
802.8000;0.0765;-0.9399;
803.1000;0.0773;-0.9286;
803.4000;0.0741;-0.9331;
803.7000;0.0700;-0.9445;
804.0000;0.0708;-0.9354;
804.3000;0.0765;-0.9286;
804.6000;0.0741;-0.9309;
804.9000;0.0741;-0.9309;
805.2000;0.0676;-0.9354;
805.5000;0.0741;-0.9241;
805.8000;0.0724;-0.9241;
806.1000;0.0847;-0.9014;
806.4000;0.0741;-0.9286;
806.7000;0.0643;-0.9558;
807.0000;0.0733;-0.9377;
807.3000;0.0749;-0.9286;
807.6000;0.0741;-0.9309;
807.9000;0.0749;-0.9263;
808.2000;0.0855;-0.8856;
808.5000;0.0749;-0.9150;
808.8000;0.0733;-0.9218;
809.1000;0.0684;-0.9377;
809.4000;0.0724;-0.9354;
809.7000;0.0733;-0.9377;
810.0000;0.0733;-0.9467;
810.3000;0.0733;-0.9399;
810.6000;0.0749;-0.9422;
810.9000;0.0741;-0.9377;
811.2000;0.0741;-0.9286;
811.5000;0.0716;-0.9399;
811.8000;0.0724;-0.9377;
812.1000;0.0716;-0.9399;
812.4000;0.0716;-0.9377;
812.7000;0.0749;-0.9309;
813.0000;0.0733;-0.9422;
813.3000;0.0733;-0.9490;
813.6000;0.0749;-0.9377;
813.9000;0.0798;-0.9286;
814.2000;0.0749;-0.9422;
814.5000;0.0733;-0.9399;
814.8000;0.0749;-0.9354;
815.1000;0.0741;-0.9399;
815.4000;0.0749;-0.9445;
815.7000;0.0757;-0.9399;
816.0000;0.0749;-0.9377;
816.3000;0.0733;-0.9377;
816.6000;0.0757;-0.9399;
816.9000;0.0724;-0.9513;
817.2000;0.0749;-0.9354;
817.5000;0.0741;-0.9377;
817.8000;0.0773;-0.9309;
818.1000;0.0716;-0.9535;
818.4000;0.0749;-0.9490;
818.7000;0.0724;-0.9445;
819.0000;0.0781;-0.9241;
819.3000;0.0733;-0.9377;
819.6000;0.0781;-0.9286;
819.9000;0.0822;-0.9105;
820.2000;0.0724;-0.9467;
820.5000;0.0773;-0.9399;
820.8000;0.0757;-0.9377;
821.1000;0.0733;-0.9399;
821.4000;0.0724;-0.9422;
821.7000;0.0757;-0.9309;
822.0000;0.0741;-0.9399;
822.3000;0.0757;-0.9377;
822.6000;0.0692;-0.9649;
822.9000;0.0708;-0.9558;
823.2000;0.0708;-0.9603;
823.5000;0.0692;-0.9626;
823.8000;0.0708;-0.9535;
824.1000;0.0611;-0.9784;
824.4000;0.0684;-0.9671;
824.7000;0.0708;-0.9626;
825.0000;0.0733;-0.9535;
825.3000;0.0749;-0.9445;
825.6000;0.0765;-0.9377;
825.9000;0.0757;-0.9445;
826.2000;0.0798;-0.9309;
826.5000;0.0749;-0.9467;
826.8000;0.0733;-0.9490;
827.1000;0.0724;-0.9581;
827.4000;0.0749;-0.9535;
827.7000;0.0765;-0.9445;
828.0000;0.0765;-0.9399;
828.3000;0.0667;-0.9694;
828.6000;0.0741;-0.9558;
828.9000;0.0724;-0.9649;
829.2000;0.0790;-0.9445;
829.5000;0.0733;-0.9490;
829.8000;0.0716;-0.9535;
830.1000;0.0733;-0.9422;
830.4000;0.0765;-0.9422;
830.7000;0.0724;-0.9467;
831.0000;0.0814;-0.9218;
831.3000;0.0814;-0.9263;
831.6000;0.0741;-0.9513;
831.9000;0.0749;-0.9513;
832.2000;0.0716;-0.9558;
832.5000;0.0733;-0.9581;
832.8000;0.0733;-0.9581;
833.1000;0.0757;-0.9467;
833.4000;0.0724;-0.9535;
833.7000;0.0741;-0.9649;
834.0000;0.0765;-0.9649;
834.3000;0.0724;-0.9603;
834.6000;0.0724;-0.9626;
834.9000;0.0724;-0.9649;
835.2000;0.0733;-0.9694;
835.5000;0.0724;-0.9694;
835.8000;0.0757;-0.9513;
836.1000;0.0757;-0.9513;
836.4000;0.0749;-0.9490;
836.7000;0.0749;-0.9467;
837.0000;0.0724;-0.9399;
837.3000;0.0741;-0.9286;
837.6000;0.0790;-0.9218;
837.9000;0.0708;-0.9490;
838.2000;0.0757;-0.9467;
838.5000;0.0700;-0.9603;
838.8000;0.0741;-0.9558;
839.1000;0.0741;-0.9626;
839.4000;0.0757;-0.9558;
839.7000;0.0741;-0.9535;
840.0000;0.0757;-0.9490;
840.3000;0.0757;-0.9445;
840.6000;0.0741;-0.9399;
840.9000;0.0733;-0.9354;
841.2000;0.0733;-0.9309;
841.5000;0.0708;-0.9399;
841.8000;0.0773;-0.9173;
842.1000;0.0838;-0.8946;
842.4000;0.0733;-0.9173;
842.7000;0.0724;-0.9173;
843.0000;0.0733;-0.9196;
843.3000;0.0773;-0.9173;
843.6000;0.0708;-0.9354;
843.9000;0.0716;-0.9241;
844.2000;0.0733;-0.9196;
844.5000;0.0781;-0.9105;
844.8000;0.0724;-0.9263;
845.1000;0.0733;-0.9309;
845.4000;0.0716;-0.9309;
845.7000;0.0741;-0.9241;
846.0000;0.0692;-0.9467;
846.3000;0.0749;-0.9286;
846.6000;0.0733;-0.9354;
846.9000;0.0667;-0.9490;
847.2000;0.0741;-0.9309;
847.5000;0.0806;-0.9309;
847.8000;0.0733;-0.9490;
848.1000;0.0716;-0.9467;
848.4000;0.0741;-0.9309;
848.7000;0.0749;-0.9263;
849.0000;0.0700;-0.9354;
849.3000;0.0733;-0.9263;
849.6000;0.0733;-0.9263;
849.9000;0.0790;-0.9105;
850.2000;0.0749;-0.9218;
850.5000;0.0716;-0.9331;
850.8000;0.0733;-0.9331;
851.1000;0.0716;-0.9331;
851.4000;0.0733;-0.9286;
851.7000;0.0733;-0.9241;
852.0000;0.0765;-0.9150;
852.3000;0.0749;-0.9150;
852.6000;0.0733;-0.9150;
852.9000;0.0741;-0.9173;
853.2000;0.0749;-0.9196;
853.5000;0.0757;-0.9150;
853.8000;0.0724;-0.9241;
854.1000;0.0724;-0.9173;
854.4000;0.0724;-0.9218;
854.7000;0.0757;-0.9309;
855.0000;0.0749;-0.9241;
855.3000;0.0757;-0.9150;
855.6000;0.0724;-0.9196;
855.9000;0.0741;-0.9173;
856.2000;0.0651;-0.9422;
856.5000;0.0757;-0.9196;
856.8000;0.0741;-0.9196;
857.1000;0.0773;-0.9263;
857.4000;0.0733;-0.9377;
857.7000;0.0733;-0.9331;
858.0000;0.0602;-0.9535;
858.3000;0.0757;-0.9263;
858.6000;0.0733;-0.9309;
858.9000;0.0667;-0.9513;
859.2000;0.0781;-0.9173;
859.5000;0.0716;-0.9286;
859.8000;0.0733;-0.9128;
860.1000;0.0765;-0.9037;
860.4000;0.0733;-0.9150;
860.7000;0.0716;-0.9196;
861.0000;0.0749;-0.9173;
861.3000;0.0790;-0.9037;
861.6000;0.0733;-0.9263;
861.9000;0.0765;-0.9286;
862.2000;0.0749;-0.9286;
862.5000;0.0692;-0.9377;
862.8000;0.0765;-0.9105;
863.1000;0.0741;-0.9241;
863.4000;0.0757;-0.9173;
863.7000;0.0692;-0.9354;
864.0000;0.0733;-0.9218;
864.3000;0.0749;-0.9128;
864.6000;0.0838;-0.9014;
864.9000;0.0822;-0.9060;
865.2000;0.0733;-0.9377;
865.5000;0.0708;-0.9399;
865.8000;0.0773;-0.9196;
866.1000;0.0749;-0.9263;
866.4000;0.0643;-0.9513;
866.7000;0.0741;-0.9263;
867.0000;0.0716;-0.9399;
867.3000;0.0765;-0.9218;
867.6000;0.0822;-0.9037;
867.9000;0.0798;-0.9173;
868.2000;0.0733;-0.9354;
868.5000;0.0733;-0.9377;
868.8000;0.0741;-0.9377;
869.1000;0.0733;-0.9399;
869.4000;0.0733;-0.9377;
869.7000;0.0749;-0.9377;
870.0000;0.0814;-0.9241;
870.3000;0.0700;-0.9535;
870.6000;0.0733;-0.9467;
870.9000;0.0741;-0.9399;
871.2000;0.0765;-0.9263;
871.5000;0.0733;-0.9309;
871.8000;0.0733;-0.9399;
872.1000;0.0724;-0.9309;
872.4000;0.0790;-0.9196;
872.7000;0.0757;-0.9218;
873.0000;0.0765;-0.9218;
873.3000;0.0757;-0.9218;
873.6000;0.0765;-0.9218;
873.9000;0.0830;-0.9128;
874.2000;0.0724;-0.9399;
874.5000;0.0749;-0.9422;
874.8000;0.0733;-0.9490;
875.1000;0.0749;-0.9490;
875.4000;0.0684;-0.9581;
875.7000;0.0749;-0.9331;
876.0000;0.0773;-0.9196;
876.3000;0.0692;-0.9354;
876.6000;0.0733;-0.9218;
876.9000;0.0749;-0.9105;
877.2000;0.0733;-0.9105;
877.5000;0.0716;-0.9196;
877.8000;0.0741;-0.9060;
878.1000;0.0724;-0.9060;
878.4000;0.0741;-0.9014;
878.7000;0.0708;-0.9128;
879.0000;0.0741;-0.9037;
879.3000;0.0830;-0.8901;
879.6000;0.0733;-0.9060;
879.9000;0.0733;-0.9150;
880.2000;0.0749;-0.9150;
880.5000;0.0871;-0.8878;
880.8000;0.0781;-0.9218;
881.1000;0.0749;-0.9241;
881.4000;0.0724;-0.9241;
881.7000;0.0708;-0.9196;
882.0000;0.0741;-0.9173;
882.3000;0.0733;-0.9173;
882.6000;0.0749;-0.9218;
882.9000;0.0749;-0.9196;
883.2000;0.0692;-0.9286;
883.5000;0.0781;-0.9082;
883.8000;0.0757;-0.9150;
884.1000;0.0733;-0.9309;
884.4000;0.0765;-0.9286;
884.7000;0.0749;-0.9309;
885.0000;0.0733;-0.9309;
885.3000;0.0773;-0.9196;
885.6000;0.0716;-0.9354;
885.9000;0.0716;-0.9377;
886.2000;0.0716;-0.9354;
886.5000;0.0724;-0.9218;
886.8000;0.0741;-0.9196;
887.1000;0.0773;-0.9060;
887.4000;0.0733;-0.9173;
887.7000;0.0757;-0.9105;
888.0000;0.0749;-0.9128;
888.3000;0.0773;-0.9128;
888.6000;0.0741;-0.9241;
888.9000;0.0741;-0.9286;
889.2000;0.0724;-0.9309;
889.5000;0.0724;-0.9331;
889.8000;0.0741;-0.9309;
890.1000;0.0724;-0.9354;
890.4000;0.0757;-0.9263;
890.7000;0.0716;-0.9422;
891.0000;0.0790;-0.9263;
891.3000;0.0733;-0.9467;
891.6000;0.0741;-0.9445;
891.9000;0.0733;-0.9399;
892.2000;0.0733;-0.9331;
892.5000;0.0749;-0.9309;
892.8000;0.0716;-0.9331;
893.1000;0.0684;-0.9467;
893.4000;0.0741;-0.9354;
893.7000;0.0724;-0.9377;
894.0000;0.0749;-0.9377;
894.3000;0.0765;-0.9286;
894.6000;0.0749;-0.9331;
894.9000;0.0733;-0.9377;
895.2000;0.0708;-0.9399;
895.5000;0.0749;-0.9309;
895.8000;0.0724;-0.9331;
896.1000;0.0765;-0.9263;
896.4000;0.0741;-0.9218;
896.7000;0.0757;-0.9196;
897.0000;0.0700;-0.9422;
897.3000;0.0724;-0.9399;
897.6000;0.0757;-0.9377;
897.9000;0.0733;-0.9467;
898.2000;0.0733;-0.9513;
898.5000;0.0741;-0.9558;
898.8000;0.0741;-0.9603;
899.1000;0.0749;-0.9603;
899.4000;0.0887;-0.9218;
899.7000;0.0692;-0.9671;
900.0000;0.0724;-0.9581;
900.3000;0.0708;-0.9535;
900.6000;0.0716;-0.9422;
900.9000;0.0757;-0.9263;
901.2000;0.0741;-0.9263;
901.5000;0.0733;-0.9241;
901.8000;0.0757;-0.9196;
902.1000;0.0757;-0.9286;
902.4000;0.0619;-0.9603;
902.7000;0.0733;-0.9331;
903.0000;0.0676;-0.9490;
903.3000;0.0741;-0.9309;
903.6000;0.0724;-0.9286;
903.9000;0.0741;-0.9286;
904.2000;0.0733;-0.9309;
904.5000;0.0733;-0.9309;
904.8000;0.0684;-0.9490;
905.1000;0.0708;-0.9445;
905.4000;0.0765;-0.9309;
905.7000;0.0716;-0.9399;
906.0000;0.0716;-0.9354;
906.3000;0.0667;-0.9422;
906.6000;0.0757;-0.9241;
906.9000;0.0757;-0.9263;
907.2000;0.0749;-0.9354;
907.5000;0.0749;-0.9377;
907.8000;0.0741;-0.9445;
908.1000;0.0724;-0.9603;
908.4000;0.0765;-0.9377;
908.7000;0.0749;-0.9354;
909.0000;0.0733;-0.9354;
909.3000;0.0708;-0.9467;
909.6000;0.0749;-0.9422;
909.9000;0.0790;-0.9377;
910.2000;0.0741;-0.9490;
910.5000;0.0773;-0.9399;
910.8000;0.0667;-0.9626;
911.1000;0.0724;-0.9467;
911.4000;0.0733;-0.9581;
911.7000;0.0733;-0.9558;
912.0000;0.0741;-0.9581;
912.3000;0.0708;-0.9535;
912.6000;0.0749;-0.9354;
912.9000;0.0814;-0.9082;
913.2000;0.0708;-0.9309;
913.5000;0.0716;-0.9309;
913.8000;0.0798;-0.9105;
914.1000;0.0749;-0.9241;
914.4000;0.0724;-0.9354;
914.7000;0.0716;-0.9331;
915.0000;0.0741;-0.9331;
915.3000;0.0741;-0.9286;
915.6000;0.0676;-0.9445;
915.9000;0.0716;-0.9354;
916.2000;0.0684;-0.9445;
916.5000;0.0741;-0.9286;
916.8000;0.0749;-0.9286;
917.1000;0.0790;-0.9150;
917.4000;0.0733;-0.9263;
917.7000;0.0741;-0.9241;
918.0000;0.0765;-0.9218;
918.3000;0.0749;-0.9331;
918.6000;0.0692;-0.9377;
918.9000;0.0749;-0.9128;
919.2000;0.0724;-0.9128;
919.5000;0.0741;-0.9150;
919.8000;0.0724;-0.9263;
920.1000;0.0684;-0.9354;
920.4000;0.0773;-0.9241;
920.7000;0.0733;-0.9263;
921.0000;0.0692;-0.9263;
921.3000;0.0790;-0.9037;
921.6000;0.0765;-0.9060;
921.9000;0.0733;-0.9105;
922.2000;0.0757;-0.9082;
922.5000;0.0741;-0.9173;
922.8000;0.0676;-0.9354;
923.1000;0.0895;-0.8878;
923.4000;0.0733;-0.9331;
923.7000;0.0757;-0.9173;
924.0000;0.0724;-0.9286;
924.3000;0.0684;-0.9513;
924.6000;0.0708;-0.9286;
924.9000;0.0879;-0.8788;
925.2000;0.0749;-0.9218;
925.5000;0.0741;-0.9241;
925.8000;0.0806;-0.9150;
926.1000;0.0708;-0.9399;
926.4000;0.0741;-0.9309;
926.7000;0.0741;-0.9309;
927.0000;0.0733;-0.9354;
927.3000;0.0733;-0.9445;
927.6000;0.0749;-0.9558;
927.9000;0.0741;-0.9581;
928.2000;0.0757;-0.9581;
928.5000;0.0733;-0.9513;
928.8000;0.0741;-0.9467;
929.1000;0.0749;-0.9490;
929.4000;0.0724;-0.9581;
929.7000;0.0814;-0.9286;
930.0000;0.0724;-0.9422;
930.3000;0.0716;-0.9422;
930.6000;0.0741;-0.9422;
930.9000;0.0757;-0.9354;
931.2000;0.0716;-0.9467;
931.5000;0.0749;-0.9354;
931.8000;0.0724;-0.9467;
932.1000;0.0724;-0.9513;
932.4000;0.0749;-0.9331;
932.7000;0.0741;-0.9309;
933.0000;0.0733;-0.9377;
933.3000;0.0749;-0.9286;
933.6000;0.0749;-0.9286;
933.9000;0.0716;-0.9331;
934.2000;0.0733;-0.9309;
934.5000;0.0798;-0.9105;
934.8000;0.0643;-0.9581;
935.1000;0.0716;-0.9377;
935.4000;0.0724;-0.9331;
935.7000;0.0733;-0.9286;
936.0000;0.0700;-0.9309;
936.3000;0.0749;-0.9218;
936.6000;0.0716;-0.9445;
936.9000;0.0733;-0.9467;
937.2000;0.0757;-0.9467;
937.5000;0.0733;-0.9513;
937.8000;0.0749;-0.9445;
938.1000;0.0741;-0.9558;
938.4000;0.0822;-0.9331;
938.7000;0.0708;-0.9513;
939.0000;0.0716;-0.9422;
939.3000;0.0741;-0.9331;
939.6000;0.0733;-0.9354;
939.9000;0.0741;-0.9377;
940.2000;0.0724;-0.9377;
940.5000;0.0708;-0.9422;
940.8000;0.0733;-0.9286;
941.1000;0.0733;-0.9263;
941.4000;0.0781;-0.9082;
941.7000;0.0708;-0.9218;
942.0000;0.0741;-0.9060;
942.3000;0.0749;-0.9060;
942.6000;0.0741;-0.9150;
942.9000;0.0757;-0.9218;
943.2000;0.0733;-0.9263;
943.5000;0.0757;-0.9309;
943.8000;0.0741;-0.9331;
944.1000;0.0757;-0.9263;
944.4000;0.0676;-0.9467;
944.7000;0.0741;-0.9354;
945.0000;0.0741;-0.9377;
945.3000;0.0651;-0.9603;
945.6000;0.0733;-0.9445;
945.9000;0.0741;-0.9422;
946.2000;0.0741;-0.9445;
946.5000;0.0716;-0.9558;
946.8000;0.0749;-0.9422;
947.1000;0.0757;-0.9422;
947.4000;0.0733;-0.9513;
947.7000;0.0733;-0.9490;
948.0000;0.0757;-0.9490;
948.3000;0.0749;-0.9513;
948.6000;0.0765;-0.9422;
948.9000;0.0798;-0.9331;
949.2000;0.0733;-0.9399;
949.5000;0.0724;-0.9399;
949.8000;0.0741;-0.9399;
950.1000;0.0773;-0.9263;
950.4000;0.0741;-0.9377;
950.7000;0.0724;-0.9354;
951.0000;0.0765;-0.9263;
951.3000;0.0741;-0.9354;
951.6000;0.0733;-0.9399;
951.9000;0.0724;-0.9331;
952.2000;0.0757;-0.9196;
952.5000;0.0724;-0.9196;
952.8000;0.0741;-0.9241;
953.1000;0.0733;-0.9354;
953.4000;0.0716;-0.9422;
953.7000;0.0724;-0.9263;
954.0000;0.0749;-0.9263;
954.3000;0.0708;-0.9331;
954.6000;0.0757;-0.9309;
954.9000;0.0733;-0.9354;
955.2000;0.0741;-0.9309;
955.5000;0.0724;-0.9263;
955.8000;0.0676;-0.9399;
956.1000;0.0733;-0.9286;
956.4000;0.0708;-0.9377;
956.7000;0.0741;-0.9218;
957.0000;0.0700;-0.9354;
957.3000;0.0733;-0.9218;
957.6000;0.0749;-0.9218;
957.9000;0.0765;-0.9196;
958.2000;0.0749;-0.9309;
958.5000;0.0667;-0.9467;
958.8000;0.0733;-0.9309;
959.1000;0.0749;-0.9218;
959.4000;0.0733;-0.9241;
959.7000;0.0741;-0.9218;
960.0000;0.0773;-0.9173;
960.3000;0.0757;-0.9196;
960.6000;0.0757;-0.9196;
960.9000;0.0733;-0.9286;
961.2000;0.0611;-0.9558;
961.5000;0.0700;-0.9377;
961.8000;0.0716;-0.9331;
962.1000;0.0749;-0.9218;
962.4000;0.0741;-0.9218;
962.7000;0.0749;-0.9150;
963.0000;0.0741;-0.9128;
963.3000;0.0741;-0.9128;
963.6000;0.0733;-0.9263;
963.9000;0.0627;-0.9513;
964.2000;0.0733;-0.9286;
964.5000;0.0749;-0.9218;
964.8000;0.0741;-0.9241;
965.1000;0.0798;-0.9082;
965.4000;0.0724;-0.9150;
965.7000;0.0733;-0.9173;
966.0000;0.0765;-0.9128;
966.3000;0.0765;-0.9128;
966.6000;0.0733;-0.9150;
966.9000;0.0733;-0.9150;
967.2000;0.0781;-0.9037;
967.5000;0.0765;-0.9128;
967.8000;0.0749;-0.9218;
968.1000;0.0733;-0.9241;
968.4000;0.0765;-0.9128;
968.7000;0.0749;-0.9218;
969.0000;0.0733;-0.9196;
969.3000;0.0822;-0.9014;
969.6000;0.0716;-0.9377;
969.9000;0.0741;-0.9354;
970.2000;0.0741;-0.9399;
970.5000;0.0806;-0.9173;
970.8000;0.0749;-0.9218;
971.1000;0.0667;-0.9331;
971.4000;0.0716;-0.9263;
971.7000;0.0733;-0.9105;
972.0000;0.0602;-0.9354;
972.3000;0.0749;-0.9037;
972.6000;0.0749;-0.9173;
972.9000;0.0724;-0.9196;
973.2000;0.0733;-0.9082;
973.5000;0.0749;-0.9014;
973.8000;0.0741;-0.9060;
974.1000;0.0700;-0.9263;
974.4000;0.0773;-0.9060;
974.7000;0.0659;-0.9467;
975.0000;0.0773;-0.9241;
975.3000;0.0708;-0.9377;
975.6000;0.0733;-0.9331;
975.9000;0.0724;-0.9331;
976.2000;0.0724;-0.9399;
976.5000;0.0692;-0.9535;
976.8000;0.0724;-0.9490;
977.1000;0.0757;-0.9354;
977.4000;0.0667;-0.9558;
977.7000;0.0716;-0.9331;
978.0000;0.0733;-0.9354;
978.3000;0.0741;-0.9241;
978.6000;0.0741;-0.9241;
978.9000;0.0733;-0.9241;
979.2000;0.0741;-0.9241;
979.5000;0.0773;-0.9128;
979.8000;0.0781;-0.9060;
980.1000;0.0724;-0.9173;
980.4000;0.0708;-0.9173;
980.7000;0.0741;-0.9173;
981.0000;0.0643;-0.9535;
981.3000;0.0724;-0.9377;
981.6000;0.0741;-0.9263;
981.9000;0.0757;-0.9263;
982.2000;0.0724;-0.9399;
982.5000;0.0676;-0.9581;
982.8000;0.0741;-0.9422;
983.1000;0.0733;-0.9286;
983.4000;0.0773;-0.9128;
983.7000;0.0749;-0.9241;
984.0000;0.0667;-0.9490;
984.3000;0.0757;-0.9286;
984.6000;0.0733;-0.9286;
984.9000;0.0749;-0.9241;
985.2000;0.0733;-0.9218;
985.5000;0.0838;-0.8946;
985.8000;0.0724;-0.9218;
986.1000;0.0716;-0.9173;
986.4000;0.0741;-0.9037;
986.7000;0.0749;-0.9060;
987.0000;0.0724;-0.9037;
987.3000;0.0749;-0.9037;
987.6000;0.0733;-0.9082;
987.9000;0.0733;-0.9173;
988.2000;0.0724;-0.9128;
988.5000;0.0733;-0.9082;
988.8000;0.0724;-0.8992;
989.1000;0.0749;-0.9082;
989.4000;0.0741;-0.9196;
989.7000;0.0659;-0.9445;
990.0000;0.0757;-0.9150;
990.3000;0.0716;-0.9263;
990.6000;0.0749;-0.9150;
990.9000;0.0724;-0.9173;
991.2000;0.0716;-0.9105;
991.5000;0.0708;-0.9105;
991.8000;0.0765;-0.9014;
992.1000;0.0724;-0.9128;
992.4000;0.0733;-0.9196;
992.7000;0.0749;-0.9128;
993.0000;0.0708;-0.9331;
993.3000;0.0627;-0.9467;
993.6000;0.0724;-0.9241;
993.9000;0.0684;-0.9331;
994.2000;0.0741;-0.9082;
994.5000;0.0749;-0.8992;
994.8000;0.0741;-0.9082;
995.1000;0.0733;-0.9150;
995.4000;0.0733;-0.9150;
995.7000;0.0733;-0.9128;
996.0000;0.0749;-0.9150;
996.3000;0.0741;-0.9173;
996.6000;0.0724;-0.9150;
996.9000;0.0749;-0.9150;
997.2000;0.0757;-0.9150;
997.5000;0.0749;-0.9173;
997.8000;0.0741;-0.9196;
998.1000;0.0676;-0.9422;
998.4000;0.0684;-0.9331;
998.7000;0.0724;-0.9173;
999.0000;0.0741;-0.9105;
999.3000;0.0733;-0.9150;
999.6000;0.0692;-0.9309;
999.9000;0.0749;-0.9082;
1000.2000;0.0757;-0.9037;
1000.5000;0.0806;-0.8992;
1000.8000;0.0741;-0.9082;
1001.1000;0.0749;-0.9150;
1001.4000;0.0684;-0.9354;
1001.7000;0.0716;-0.9309;
1002.0000;0.0724;-0.9331;
1002.3000;0.0724;-0.9286;
1002.6000;0.0733;-0.9309;
1002.9000;0.0716;-0.9377;
1003.2000;0.0781;-0.9241;
1003.5000;0.0765;-0.9241;
1003.8000;0.0733;-0.9286;
1004.1000;0.0741;-0.9286;
1004.4000;0.0741;-0.9286;
1004.7000;0.0741;-0.9286;
1005.0000;0.0716;-0.9286;
1005.3000;0.0749;-0.9241;
1005.6000;0.0765;-0.9241;
1005.9000;0.0765;-0.9286;
1006.2000;0.0733;-0.9445;
1006.5000;0.0781;-0.9354;
1006.8000;0.0733;-0.9445;
1007.1000;0.0643;-0.9581;
1007.4000;0.0733;-0.9309;
1007.7000;0.0749;-0.9286;
1008.0000;0.0798;-0.9150;
1008.3000;0.0773;-0.9218;
1008.6000;0.0741;-0.9263;
1008.9000;0.0733;-0.9399;
1009.2000;0.0659;-0.9626;
1009.5000;0.0765;-0.9331;
1009.8000;0.0733;-0.9377;
1010.1000;0.0724;-0.9399;
1010.4000;0.0724;-0.9399;
1010.7000;0.0749;-0.9354;
1011.0000;0.0716;-0.9445;
1011.3000;0.0741;-0.9331;
1011.6000;0.0708;-0.9445;
1011.9000;0.0724;-0.9467;
1012.2000;0.0716;-0.9490;
1012.5000;0.0749;-0.9445;
1012.8000;0.0757;-0.9422;
1013.1000;0.0733;-0.9422;
1013.4000;0.0741;-0.9354;
1013.7000;0.0749;-0.9399;
1014.0000;0.0790;-0.9263;
1014.3000;0.0733;-0.9399;
1014.6000;0.0733;-0.9399;
1014.9000;0.0749;-0.9331;
1015.2000;0.0757;-0.9263;
1015.5000;0.0733;-0.9331;
1015.8000;0.0733;-0.9331;
1016.1000;0.0749;-0.9286;
1016.4000;0.0847;-0.9105;
1016.7000;0.0724;-0.9354;
1017.0000;0.0635;-0.9467;
1017.3000;0.0692;-0.9331;
1017.6000;0.0773;-0.9105;
1017.9000;0.0765;-0.9105;
1018.2000;0.0741;-0.9196;
1018.5000;0.0741;-0.9241;
1018.8000;0.0757;-0.9173;
1019.1000;0.0741;-0.9128;
1019.4000;0.0716;-0.9196;
1019.7000;0.0814;-0.9037;
1020.0000;0.0724;-0.9241;
1020.3000;0.0733;-0.9241;
1020.6000;0.0724;-0.9196;
1020.9000;0.0741;-0.9173;
1021.2000;0.0765;-0.9082;
1021.5000;0.0749;-0.9060;
1021.8000;0.0733;-0.9150;
1022.1000;0.0798;-0.9082;
1022.4000;0.0716;-0.9196;
1022.7000;0.0765;-0.9173;
1023.0000;0.0733;-0.9105;
1023.3000;0.0749;-0.9014;
1023.6000;0.0741;-0.9037;
1023.9000;0.0716;-0.9082;
1024.2000;0.0724;-0.9105;
1024.5000;0.0806;-0.8946;
1024.8000;0.0741;-0.9150;
1025.1000;0.0749;-0.9150;
1025.4000;0.0708;-0.9196;
1025.7000;0.0716;-0.9196;
1026.0000;0.0692;-0.9263;
1026.3000;0.0741;-0.9128;
1026.6000;0.0733;-0.9241;
1026.9000;0.0724;-0.9196;
1027.2000;0.0716;-0.9309;
1027.5000;0.0847;-0.9037;
1027.8000;0.0667;-0.9490;
1028.1000;0.0716;-0.9241;
1028.4000;0.0904;-0.8788;
1028.7000;0.0741;-0.9241;
1029.0000;0.0741;-0.9218;
1029.3000;0.0733;-0.9218;
1029.6000;0.0733;-0.9241;
1029.9000;0.0676;-0.9354;
1030.2000;0.0716;-0.9128;
1030.5000;0.0716;-0.9105;
1030.8000;0.0716;-0.9105;
1031.1000;0.0749;-0.9037;
1031.4000;0.0765;-0.9060;
1031.7000;0.0724;-0.9128;
1032.0000;0.0684;-0.9218;
1032.3000;0.0798;-0.8924;
1032.6000;0.0749;-0.9128;
1032.9000;0.0806;-0.9014;
1033.2000;0.0741;-0.9105;
1033.5000;0.0733;-0.9196;
1033.8000;0.0733;-0.9286;
1034.1000;0.0733;-0.9309;
1034.4000;0.0716;-0.9309;
1034.7000;0.0741;-0.9218;
1035.0000;0.0838;-0.8992;
1035.3000;0.0757;-0.9241;
1035.6000;0.0781;-0.9105;
1035.9000;0.0838;-0.9014;
1036.2000;0.0733;-0.9241;
1036.5000;0.0757;-0.9150;
1036.8000;0.0733;-0.9150;
1037.1000;0.0741;-0.9060;
1037.4000;0.0781;-0.8992;
1037.7000;0.0765;-0.9037;
1038.0000;0.0733;-0.9105;
1038.3000;0.0765;-0.9014;
1038.6000;0.0741;-0.9105;
1038.9000;0.0741;-0.9241;
1039.2000;0.0822;-0.9082;
1039.5000;0.0757;-0.9263;
1039.8000;0.0716;-0.9422;
1040.1000;0.0741;-0.9377;
1040.4000;0.0724;-0.9354;
1040.7000;0.0749;-0.9286;
1041.0000;0.0708;-0.9377;
1041.3000;0.0806;-0.9150;
1041.6000;0.0749;-0.9309;
1041.9000;0.0765;-0.9218;
1042.2000;0.0741;-0.9263;
1042.5000;0.0749;-0.9218;
1042.8000;0.0741;-0.9173;
1043.1000;0.0741;-0.9105;
1043.4000;0.0667;-0.9309;
1043.7000;0.0822;-0.8901;
1044.0000;0.0781;-0.8946;
1044.3000;0.0724;-0.9173;
1044.6000;0.0741;-0.9105;
1044.9000;0.0757;-0.9105;
1045.2000;0.0741;-0.9128;
1045.5000;0.0692;-0.9196;
1045.8000;0.0724;-0.9196;
1046.1000;0.0822;-0.8992;
1046.4000;0.0765;-0.9150;
1046.7000;0.0749;-0.9241;
1047.0000;0.0724;-0.9354;
1047.3000;0.0684;-0.9377;
1047.6000;0.0757;-0.9354;
1047.9000;0.0757;-0.9422;
1048.2000;0.0733;-0.9354;
1048.5000;0.0765;-0.9309;
1048.8000;0.0733;-0.9309;
1049.1000;0.0757;-0.9263;
1049.4000;0.0773;-0.9218;
1049.7000;0.0667;-0.9399;
1050.0000;0.0708;-0.9196;
1050.3000;0.0822;-0.8946;
1050.6000;0.0749;-0.9105;
1050.9000;0.0814;-0.8878;
1051.2000;0.0773;-0.9014;
1051.5000;0.0757;-0.9128;
1051.8000;0.0716;-0.9218;
1052.1000;0.0749;-0.9105;
1052.4000;0.0733;-0.9128;
1052.7000;0.0724;-0.9082;
1053.0000;0.0733;-0.9060;
1053.3000;0.0716;-0.9082;
1053.6000;0.0733;-0.9060;
1053.9000;0.0716;-0.9218;
1054.2000;0.0749;-0.9173;
1054.5000;0.0700;-0.9196;
1054.8000;0.0708;-0.9082;
1055.1000;0.0936;-0.8539;
1055.4000;0.0716;-0.9060;
1055.7000;0.0724;-0.9105;
1056.0000;0.0765;-0.8992;
1056.3000;0.0676;-0.9309;
1056.6000;0.0676;-0.9445;
1056.9000;0.0757;-0.9263;
1057.2000;0.0749;-0.9263;
1057.5000;0.0749;-0.9196;
1057.8000;0.0716;-0.9241;
1058.1000;0.0733;-0.9105;
1058.4000;0.0716;-0.9150;
1058.7000;0.0716;-0.9241;
1059.0000;0.0757;-0.9128;
1059.3000;0.0749;-0.9173;
1059.6000;0.0741;-0.9173;
1059.9000;0.0733;-0.9128;
1060.2000;0.0741;-0.9082;
1060.5000;0.0757;-0.9060;
1060.8000;0.0757;-0.9082;
1061.1000;0.0749;-0.9150;
1061.4000;0.0741;-0.9241;
1061.7000;0.0765;-0.9196;
1062.0000;0.0724;-0.9331;
1062.3000;0.0716;-0.9377;
1062.6000;0.0741;-0.9309;
1062.9000;0.0741;-0.9354;
1063.2000;0.0741;-0.9354;
1063.5000;0.0765;-0.9331;
1063.8000;0.0741;-0.9422;
1064.1000;0.0741;-0.9399;
1064.4000;0.0733;-0.9399;
1064.7000;0.0806;-0.9173;
1065.0000;0.0724;-0.9399;
1065.3000;0.0741;-0.9399;
1065.6000;0.0749;-0.9377;
1065.9000;0.0741;-0.9445;
1066.2000;0.0684;-0.9558;
1066.5000;0.0716;-0.9399;
1066.8000;0.0757;-0.9331;
1067.1000;0.0724;-0.9331;
1067.4000;0.0724;-0.9218;
1067.7000;0.0749;-0.9150;
1068.0000;0.0765;-0.9105;
1068.3000;0.0757;-0.9105;
1068.6000;0.0733;-0.9241;
1068.9000;0.0708;-0.9309;
1069.2000;0.0749;-0.9196;
1069.5000;0.0741;-0.9150;
1069.8000;0.0733;-0.9218;
1070.1000;0.0700;-0.9331;
1070.4000;0.0741;-0.9286;
1070.7000;0.0733;-0.9309;
1071.0000;0.0724;-0.9309;
1071.3000;0.0627;-0.9603;
1071.6000;0.0749;-0.9377;
1071.9000;0.0773;-0.9422;
1072.2000;0.0749;-0.9399;
1072.5000;0.0667;-0.9581;
1072.8000;0.0757;-0.9263;
1073.1000;0.0757;-0.9196;
1073.4000;0.0749;-0.9263;
1073.7000;0.0741;-0.9309;
1074.0000;0.0724;-0.9399;
1074.3000;0.0757;-0.9286;
1074.6000;0.0594;-0.9581;
1074.9000;0.0749;-0.9196;
1075.2000;0.0765;-0.9218;
1075.5000;0.0716;-0.9263;
1075.8000;0.0716;-0.9263;
1076.1000;0.0773;-0.9173;
1076.4000;0.0749;-0.9173;
1076.7000;0.0733;-0.9241;
1077.0000;0.0733;-0.9218;
1077.3000;0.0749;-0.9173;
1077.6000;0.0790;-0.9128;
1077.9000;0.0765;-0.9241;
1078.2000;0.0749;-0.9196;
1078.5000;0.0749;-0.9173;
1078.8000;0.0684;-0.9309;
1079.1000;0.0602;-0.9490;
1079.4000;0.0733;-0.9082;
1079.7000;0.0741;-0.9037;
1080.0000;0.0741;-0.8992;
1080.3000;0.0773;-0.8969;
1080.6000;0.0741;-0.9150;
1080.9000;0.0781;-0.9037;
1081.2000;0.0724;-0.9128;
1081.5000;0.0733;-0.9150;
1081.8000;0.0733;-0.9128;
1082.1000;0.0847;-0.8833;
1082.4000;0.0741;-0.9014;
1082.7000;0.0757;-0.9082;
1083.0000;0.0749;-0.9105;
1083.3000;0.0765;-0.9014;
1083.6000;0.0733;-0.9218;
1083.9000;0.0708;-0.9286;
1084.2000;0.0757;-0.9218;
1084.5000;0.0749;-0.9286;
1084.8000;0.0765;-0.9263;
1085.1000;0.0741;-0.9286;
1085.4000;0.0781;-0.9128;
1085.7000;0.0724;-0.9286;
1086.0000;0.0741;-0.9241;
1086.3000;0.0741;-0.9173;
1086.6000;0.0733;-0.9150;
1086.9000;0.0741;-0.9218;
1087.2000;0.0863;-0.8969;
1087.5000;0.0773;-0.9128;
1087.8000;0.0733;-0.9196;
1088.1000;0.0749;-0.9150;
1088.4000;0.0724;-0.9173;
1088.7000;0.0733;-0.9082;
1089.0000;0.0847;-0.8810;
1089.3000;0.0749;-0.8992;
1089.6000;0.0733;-0.8946;
1089.9000;0.0708;-0.8901;
1090.2000;0.0521;-0.9309;
1090.5000;0.0741;-0.8833;
1090.8000;0.0724;-0.8946;
1091.1000;0.0741;-0.9014;
1091.4000;0.0765;-0.9037;
1091.7000;0.0724;-0.9082;
1092.0000;0.0724;-0.9150;
1092.3000;0.0733;-0.9173;
1092.6000;0.0741;-0.9263;
1092.9000;0.0700;-0.9399;
1093.2000;0.0765;-0.9377;
1093.5000;0.0749;-0.9422;
1093.8000;0.0741;-0.9399;
1094.1000;0.0724;-0.9422;
1094.4000;0.0724;-0.9467;
1094.7000;0.0724;-0.9422;
1095.0000;0.0757;-0.9354;
1095.3000;0.0830;-0.9173;
1095.6000;0.0806;-0.9173;
1095.9000;0.0724;-0.9263;
1096.2000;0.0741;-0.9196;
1096.5000;0.0798;-0.9060;
1096.8000;0.0749;-0.9150;
1097.1000;0.0733;-0.9173;
1097.4000;0.0708;-0.9286;
1097.7000;0.0708;-0.9331;
1098.0000;0.0716;-0.9354;
1098.3000;0.0724;-0.9445;
1098.6000;0.0724;-0.9422;
1098.9000;0.0724;-0.9422;
1099.2000;0.0708;-0.9558;
1099.5000;0.0733;-0.9490;
1099.8000;0.0757;-0.9377;
1100.1000;0.0741;-0.9377;
1100.4000;0.0724;-0.9354;
1100.7000;0.0749;-0.9309;
1101.0000;0.0741;-0.9263;
1101.3000;0.0741;-0.9286;
1101.6000;0.0741;-0.9331;
1101.9000;0.0733;-0.9399;
1102.2000;0.0749;-0.9377;
1102.5000;0.0741;-0.9445;
1102.8000;0.0733;-0.9354;
1103.1000;0.0578;-0.9739;
1103.4000;0.0741;-0.9218;
1103.7000;0.0733;-0.9173;
1104.0000;0.0611;-0.9490;
1104.3000;0.0716;-0.9173;
1104.6000;0.0741;-0.9150;
1104.9000;0.0749;-0.9037;
1105.2000;0.0741;-0.9014;
1105.5000;0.0757;-0.8946;
1105.8000;0.0749;-0.8901;
1106.1000;0.0781;-0.8856;
1106.4000;0.0741;-0.8969;
1106.7000;0.0741;-0.8878;
1107.0000;0.0733;-0.8901;
1107.3000;0.0749;-0.8856;
1107.6000;0.0757;-0.8924;
1107.9000;0.0741;-0.8992;
1108.2000;0.0773;-0.8969;
1108.5000;0.0741;-0.9037;
1108.8000;0.0716;-0.9105;
1109.1000;0.0749;-0.9037;
1109.4000;0.0798;-0.9014;
1109.7000;0.0724;-0.9150;
1110.0000;0.0724;-0.9037;
1110.3000;0.0733;-0.9014;
1110.6000;0.0773;-0.8924;
1110.9000;0.0733;-0.8992;
1111.2000;0.0773;-0.8969;
1111.5000;0.0749;-0.9014;
1111.8000;0.0659;-0.9128;
1112.1000;0.0684;-0.9037;
1112.4000;0.0724;-0.8992;
1112.7000;0.0757;-0.8969;
1113.0000;0.0741;-0.8992;
1113.3000;0.0757;-0.8969;
1113.6000;0.0814;-0.8765;
1113.9000;0.0749;-0.8901;
1114.2000;0.0619;-0.9263;
1114.5000;0.0724;-0.8992;
1114.8000;0.0741;-0.8924;
1115.1000;0.0749;-0.8969;
1115.4000;0.0716;-0.9082;
1115.7000;0.0749;-0.9105;
1116.0000;0.0724;-0.9241;
1116.3000;0.0741;-0.9105;
1116.6000;0.0708;-0.9173;
1116.9000;0.0700;-0.9150;
1117.2000;0.0741;-0.9014;
1117.5000;0.0733;-0.9128;
1117.8000;0.0708;-0.9196;
1118.1000;0.0749;-0.9150;
1118.4000;0.0724;-0.9241;
1118.7000;0.0741;-0.9150;
1119.0000;0.0733;-0.9196;
1119.3000;0.0733;-0.9060;
1119.6000;0.0651;-0.9286;
1119.9000;0.0716;-0.9128;
1120.2000;0.0733;-0.9173;
1120.5000;0.0749;-0.9105;
1120.8000;0.0716;-0.9173;
1121.1000;0.0765;-0.8992;
1121.4000;0.0765;-0.9014;
1121.7000;0.0741;-0.9196;
1122.0000;0.0733;-0.9263;
1122.3000;0.0773;-0.9060;
1122.6000;0.0749;-0.9196;
1122.9000;0.0733;-0.9263;
1123.2000;0.0757;-0.9286;
1123.5000;0.0757;-0.9399;
1123.8000;0.0635;-0.9649;
1124.1000;0.0757;-0.9377;
1124.4000;0.0724;-0.9513;
1124.7000;0.0741;-0.9445;
1125.0000;0.0733;-0.9445;
1125.3000;0.0757;-0.9377;
1125.6000;0.0733;-0.9422;
1125.9000;0.0733;-0.9331;
1126.2000;0.0724;-0.9309;
1126.5000;0.0741;-0.9218;
1126.8000;0.0733;-0.9263;
1127.1000;0.0724;-0.9331;
1127.4000;0.0773;-0.9286;
1127.7000;0.0716;-0.9377;
1128.0000;0.0741;-0.9354;
1128.3000;0.0733;-0.9263;
1128.6000;0.0741;-0.9286;
1128.9000;0.0676;-0.9399;
1129.2000;0.0741;-0.9173;
1129.5000;0.0757;-0.9128;
1129.8000;0.0733;-0.9196;
1130.1000;0.0684;-0.9309;
1130.4000;0.0700;-0.9309;
1130.7000;0.0741;-0.9263;
1131.0000;0.0765;-0.9241;
1131.3000;0.0716;-0.9263;
1131.6000;0.0741;-0.9241;
1131.9000;0.0741;-0.9263;
1132.2000;0.0659;-0.9513;
1132.5000;0.0708;-0.9399;
1132.8000;0.0749;-0.9331;
1133.1000;0.0765;-0.9263;
1133.4000;0.0692;-0.9490;
1133.7000;0.0741;-0.9467;
1134.0000;0.0749;-0.9445;
1134.3000;0.0741;-0.9422;
1134.6000;0.0733;-0.9490;
1134.9000;0.0757;-0.9513;
1135.2000;0.0814;-0.9309;
1135.5000;0.0765;-0.9331;
1135.8000;0.0830;-0.9037;
1136.1000;0.0651;-0.9445;
1136.4000;0.0733;-0.9196;
1136.7000;0.0741;-0.9263;
1137.0000;0.0749;-0.9309;
1137.3000;0.0733;-0.9399;
1137.6000;0.0749;-0.9331;
1137.9000;0.0741;-0.9331;
1138.2000;0.0863;-0.9037;
1138.5000;0.0798;-0.9082;
1138.8000;0.0749;-0.9196;
1139.1000;0.0741;-0.9196;
1139.4000;0.0733;-0.9196;
1139.7000;0.0733;-0.9218;
1140.0000;0.0733;-0.9105;
1140.3000;0.0749;-0.8992;
1140.6000;0.0724;-0.8946;
1140.9000;0.0765;-0.8901;
1141.2000;0.0749;-0.8992;
1141.5000;0.0798;-0.8856;
1141.8000;0.0643;-0.9241;
1142.1000;0.0781;-0.8946;
1142.4000;0.0733;-0.9082;
1142.7000;0.0741;-0.9060;
1143.0000;0.0741;-0.9037;
1143.3000;0.0659;-0.9173;
1143.6000;0.0749;-0.8992;
1143.9000;0.0749;-0.9082;
1144.2000;0.0708;-0.9082;
1144.5000;0.0749;-0.8969;
1144.8000;0.0822;-0.8765;
1145.1000;0.0749;-0.8901;
1145.4000;0.0741;-0.8924;
1145.7000;0.0741;-0.9014;
1146.0000;0.0684;-0.9196;
1146.3000;0.0651;-0.9286;
1146.6000;0.0724;-0.9150;
1146.9000;0.0806;-0.8969;
1147.2000;0.0676;-0.9309;
1147.5000;0.0716;-0.9150;
1147.8000;0.0871;-0.8743;
1148.1000;0.0741;-0.8946;
1148.4000;0.0716;-0.8969;
1148.7000;0.0716;-0.9082;
1149.0000;0.0733;-0.9105;
1149.3000;0.0757;-0.9128;
1149.6000;0.0749;-0.9196;
1149.9000;0.0700;-0.9331;
1150.2000;0.0692;-0.9331;
1150.5000;0.0741;-0.9241;
1150.8000;0.0708;-0.9196;
1151.1000;0.0692;-0.9196;
1151.4000;0.0716;-0.9150;
1151.7000;0.0757;-0.8992;
1152.0000;0.0684;-0.9241;
1152.3000;0.0733;-0.9060;
1152.6000;0.0741;-0.9173;
1152.9000;0.0733;-0.9173;
1153.2000;0.0733;-0.9173;
1153.5000;0.0741;-0.9150;
1153.8000;0.0733;-0.9105;
1154.1000;0.0692;-0.9241;
1154.4000;0.0757;-0.9014;
1154.7000;0.0757;-0.8946;
1155.0000;0.0724;-0.9060;
1155.3000;0.0733;-0.9060;
1155.6000;0.0733;-0.9037;
1155.9000;0.0741;-0.9037;
1156.2000;0.0733;-0.9037;
1156.5000;0.0733;-0.9037;
1156.8000;0.0733;-0.9060;
1157.1000;0.0757;-0.9014;
1157.4000;0.0733;-0.9082;
1157.7000;0.0749;-0.9105;
1158.0000;0.0724;-0.9241;
1158.3000;0.0676;-0.9354;
1158.6000;0.0741;-0.9241;
1158.9000;0.0692;-0.9354;
1159.2000;0.0757;-0.9105;
1159.5000;0.0733;-0.9128;
1159.8000;0.0741;-0.9014;
1160.1000;0.0765;-0.8901;
1160.4000;0.0716;-0.9082;
1160.7000;0.0749;-0.9150;
1161.0000;0.0724;-0.9105;
1161.3000;0.0733;-0.9128;
1161.6000;0.0733;-0.9150;
1161.9000;0.0700;-0.9377;
1162.2000;0.0733;-0.9241;
1162.5000;0.0724;-0.9173;
1162.8000;0.0741;-0.9128;
1163.1000;0.0757;-0.9173;
1163.4000;0.0684;-0.9286;
1163.7000;0.0741;-0.9082;
1164.0000;0.0781;-0.8901;
1164.3000;0.0733;-0.8924;
1164.6000;0.0741;-0.8946;
1164.9000;0.0708;-0.9037;
1165.2000;0.0741;-0.8924;
1165.5000;0.0790;-0.8833;
1165.8000;0.0724;-0.8924;
1166.1000;0.0757;-0.8901;
1166.4000;0.0773;-0.8901;
1166.7000;0.0741;-0.9014;
1167.0000;0.0765;-0.9105;
1167.3000;0.0749;-0.9150;
1167.6000;0.0733;-0.9196;
1167.9000;0.0724;-0.9196;
1168.2000;0.0700;-0.9173;
1168.5000;0.0684;-0.9309;
1168.8000;0.0724;-0.9218;
1169.1000;0.0716;-0.9105;
1169.4000;0.0741;-0.9082;
1169.7000;0.0741;-0.9060;
1170.0000;0.0749;-0.9082;
1170.3000;0.0667;-0.9331;
1170.6000;0.0863;-0.8856;
1170.9000;0.0912;-0.8765;
1171.2000;0.0741;-0.9173;
1171.5000;0.0733;-0.9218;
1171.8000;0.0733;-0.9196;
1172.1000;0.0757;-0.9196;
1172.4000;0.0733;-0.9263;
1172.7000;0.0716;-0.9309;
1173.0000;0.0708;-0.9309;
1173.3000;0.0733;-0.9196;
1173.6000;0.0733;-0.9173;
1173.9000;0.0733;-0.9060;
1174.2000;0.0724;-0.9128;
1174.5000;0.0692;-0.9241;
1174.8000;0.0757;-0.9060;
1175.1000;0.0741;-0.9082;
1175.4000;0.0724;-0.9150;
1175.7000;0.0724;-0.9037;
1176.0000;0.0741;-0.9037;
1176.3000;0.0757;-0.9082;
1176.6000;0.0700;-0.9173;
1176.9000;0.0724;-0.9060;
1177.2000;0.0765;-0.8946;
1177.5000;0.0733;-0.8992;
1177.8000;0.0741;-0.8924;
1178.1000;0.0765;-0.8901;
1178.4000;0.0716;-0.9037;
1178.7000;0.0749;-0.8969;
1179.0000;0.0733;-0.9014;
1179.3000;0.0676;-0.9150;
1179.6000;0.0749;-0.8992;
1179.9000;0.0765;-0.9014;
1180.2000;0.0814;-0.8946;
1180.5000;0.0733;-0.9128;
1180.8000;0.0741;-0.9105;
1181.1000;0.0757;-0.9060;
1181.4000;0.0733;-0.9060;
1181.7000;0.0741;-0.9082;
1182.0000;0.0814;-0.8924;
1182.3000;0.0773;-0.9014;
1182.6000;0.0741;-0.9105;
1182.9000;0.0830;-0.8810;
1183.2000;0.0708;-0.9218;
1183.5000;0.0749;-0.9128;
1183.8000;0.0724;-0.9128;
1184.1000;0.0716;-0.9060;
1184.4000;0.0741;-0.8992;
1184.7000;0.0724;-0.9060;
1185.0000;0.0757;-0.8969;
1185.3000;0.0692;-0.9150;
1185.6000;0.0724;-0.9014;
1185.9000;0.0724;-0.9037;
1186.2000;0.0733;-0.8992;
1186.5000;0.0724;-0.8969;
1186.8000;0.0741;-0.8992;
1187.1000;0.0733;-0.9105;
1187.4000;0.0798;-0.8992;
1187.7000;0.0708;-0.9128;
1188.0000;0.0749;-0.9173;
1188.3000;0.0708;-0.9241;
1188.6000;0.0749;-0.9060;
1188.9000;0.0741;-0.9014;
1189.2000;0.0749;-0.9037;
1189.5000;0.0700;-0.9128;
1189.8000;0.0741;-0.9060;
1190.1000;0.0708;-0.9105;
1190.4000;0.0733;-0.9128;
1190.7000;0.0741;-0.9173;
1191.0000;0.0773;-0.9060;
1191.3000;0.0741;-0.9082;
1191.6000;0.0757;-0.9037;
1191.9000;0.0651;-0.9286;
1192.2000;0.0733;-0.9105;
1192.5000;0.0724;-0.9128;
1192.8000;0.0749;-0.8924;
1193.1000;0.0724;-0.9060;
1193.4000;0.0741;-0.9037;
1193.7000;0.0741;-0.9105;
1194.0000;0.0741;-0.9150;
1194.3000;0.0716;-0.9105;
1194.6000;0.0724;-0.9060;
1194.9000;0.0814;-0.8833;
1195.2000;0.0733;-0.9082;
1195.5000;0.0733;-0.9037;
1195.8000;0.0733;-0.9037;
1196.1000;0.0741;-0.8969;
1196.4000;0.0651;-0.9331;
1196.7000;0.0757;-0.9060;
1197.0000;0.0716;-0.9128;
1197.3000;0.0749;-0.9105;
1197.6000;0.0741;-0.9128;
1197.9000;0.0724;-0.9263;
1198.2000;0.0749;-0.9309;
1198.5000;0.0749;-0.9309;
1198.8000;0.0741;-0.9331;
1199.1000;0.0765;-0.9263;
1199.4000;0.0716;-0.9377;
1199.7000;0.0806;-0.9082;
1200.0000;0.0757;-0.9196;
1200.3000;0.0765;-0.9241;
1200.6000;0.0749;-0.9309;
1200.9000;0.0724;-0.9331;
1201.2000;0.0700;-0.9377;
1201.5000;0.0716;-0.9399;
1201.8000;0.0724;-0.9399;
1202.1000;0.0692;-0.9467;
1202.4000;0.0733;-0.9331;
1202.7000;0.0724;-0.9422;
1203.0000;0.0798;-0.9263;
1203.3000;0.0781;-0.9263;
1203.6000;0.0724;-0.9354;
1203.9000;0.0765;-0.9263;
1204.2000;0.0838;-0.9060;
1204.5000;0.0733;-0.9286;
1204.8000;0.0627;-0.9490;
1205.1000;0.0627;-0.9490;
1205.4000;0.0716;-0.9218;
1205.7000;0.0724;-0.9263;
1206.0000;0.0651;-0.9422;
1206.3000;0.0716;-0.9309;
1206.6000;0.0724;-0.9218;
1206.9000;0.0716;-0.9218;
1207.2000;0.0757;-0.9128;
1207.5000;0.0733;-0.9196;
1207.8000;0.0757;-0.9150;
1208.1000;0.0724;-0.9241;
1208.4000;0.0749;-0.9173;
1208.7000;0.0741;-0.9150;
1209.0000;0.0724;-0.9150;
1209.3000;0.0733;-0.9218;
1209.6000;0.0741;-0.9286;
1209.9000;0.0700;-0.9399;
1210.2000;0.0741;-0.9422;
1210.5000;0.0765;-0.9399;
1210.8000;0.0741;-0.9309;
1211.1000;0.0765;-0.9263;
1211.4000;0.0741;-0.9218;
1211.7000;0.0749;-0.9196;
1212.0000;0.0708;-0.9286;
1212.3000;0.0594;-0.9603;
1212.6000;0.0781;-0.9218;
1212.9000;0.0781;-0.9173;
1213.2000;0.0749;-0.9309;
1213.5000;0.0806;-0.9105;
1213.8000;0.0741;-0.9286;
1214.1000;0.0741;-0.9309;
1214.4000;0.0700;-0.9399;
1214.7000;0.0724;-0.9399;
1215.0000;0.0733;-0.9377;
1215.3000;0.0749;-0.9309;
1215.6000;0.0733;-0.9309;
1215.9000;0.0667;-0.9490;
1216.2000;0.0724;-0.9377;
1216.5000;0.0724;-0.9309;
1216.8000;0.0676;-0.9445;
1217.1000;0.0708;-0.9354;
1217.4000;0.0765;-0.9060;
1217.7000;0.0757;-0.9082;
1218.0000;0.0765;-0.9060;
1218.3000;0.0733;-0.9241;
1218.6000;0.0790;-0.9150;
1218.9000;0.0765;-0.9196;
1219.2000;0.0724;-0.9263;
1219.5000;0.0757;-0.9196;
1219.8000;0.0724;-0.9263;
1220.1000;0.0724;-0.9263;
1220.4000;0.0749;-0.9263;
1220.7000;0.0700;-0.9399;
1221.0000;0.0692;-0.9422;
1221.3000;0.0692;-0.9331;
1221.6000;0.0733;-0.9196;
1221.9000;0.0749;-0.9128;
1222.2000;0.0716;-0.9196;
1222.5000;0.0716;-0.9196;
1222.8000;0.0749;-0.9150;
1223.1000;0.0757;-0.9128;
1223.4000;0.0741;-0.9060;
1223.7000;0.0724;-0.9060;
1224.0000;0.0765;-0.8969;
1224.3000;0.0741;-0.9014;
1224.6000;0.0757;-0.9037;
1224.9000;0.0716;-0.9128;
1225.2000;0.0692;-0.9331;
1225.5000;0.0749;-0.9196;
1225.8000;0.0781;-0.9037;
1226.1000;0.0700;-0.9196;
1226.4000;0.0741;-0.9128;
1226.7000;0.0741;-0.9128;
1227.0000;0.0684;-0.9241;
1227.3000;0.0733;-0.9060;
1227.6000;0.0716;-0.9128;
1227.9000;0.0676;-0.9286;
1228.2000;0.0912;-0.8720;
1228.5000;0.0741;-0.9105;
1228.8000;0.0741;-0.9173;
1229.1000;0.0741;-0.9196;
1229.4000;0.0741;-0.9263;
1229.7000;0.0733;-0.9218;
1230.0000;0.0733;-0.9196;
1230.3000;0.0741;-0.9218;
1230.6000;0.0749;-0.9128;
1230.9000;0.0733;-0.9128;
1231.2000;0.0716;-0.9128;
1231.5000;0.0716;-0.9173;
1231.8000;0.0749;-0.9014;
1232.1000;0.0773;-0.9037;
1232.4000;0.0724;-0.9105;
1232.7000;0.0741;-0.9173;
1233.0000;0.0724;-0.9173;
1233.3000;0.0741;-0.9128;
1233.6000;0.0724;-0.9128;
1233.9000;0.0749;-0.9037;
1234.2000;0.0741;-0.9060;
1234.5000;0.0708;-0.9105;
1234.8000;0.0733;-0.9037;
1235.1000;0.0733;-0.9037;
1235.4000;0.0724;-0.9105;
1235.7000;0.0773;-0.8992;
1236.0000;0.0741;-0.8992;
1236.3000;0.0716;-0.9082;
1236.6000;0.0749;-0.9082;
1236.9000;0.0749;-0.9037;
1237.2000;0.0724;-0.9218;
1237.5000;0.0765;-0.9150;
1237.8000;0.0643;-0.9286;
1238.1000;0.0733;-0.9082;
1238.4000;0.0733;-0.9128;
1238.7000;0.0733;-0.9128;
1239.0000;0.0716;-0.9150;
1239.3000;0.0692;-0.9150;
1239.6000;0.0757;-0.9060;
1239.9000;0.0716;-0.9082;
1240.2000;0.0741;-0.9150;
1240.5000;0.0749;-0.9060;
1240.8000;0.0733;-0.9150;
1241.1000;0.0716;-0.9173;
1241.4000;0.0741;-0.9173;
1241.7000;0.0724;-0.9218;
1242.0000;0.0733;-0.9196;
1242.3000;0.0749;-0.9218;
1242.6000;0.0716;-0.9309;
1242.9000;0.0724;-0.9309;
1243.2000;0.0741;-0.9286;
1243.5000;0.0765;-0.9286;
1243.8000;0.0724;-0.9399;
1244.1000;0.0733;-0.9490;
1244.4000;0.0741;-0.9535;
1244.7000;0.0757;-0.9467;
1245.0000;0.0749;-0.9354;
1245.3000;0.0724;-0.9331;
1245.6000;0.0733;-0.9331;
1245.9000;0.0724;-0.9331;
1246.2000;0.0741;-0.9309;
1246.5000;0.0708;-0.9399;
1246.8000;0.0741;-0.9309;
1247.1000;0.0733;-0.9286;
1247.4000;0.0724;-0.9286;
1247.7000;0.0757;-0.9173;
1248.0000;0.0741;-0.9218;
1248.3000;0.0676;-0.9490;
1248.6000;0.0757;-0.9331;
1248.9000;0.0708;-0.9467;
1249.2000;0.0749;-0.9490;
1249.5000;0.0724;-0.9535;
1249.8000;0.0741;-0.9513;
1250.1000;0.0733;-0.9490;
1250.4000;0.0733;-0.9422;
1250.7000;0.0724;-0.9445;
1251.0000;0.0757;-0.9445;
1251.3000;0.0749;-0.9490;
1251.6000;0.0749;-0.9513;
1251.9000;0.0741;-0.9467;
1252.2000;0.0773;-0.9422;
1252.5000;0.0749;-0.9399;
1252.8000;0.0733;-0.9331;
1253.1000;0.0749;-0.9331;
1253.4000;0.0741;-0.9263;
1253.7000;0.0765;-0.9241;
1254.0000;0.0716;-0.9331;
1254.3000;0.0676;-0.9467;
1254.6000;0.0733;-0.9241;
1254.9000;0.0716;-0.9309;
1255.2000;0.0716;-0.9286;
1255.5000;0.0716;-0.9309;
1255.8000;0.0724;-0.9263;
1256.1000;0.0741;-0.9150;
1256.4000;0.0684;-0.9399;
1256.7000;0.0733;-0.9263;
1257.0000;0.0749;-0.9309;
1257.3000;0.0757;-0.9309;
1257.6000;0.0708;-0.9422;
1257.9000;0.0757;-0.9241;
1258.2000;0.0716;-0.9331;
1258.5000;0.0733;-0.9263;
1258.8000;0.0724;-0.9241;
1259.1000;0.0773;-0.9173;
1259.4000;0.0724;-0.9196;
1259.7000;0.0733;-0.9128;
1260.0000;0.0749;-0.9128;
1260.3000;0.0716;-0.9263;
1260.6000;0.0724;-0.9173;
1260.9000;0.0708;-0.9263;
1261.2000;0.0708;-0.9150;
1261.5000;0.0749;-0.9014;
1261.8000;0.0733;-0.9128;
1262.1000;0.0724;-0.9218;
1262.4000;0.0741;-0.9241;
1262.7000;0.0765;-0.9173;
1263.0000;0.0676;-0.9377;
1263.3000;0.0757;-0.9173;
1263.6000;0.0757;-0.9128;
1263.9000;0.0667;-0.9354;
1264.2000;0.0724;-0.9196;
1264.5000;0.0733;-0.9286;
1264.8000;0.0765;-0.9218;
1265.1000;0.0716;-0.9331;
1265.4000;0.0716;-0.9354;
1265.7000;0.0724;-0.9422;
1266.0000;0.0741;-0.9399;
1266.3000;0.0757;-0.9377;
1266.6000;0.0733;-0.9354;
1266.9000;0.0667;-0.9558;
1267.2000;0.0733;-0.9377;
1267.5000;0.0749;-0.9377;
1267.8000;0.0757;-0.9354;
1268.1000;0.0724;-0.9309;
1268.4000;0.0749;-0.9377;
1268.7000;0.0733;-0.9422;
1269.0000;0.0724;-0.9377;
1269.3000;0.0749;-0.9354;
1269.6000;0.0733;-0.9422;
1269.9000;0.0716;-0.9377;
1270.2000;0.0741;-0.9331;
1270.5000;0.0830;-0.9105;
1270.8000;0.0741;-0.9241;
1271.1000;0.0724;-0.9241;
1271.4000;0.0741;-0.9218;
1271.7000;0.0733;-0.9196;
1272.0000;0.0741;-0.9173;
1272.3000;0.0749;-0.9060;
1272.6000;0.0733;-0.9082;
1272.9000;0.0733;-0.9105;
1273.2000;0.0733;-0.9060;
1273.5000;0.0627;-0.9399;
1273.8000;0.0733;-0.9196;
1274.1000;0.0733;-0.9173;
1274.4000;0.0733;-0.9173;
1274.7000;0.0733;-0.9105;
1275.0000;0.0724;-0.9105;
1275.3000;0.0733;-0.9060;
1275.6000;0.0741;-0.9105;
1275.9000;0.0765;-0.8969;
1276.2000;0.0741;-0.9105;
1276.5000;0.0749;-0.9218;
1276.8000;0.0716;-0.9286;
1277.1000;0.0708;-0.9354;
1277.4000;0.0822;-0.9060;
1277.7000;0.0749;-0.9218;
1278.0000;0.0733;-0.9196;
1278.3000;0.0757;-0.9037;
1278.6000;0.0627;-0.9263;
1278.9000;0.0773;-0.8901;
1279.2000;0.0716;-0.9014;
1279.5000;0.0724;-0.9037;
1279.8000;0.0741;-0.8969;
1280.1000;0.0765;-0.8946;
1280.4000;0.0684;-0.9082;
1280.7000;0.0741;-0.8992;
1281.0000;0.0733;-0.8992;
1281.3000;0.0757;-0.8901;
1281.6000;0.0733;-0.8946;
1281.9000;0.0790;-0.8878;
1282.2000;0.0724;-0.9037;
1282.5000;0.0773;-0.9014;
1282.8000;0.0757;-0.9060;
1283.1000;0.0741;-0.9105;
1283.4000;0.0724;-0.9082;
1283.7000;0.0741;-0.9060;
1284.0000;0.0757;-0.9060;
1284.3000;0.0741;-0.9060;
1284.6000;0.0733;-0.9082;
1284.9000;0.0716;-0.9173;
1285.2000;0.0741;-0.9060;
1285.5000;0.0741;-0.9014;
1285.8000;0.0847;-0.8765;
1286.1000;0.0741;-0.8969;
1286.4000;0.0643;-0.9331;
1286.7000;0.0741;-0.9014;
1287.0000;0.0667;-0.9196;
1287.3000;0.0741;-0.8969;
1287.6000;0.0708;-0.9060;
1287.9000;0.0741;-0.8969;
1288.2000;0.0684;-0.9241;
1288.5000;0.0684;-0.9263;
1288.8000;0.0741;-0.9196;
1289.1000;0.0667;-0.9399;
1289.4000;0.0757;-0.9105;
1289.7000;0.0724;-0.9196;
1290.0000;0.0733;-0.9173;
1290.3000;0.0724;-0.9196;
1290.6000;0.0749;-0.9105;
1290.9000;0.0676;-0.9196;
1291.2000;0.0757;-0.9014;
1291.5000;0.0733;-0.9037;
1291.8000;0.0733;-0.9082;
1292.1000;0.0741;-0.9105;
1292.4000;0.0724;-0.9196;
1292.7000;0.0724;-0.9196;
1293.0000;0.0733;-0.9218;
1293.3000;0.0757;-0.9150;
1293.6000;0.0724;-0.9060;
1293.9000;0.0749;-0.8992;
1294.2000;0.0741;-0.9105;
1294.5000;0.0733;-0.9105;
1294.8000;0.0724;-0.9105;
1295.1000;0.0733;-0.9173;
1295.4000;0.0749;-0.9105;
1295.7000;0.0838;-0.8765;
1296.0000;0.0741;-0.9037;
1296.3000;0.0895;-0.8607;
1296.6000;0.0708;-0.9037;
1296.9000;0.0724;-0.9037;
1297.2000;0.0716;-0.9060;
1297.5000;0.0757;-0.8946;
1297.8000;0.0724;-0.9060;
1298.1000;0.0741;-0.9128;
1298.4000;0.0741;-0.9128;
1298.7000;0.0724;-0.9150;
1299.0000;0.0773;-0.8992;
1299.3000;0.0741;-0.9060;
1299.6000;0.0716;-0.8969;
1299.9000;0.0830;-0.8675;
1300.2000;0.0708;-0.9014;
1300.5000;0.0733;-0.9037;
1300.8000;0.0741;-0.9014;
1301.1000;0.0708;-0.9128;
1301.4000;0.0806;-0.8901;
1301.7000;0.0676;-0.9241;
1302.0000;0.0741;-0.9060;
1302.3000;0.0741;-0.9082;
1302.6000;0.0741;-0.9105;
1302.9000;0.0716;-0.9082;
1303.2000;0.0749;-0.8969;
1303.5000;0.0700;-0.9150;
1303.8000;0.0741;-0.9082;
1304.1000;0.0741;-0.9037;
1304.4000;0.0741;-0.9060;
1304.7000;0.0708;-0.9082;
1305.0000;0.0724;-0.9060;
1305.3000;0.0830;-0.8833;
1305.6000;0.0716;-0.9196;
1305.9000;0.0741;-0.9082;
1306.2000;0.0733;-0.9014;
1306.5000;0.0716;-0.9037;
1306.8000;0.0716;-0.9060;
1307.1000;0.0733;-0.9014;
1307.4000;0.0716;-0.9037;
1307.7000;0.0741;-0.8969;
1308.0000;0.0733;-0.9014;
1308.3000;0.0765;-0.8992;
1308.6000;0.0741;-0.9150;
1308.9000;0.0757;-0.9173;
1309.2000;0.0741;-0.9263;
1309.5000;0.0724;-0.9286;
1309.8000;0.0733;-0.9331;
1310.1000;0.0733;-0.9286;
1310.4000;0.0716;-0.9377;
1310.7000;0.0749;-0.9286;
1311.0000;0.0692;-0.9399;
1311.3000;0.0741;-0.9331;
1311.6000;0.0724;-0.9309;
1311.9000;0.0749;-0.9218;
1312.2000;0.0749;-0.9196;
1312.5000;0.0716;-0.9173;
1312.8000;0.0733;-0.9150;
1313.1000;0.0749;-0.9060;
1313.4000;0.0741;-0.9105;
1313.7000;0.0741;-0.9128;
1314.0000;0.0814;-0.8946;
1314.3000;0.0692;-0.9309;
1314.6000;0.0757;-0.9060;
1314.9000;0.0724;-0.9309;
1315.2000;0.0733;-0.9354;
1315.5000;0.0716;-0.9422;
1315.8000;0.0733;-0.9377;
1316.1000;0.0741;-0.9377;
1316.4000;0.0757;-0.9354;
1316.7000;0.0749;-0.9354;
1317.0000;0.0749;-0.9377;
1317.3000;0.0757;-0.9377;
1317.6000;0.0733;-0.9354;
1317.9000;0.0724;-0.9354;
1318.2000;0.0724;-0.9286;
1318.5000;0.0741;-0.9241;
1318.8000;0.0716;-0.9286;
1319.1000;0.0749;-0.9218;
1319.4000;0.0757;-0.9150;
1319.7000;0.0684;-0.9399;
1320.0000;0.0724;-0.9331;
1320.3000;0.0716;-0.9354;
1320.6000;0.0724;-0.9286;
1320.9000;0.0830;-0.8969;
1321.2000;0.0822;-0.8878;
1321.5000;0.0692;-0.9128;
1321.8000;0.0700;-0.9196;
1322.1000;0.0733;-0.9218;
1322.4000;0.0741;-0.9150;
1322.7000;0.0676;-0.9331;
1323.0000;0.0749;-0.9150;
1323.3000;0.0716;-0.9218;
1323.6000;0.0749;-0.9082;
1323.9000;0.0716;-0.9150;
1324.2000;0.0749;-0.9082;
1324.5000;0.0749;-0.9082;
1324.8000;0.0757;-0.9037;
1325.1000;0.0765;-0.9105;
1325.4000;0.0765;-0.9105;
1325.7000;0.0724;-0.9173;
1326.0000;0.0724;-0.9218;
1326.3000;0.0749;-0.9196;
1326.6000;0.0733;-0.9218;
1326.9000;0.0781;-0.9014;
1327.2000;0.0765;-0.9060;
1327.5000;0.0749;-0.9173;
1327.8000;0.0741;-0.9173;
1328.1000;0.0765;-0.9014;
1328.4000;0.0619;-0.9377;
1328.7000;0.0724;-0.9105;
1329.0000;0.0757;-0.9060;
1329.3000;0.0684;-0.9263;
1329.6000;0.0806;-0.9037;
1329.9000;0.0749;-0.9150;
1330.2000;0.0741;-0.9196;
1330.5000;0.0724;-0.9241;
1330.8000;0.0724;-0.9218;
1331.1000;0.0757;-0.9105;
1331.4000;0.0733;-0.9218;
1331.7000;0.0724;-0.9263;
1332.0000;0.0733;-0.9263;
1332.3000;0.0773;-0.9128;
1332.6000;0.0741;-0.9173;
1332.9000;0.0700;-0.9377;
1333.2000;0.0684;-0.9377;
1333.5000;0.0741;-0.9331;
1333.8000;0.0814;-0.9128;
1334.1000;0.0749;-0.9354;
1334.4000;0.0749;-0.9263;
1334.7000;0.0724;-0.9241;
1335.0000;0.0798;-0.9150;
1335.3000;0.0692;-0.9445;
1335.6000;0.0733;-0.9377;
1335.9000;0.0733;-0.9286;
1336.2000;0.0741;-0.9331;
1336.5000;0.0765;-0.9218;
1336.8000;0.0724;-0.9354;
1337.1000;0.0659;-0.9513;
1337.4000;0.0733;-0.9309;
1337.7000;0.0741;-0.9263;
1338.0000;0.0765;-0.9060;
1338.3000;0.0708;-0.9196;
1338.6000;0.0757;-0.9060;
1338.9000;0.0724;-0.9128;
1339.2000;0.0741;-0.9150;
1339.5000;0.0765;-0.9241;
1339.8000;0.0749;-0.9241;
1340.1000;0.0749;-0.9173;
1340.4000;0.0716;-0.9309;
1340.7000;0.0716;-0.9286;
1341.0000;0.0749;-0.9196;
1341.3000;0.0716;-0.9241;
1341.6000;0.0716;-0.9218;
1341.9000;0.0724;-0.9196;
1342.2000;0.0741;-0.9150;
1342.5000;0.0781;-0.9128;
1342.8000;0.0773;-0.9263;
1343.1000;0.0733;-0.9377;
1343.4000;0.0741;-0.9331;
1343.7000;0.0741;-0.9286;
1344.0000;0.0757;-0.9173;
1344.3000;0.0724;-0.9309;
1344.6000;0.0733;-0.9286;
1344.9000;0.0790;-0.9218;
1345.2000;0.0847;-0.9082;
1345.5000;0.0733;-0.9377;
1345.8000;0.0708;-0.9445;
1346.1000;0.0741;-0.9399;
1346.4000;0.0749;-0.9354;
1346.7000;0.0724;-0.9445;
1347.0000;0.0733;-0.9399;
1347.3000;0.0733;-0.9399;
1347.6000;0.0749;-0.9309;
1347.9000;0.0741;-0.9309;
1348.2000;0.0741;-0.9263;
1348.5000;0.0716;-0.9309;
1348.8000;0.0724;-0.9263;
1349.1000;0.0757;-0.9331;
1349.4000;0.0790;-0.9150;
1349.7000;0.0708;-0.9218;
1350.0000;0.0733;-0.9060;
1350.3000;0.0733;-0.9082;
1350.6000;0.0724;-0.9082;
1350.9000;0.0757;-0.9082;
1351.2000;0.0643;-0.9422;
1351.5000;0.0741;-0.9218;
1351.8000;0.0741;-0.9218;
1352.1000;0.0749;-0.9263;
1352.4000;0.0749;-0.9173;
1352.7000;0.0781;-0.9037;
1353.0000;0.0741;-0.9128;
1353.3000;0.0724;-0.9150;
1353.6000;0.0749;-0.9014;
1353.9000;0.0806;-0.8878;
1354.2000;0.0741;-0.9082;
1354.5000;0.0716;-0.9173;
1354.8000;0.0741;-0.9196;
1355.1000;0.0733;-0.9150;
1355.4000;0.0716;-0.9218;
1355.7000;0.0700;-0.9173;
1356.0000;0.0724;-0.9082;
1356.3000;0.0741;-0.9105;
1356.6000;0.0757;-0.9082;
1356.9000;0.0635;-0.9422;
1357.2000;0.0741;-0.9082;
1357.5000;0.0733;-0.9105;
1357.8000;0.0741;-0.9082;
1358.1000;0.0733;-0.9105;
1358.4000;0.0708;-0.9218;
1358.7000;0.0700;-0.9331;
1359.0000;0.0871;-0.8969;
1359.3000;0.0724;-0.9241;
1359.6000;0.0733;-0.9196;
1359.9000;0.0611;-0.9513;
1360.2000;0.0676;-0.9354;
1360.5000;0.0724;-0.9286;
1360.8000;0.0733;-0.9173;
1361.1000;0.0611;-0.9467;
1361.4000;0.0708;-0.9173;
1361.7000;0.0749;-0.9128;
1362.0000;0.0724;-0.9128;
1362.3000;0.0741;-0.8992;
1362.6000;0.0757;-0.9014;
1362.9000;0.0741;-0.9060;
1363.2000;0.0700;-0.9105;
1363.5000;0.0749;-0.9037;
1363.8000;0.0741;-0.9105;
1364.1000;0.0757;-0.9060;
1364.4000;0.0765;-0.9014;
1364.7000;0.0741;-0.9105;
1365.0000;0.0733;-0.9150;
1365.3000;0.0733;-0.9196;
1365.6000;0.0733;-0.9241;
1365.9000;0.0716;-0.9309;
1366.2000;0.0733;-0.9286;
1366.5000;0.0765;-0.9218;
1366.8000;0.0724;-0.9286;
1367.1000;0.0708;-0.9354;
1367.4000;0.0733;-0.9354;
1367.7000;0.0757;-0.9331;
1368.0000;0.0741;-0.9286;
1368.3000;0.0765;-0.9263;
1368.6000;0.0733;-0.9354;
1368.9000;0.0733;-0.9354;
1369.2000;0.0733;-0.9377;
1369.5000;0.0733;-0.9399;
1369.8000;0.0749;-0.9377;
1370.1000;0.0733;-0.9513;
1370.4000;0.0724;-0.9535;
1370.7000;0.0749;-0.9467;
1371.0000;0.0749;-0.9445;
1371.3000;0.0724;-0.9445;
1371.6000;0.0749;-0.9241;
1371.9000;0.0733;-0.9331;
1372.2000;0.0716;-0.9490;
1372.5000;0.0724;-0.9467;
1372.8000;0.0749;-0.9467;
1373.1000;0.0716;-0.9603;
1373.4000;0.0684;-0.9626;
1373.7000;0.0724;-0.9535;
1374.0000;0.0749;-0.9445;
1374.3000;0.0708;-0.9490;
1374.6000;0.0757;-0.9354;
1374.9000;0.0708;-0.9513;
1375.2000;0.0749;-0.9467;
1375.5000;0.0700;-0.9739;
1375.8000;0.0749;-0.9626;
1376.1000;0.0741;-0.9649;
1376.4000;0.0773;-0.9422;
1376.7000;0.0724;-0.9467;
1377.0000;0.0838;-0.9263;
1377.3000;0.0667;-0.9626;
1377.6000;0.0749;-0.9422;
1377.9000;0.0773;-0.9286;
1378.2000;0.0757;-0.9286;
1378.5000;0.0765;-0.9218;
1378.8000;0.0741;-0.9286;
1379.1000;0.0757;-0.9241;
1379.4000;0.0757;-0.9263;
1379.7000;0.0733;-0.9399;
1380.0000;0.0716;-0.9399;
1380.3000;0.0749;-0.9354;
1380.6000;0.0798;-0.9218;
1380.9000;0.0814;-0.9173;
1381.2000;0.0863;-0.9060;
1381.5000;0.0749;-0.9354;
1381.8000;0.0733;-0.9399;
1382.1000;0.0700;-0.9422;
1382.4000;0.0741;-0.9354;
1382.7000;0.0741;-0.9309;
1383.0000;0.0830;-0.9128;
1383.3000;0.0749;-0.9309;
1383.6000;0.0659;-0.9467;
1383.9000;0.0716;-0.9241;
1384.2000;0.0814;-0.8969;
1384.5000;0.0757;-0.9037;
1384.8000;0.0724;-0.9128;
1385.1000;0.0724;-0.9196;
1385.4000;0.0716;-0.9218;
1385.7000;0.0724;-0.9105;
1386.0000;0.0733;-0.9082;
1386.3000;0.0741;-0.9173;
1386.6000;0.0741;-0.9263;
1386.9000;0.0733;-0.9263;
1387.2000;0.0733;-0.9286;
1387.5000;0.0667;-0.9399;
1387.8000;0.0757;-0.9150;
1388.1000;0.0765;-0.9082;
1388.4000;0.0684;-0.9331;
1388.7000;0.0700;-0.9218;
1389.0000;0.0749;-0.9060;
1389.3000;0.0724;-0.9060;
1389.6000;0.0716;-0.9105;
1389.9000;0.0733;-0.9037;
1390.2000;0.0733;-0.9060;
1390.5000;0.0830;-0.8856;
1390.8000;0.0773;-0.9037;
1391.1000;0.0724;-0.9218;
1391.4000;0.0814;-0.8992;
1391.7000;0.0806;-0.9037;
1392.0000;0.0724;-0.9263;
1392.3000;0.0757;-0.9241;
1392.6000;0.0749;-0.9241;
1392.9000;0.0749;-0.9128;
1393.2000;0.0724;-0.9196;
1393.5000;0.0741;-0.9196;
1393.8000;0.0733;-0.9150;
1394.1000;0.0757;-0.9150;
1394.4000;0.0749;-0.9150;
1394.7000;0.0741;-0.9196;
1395.0000;0.0724;-0.9241;
1395.3000;0.0733;-0.9128;
1395.6000;0.0733;-0.9082;
1395.9000;0.0741;-0.9082;
1396.2000;0.0676;-0.9218;
1396.5000;0.0684;-0.9241;
1396.8000;0.0733;-0.9128;
1397.1000;0.0757;-0.9105;
1397.4000;0.0757;-0.9037;
1397.7000;0.0716;-0.9128;
1398.0000;0.0822;-0.8924;
1398.3000;0.0749;-0.9150;
1398.6000;0.0724;-0.9150;
1398.9000;0.0749;-0.9150;
1399.2000;0.0773;-0.9014;
1399.5000;0.0773;-0.9060;
1399.8000;0.0741;-0.9128;
