time/ms;Fluo/V;P700 deltaI/I x10³;
-199.8000;0.0830;-0.9263;
-199.5000;0.0716;-0.9649;
-199.2000;0.0733;-0.9603;
-198.9000;0.0757;-0.9649;
-198.6000;0.0594;-1.0079;
-198.3000;0.0676;-0.9852;
-198.0000;0.0749;-0.9626;
-197.7000;0.0724;-0.9649;
-197.4000;0.0724;-0.9694;
-197.1000;0.0773;-0.9581;
-196.8000;0.0749;-0.9581;
-196.5000;0.0700;-0.9739;
-196.2000;0.0741;-0.9649;
-195.9000;0.0765;-0.9626;
-195.6000;0.0749;-0.9626;
-195.3000;0.0757;-0.9626;
-195.0000;0.0781;-0.9490;
-194.7000;0.0700;-0.9626;
-194.4000;0.0781;-0.9535;
-194.1000;0.0757;-0.9626;
-193.8000;0.0765;-0.9649;
-193.5000;0.0676;-0.9898;
-193.2000;0.0724;-0.9694;
-192.9000;0.0741;-0.9603;
-192.6000;0.0716;-0.9649;
-192.3000;0.0708;-0.9535;
-192.0000;0.0749;-0.9445;
-191.7000;0.0651;-0.9807;
-191.4000;0.0790;-0.9445;
-191.1000;0.0741;-0.9558;
-190.8000;0.0676;-0.9716;
-190.5000;0.0765;-0.9558;
-190.2000;0.0822;-0.9354;
-189.9000;0.0757;-0.9490;
-189.6000;0.0790;-0.9467;
-189.3000;0.0765;-0.9626;
-189.0000;0.0733;-0.9603;
-188.7000;0.0741;-0.9671;
-188.4000;0.0757;-0.9649;
-188.1000;0.0741;-0.9603;
-187.8000;0.0749;-0.9535;
-187.5000;0.0773;-0.9399;
-187.2000;0.0757;-0.9422;
-186.9000;0.0757;-0.9603;
-186.6000;0.0757;-0.9694;
-186.3000;0.0757;-0.9739;
-186.0000;0.0724;-0.9830;
-185.7000;0.0659;-1.0056;
-185.4000;0.0765;-0.9694;
-185.1000;0.0773;-0.9513;
-184.8000;0.0708;-0.9626;
-184.5000;0.0830;-0.9331;
-184.2000;0.0692;-0.9694;
-183.9000;0.0765;-0.9535;
-183.6000;0.0814;-0.9445;
-183.3000;0.0741;-0.9535;
-183.0000;0.0765;-0.9535;
-182.7000;0.0708;-0.9694;
-182.4000;0.0757;-0.9671;
-182.1000;0.0692;-0.9830;
-181.8000;0.0733;-0.9694;
-181.5000;0.0749;-0.9694;
-181.2000;0.0741;-0.9716;
-180.9000;0.0708;-0.9739;
-180.6000;0.0749;-0.9649;
-180.3000;0.0757;-0.9671;
-180.0000;0.0838;-0.9467;
-179.7000;0.0684;-0.9716;
-179.4000;0.0724;-0.9581;
-179.1000;0.0790;-0.9399;
-178.8000;0.0765;-0.9467;
-178.5000;0.0724;-0.9535;
-178.2000;0.0757;-0.9399;
-177.9000;0.0765;-0.9422;
-177.6000;0.0749;-0.9467;
-177.3000;0.0757;-0.9467;
-177.0000;0.0741;-0.9535;
-176.7000;0.0757;-0.9490;
-176.4000;0.0806;-0.9309;
-176.1000;0.0733;-0.9422;
-175.8000;0.0684;-0.9581;
-175.5000;0.0765;-0.9354;
-175.2000;0.0741;-0.9467;
-174.9000;0.0757;-0.9445;
-174.6000;0.0733;-0.9467;
-174.3000;0.0749;-0.9513;
-174.0000;0.0765;-0.9581;
-173.7000;0.0928;-0.9173;
-173.4000;0.0741;-0.9739;
-173.1000;0.0749;-0.9671;
-172.8000;0.0692;-0.9875;
-172.5000;0.0741;-0.9784;
-172.2000;0.0757;-0.9830;
-171.9000;0.0724;-0.9898;
-171.6000;0.0749;-0.9875;
-171.3000;0.0757;-0.9852;
-171.0000;0.0847;-0.9603;
-170.7000;0.0716;-0.9943;
-170.4000;0.0765;-0.9875;
-170.1000;0.0798;-0.9830;
-169.8000;0.0749;-0.9920;
-169.5000;0.0733;-0.9943;
-169.2000;0.0765;-0.9830;
-168.9000;0.0741;-0.9852;
-168.6000;0.0716;-0.9943;
-168.3000;0.0749;-0.9784;
-168.0000;0.0708;-0.9988;
-167.7000;0.0806;-0.9784;
-167.4000;0.0757;-0.9943;
-167.1000;0.0733;-1.0011;
-166.8000;0.0847;-0.9671;
-166.5000;0.0749;-0.9852;
-166.2000;0.0757;-0.9762;
-165.9000;0.0716;-0.9830;
-165.6000;0.0749;-0.9762;
-165.3000;0.0765;-0.9807;
-165.0000;0.0757;-0.9830;
-164.7000;0.0708;-0.9852;
-164.4000;0.0798;-0.9626;
-164.1000;0.0773;-0.9649;
-163.8000;0.0781;-0.9581;
-163.5000;0.0700;-0.9739;
-163.2000;0.0741;-0.9581;
-162.9000;0.0757;-0.9626;
-162.6000;0.0684;-0.9807;
-162.3000;0.0749;-0.9649;
-162.0000;0.0708;-0.9739;
-161.7000;0.0676;-0.9898;
-161.4000;0.0708;-0.9694;
-161.1000;0.0765;-0.9513;
-160.8000;0.0749;-0.9490;
-160.5000;0.0765;-0.9377;
-160.2000;0.0716;-0.9490;
-159.9000;0.0765;-0.9309;
-159.6000;0.0781;-0.9241;
-159.3000;0.0716;-0.9399;
-159.0000;0.0773;-0.9286;
-158.7000;0.0773;-0.9331;
-158.4000;0.0741;-0.9399;
-158.1000;0.0749;-0.9399;
-157.8000;0.0757;-0.9354;
-157.5000;0.0781;-0.9377;
-157.2000;0.0716;-0.9671;
-156.9000;0.0692;-0.9762;
-156.6000;0.0790;-0.9535;
-156.3000;0.0757;-0.9603;
-156.0000;0.0741;-0.9603;
-155.7000;0.0741;-0.9581;
-155.4000;0.0749;-0.9490;
-155.1000;0.0741;-0.9490;
-154.8000;0.0749;-0.9467;
-154.5000;0.0765;-0.9422;
-154.2000;0.0757;-0.9467;
-153.9000;0.0749;-0.9445;
-153.6000;0.0757;-0.9513;
-153.3000;0.0838;-0.9399;
-153.0000;0.0716;-0.9671;
-152.7000;0.0790;-0.9535;
-152.4000;0.0765;-0.9581;
-152.1000;0.0773;-0.9467;
-151.8000;0.0749;-0.9535;
-151.5000;0.0741;-0.9626;
-151.2000;0.0733;-0.9626;
-150.9000;0.0765;-0.9535;
-150.6000;0.0773;-0.9513;
-150.3000;0.0724;-0.9581;
-150.0000;0.0733;-0.9558;
-149.7000;0.0749;-0.9581;
-149.4000;0.0757;-0.9649;
-149.1000;0.0749;-0.9626;
-148.8000;0.0790;-0.9513;
-148.5000;0.0773;-0.9535;
-148.2000;0.0773;-0.9558;
-147.9000;0.0724;-0.9558;
-147.6000;0.0822;-0.9263;
-147.3000;0.0790;-0.9331;
-147.0000;0.0741;-0.9445;
-146.7000;0.0749;-0.9399;
-146.4000;0.0765;-0.9490;
-146.1000;0.0781;-0.9513;
-145.8000;0.0733;-0.9581;
-145.5000;0.0798;-0.9309;
-145.2000;0.0741;-0.9535;
-144.9000;0.0724;-0.9649;
-144.6000;0.0684;-0.9762;
-144.3000;0.0724;-0.9603;
-144.0000;0.0757;-0.9513;
-143.7000;0.0765;-0.9490;
-143.4000;0.0765;-0.9535;
-143.1000;0.0757;-0.9490;
-142.8000;0.0798;-0.9377;
-142.5000;0.0741;-0.9603;
-142.2000;0.0781;-0.9558;
-141.9000;0.0716;-0.9694;
-141.6000;0.0749;-0.9603;
-141.3000;0.0781;-0.9581;
-141.0000;0.0757;-0.9649;
-140.7000;0.0773;-0.9581;
-140.4000;0.0733;-0.9649;
-140.1000;0.0757;-0.9626;
-139.8000;0.0733;-0.9671;
-139.5000;0.0765;-0.9558;
-139.2000;0.0741;-0.9626;
-138.9000;0.0781;-0.9581;
-138.6000;0.0773;-0.9603;
-138.3000;0.0741;-0.9535;
-138.0000;0.0790;-0.9467;
-137.7000;0.0749;-0.9535;
-137.4000;0.0733;-0.9671;
-137.1000;0.0724;-0.9739;
-136.8000;0.0741;-0.9762;
-136.5000;0.0741;-0.9784;
-136.2000;0.0749;-0.9671;
-135.9000;0.0757;-0.9626;
-135.6000;0.0741;-0.9603;
-135.3000;0.0773;-0.9467;
-135.0000;0.0741;-0.9581;
-134.7000;0.0757;-0.9535;
-134.4000;0.0692;-0.9694;
-134.1000;0.0765;-0.9467;
-133.8000;0.0757;-0.9581;
-133.5000;0.0757;-0.9513;
-133.2000;0.0757;-0.9467;
-132.9000;0.0790;-0.9309;
-132.6000;0.0757;-0.9513;
-132.3000;0.0749;-0.9535;
-132.0000;0.0765;-0.9603;
-131.7000;0.0749;-0.9649;
-131.4000;0.0741;-0.9739;
-131.1000;0.0749;-0.9716;
-130.8000;0.0741;-0.9649;
-130.5000;0.0749;-0.9626;
-130.2000;0.0773;-0.9467;
-129.9000;0.0765;-0.9513;
-129.6000;0.0765;-0.9581;
-129.3000;0.0806;-0.9490;
-129.0000;0.0724;-0.9762;
-128.7000;0.0773;-0.9603;
-128.4000;0.0773;-0.9626;
-128.1000;0.0765;-0.9603;
-127.8000;0.0708;-0.9694;
-127.5000;0.0741;-0.9671;
-127.2000;0.0773;-0.9581;
-126.9000;0.0773;-0.9535;
-126.6000;0.0757;-0.9558;
-126.3000;0.0757;-0.9513;
-126.0000;0.0733;-0.9558;
-125.7000;0.0765;-0.9558;
-125.4000;0.0749;-0.9739;
-125.1000;0.0708;-0.9920;
-124.8000;0.0814;-0.9716;
-124.5000;0.0724;-0.9852;
-124.2000;0.0806;-0.9716;
-123.9000;0.0765;-0.9830;
-123.6000;0.0798;-0.9581;
-123.3000;0.0692;-0.9966;
-123.0000;0.0676;-0.9920;
-122.7000;0.0700;-0.9830;
-122.4000;0.0757;-0.9694;
-122.1000;0.0773;-0.9716;
-121.8000;0.0741;-0.9739;
-121.5000;0.0733;-0.9716;
-121.2000;0.0700;-0.9739;
-120.9000;0.0790;-0.9467;
-120.6000;0.0830;-0.9309;
-120.3000;0.0749;-0.9535;
-120.0000;0.0724;-0.9581;
-119.7000;0.0765;-0.9467;
-119.4000;0.0757;-0.9445;
-119.1000;0.0716;-0.9535;
-118.8000;0.0733;-0.9445;
-118.5000;0.0765;-0.9377;
-118.2000;0.0757;-0.9354;
-117.9000;0.0749;-0.9445;
-117.6000;0.0757;-0.9467;
-117.3000;0.0773;-0.9467;
-117.0000;0.0749;-0.9513;
-116.7000;0.0749;-0.9490;
-116.4000;0.0741;-0.9467;
-116.1000;0.0716;-0.9490;
-115.8000;0.0741;-0.9535;
-115.5000;0.0838;-0.9331;
-115.2000;0.0757;-0.9558;
-114.9000;0.0765;-0.9513;
-114.6000;0.0749;-0.9535;
-114.3000;0.0773;-0.9377;
-114.0000;0.0757;-0.9399;
-113.7000;0.0741;-0.9331;
-113.4000;0.0749;-0.9399;
-113.1000;0.0659;-0.9649;
-112.8000;0.0757;-0.9399;
-112.5000;0.0838;-0.9173;
-112.2000;0.0733;-0.9467;
-111.9000;0.0749;-0.9399;
-111.6000;0.0790;-0.9241;
-111.3000;0.0790;-0.9173;
-111.0000;0.0757;-0.9241;
-110.7000;0.0749;-0.9331;
-110.4000;0.0773;-0.9445;
-110.1000;0.0749;-0.9558;
-109.8000;0.0757;-0.9467;
-109.5000;0.0773;-0.9513;
-109.2000;0.0773;-0.9467;
-108.9000;0.0773;-0.9490;
-108.6000;0.0757;-0.9581;
-108.3000;0.0757;-0.9603;
-108.0000;0.0757;-0.9603;
-107.7000;0.0781;-0.9558;
-107.4000;0.0741;-0.9694;
-107.1000;0.0724;-0.9671;
-106.8000;0.0692;-0.9694;
-106.5000;0.0757;-0.9513;
-106.2000;0.0757;-0.9513;
-105.9000;0.0749;-0.9535;
-105.6000;0.0765;-0.9490;
-105.3000;0.0773;-0.9467;
-105.0000;0.0741;-0.9581;
-104.7000;0.0651;-0.9807;
-104.4000;0.0773;-0.9490;
-104.1000;0.0765;-0.9513;
-103.8000;0.0790;-0.9467;
-103.5000;0.0765;-0.9467;
-103.2000;0.0749;-0.9649;
-102.9000;0.0798;-0.9581;
-102.6000;0.0765;-0.9807;
-102.3000;0.0741;-0.9875;
-102.0000;0.0749;-0.9739;
-101.7000;0.0765;-0.9558;
-101.4000;0.0773;-0.9558;
-101.1000;0.0741;-0.9671;
-100.8000;0.0749;-0.9649;
-100.5000;0.0879;-0.9422;
-100.2000;0.0790;-0.9513;
-99.9000;0.0741;-0.9558;
-99.6000;0.0814;-0.9467;
-99.3000;0.0741;-0.9649;
-99.0000;0.0798;-0.9535;
-98.7000;0.0741;-0.9716;
-98.4000;0.0757;-0.9603;
-98.1000;0.0741;-0.9649;
-97.8000;0.0765;-0.9581;
-97.5000;0.0749;-0.9513;
-97.2000;0.0757;-0.9399;
-96.9000;0.0773;-0.9377;
-96.6000;0.0741;-0.9535;
-96.3000;0.0733;-0.9649;
-96.0000;0.0838;-0.9399;
-95.7000;0.0749;-0.9762;
-95.4000;0.0773;-0.9694;
-95.1000;0.0733;-0.9716;
-94.8000;0.0749;-0.9649;
-94.5000;0.0879;-0.9377;
-94.2000;0.0773;-0.9581;
-93.9000;0.0741;-0.9716;
-93.6000;0.0749;-0.9671;
-93.3000;0.0643;-1.0011;
-93.0000;0.0749;-0.9694;
-92.7000;0.0757;-0.9581;
-92.4000;0.0765;-0.9513;
-92.1000;0.0733;-0.9581;
-91.8000;0.0773;-0.9535;
-91.5000;0.0757;-0.9535;
-91.2000;0.0749;-0.9671;
-90.9000;0.0765;-0.9649;
-90.6000;0.0741;-0.9716;
-90.3000;0.0667;-0.9830;
-90.0000;0.0790;-0.9535;
-89.7000;0.0765;-0.9558;
-89.4000;0.0757;-0.9581;
-89.1000;0.0716;-0.9694;
-88.8000;0.0741;-0.9626;
-88.5000;0.0716;-0.9694;
-88.2000;0.0708;-0.9694;
-87.9000;0.0790;-0.9513;
-87.6000;0.0773;-0.9558;
-87.3000;0.0749;-0.9513;
-87.0000;0.0765;-0.9490;
-86.7000;0.0765;-0.9558;
-86.4000;0.0749;-0.9535;
-86.1000;0.0724;-0.9535;
-85.8000;0.0757;-0.9490;
-85.5000;0.0757;-0.9558;
-85.2000;0.0741;-0.9603;
-84.9000;0.0741;-0.9535;
-84.6000;0.0765;-0.9422;
-84.3000;0.0863;-0.9173;
-84.0000;0.0773;-0.9331;
-83.7000;0.0798;-0.9105;
-83.4000;0.0855;-0.9014;
-83.1000;0.0773;-0.9218;
-82.8000;0.0749;-0.9309;
-82.5000;0.0749;-0.9286;
-82.2000;0.0700;-0.9331;
-81.9000;0.0765;-0.9196;
-81.6000;0.0741;-0.9309;
-81.3000;0.0757;-0.9354;
-81.0000;0.0684;-0.9626;
-80.7000;0.0798;-0.9399;
-80.4000;0.0765;-0.9422;
-80.1000;0.0733;-0.9467;
-79.8000;0.0733;-0.9535;
-79.5000;0.0757;-0.9535;
-79.2000;0.0741;-0.9626;
-78.9000;0.0757;-0.9558;
-78.6000;0.0741;-0.9649;
-78.3000;0.0733;-0.9558;
-78.0000;0.0716;-0.9513;
-77.7000;0.0765;-0.9263;
-77.4000;0.0773;-0.9263;
-77.1000;0.0724;-0.9445;
-76.8000;0.0847;-0.9173;
-76.5000;0.0781;-0.9354;
-76.2000;0.0757;-0.9399;
-75.9000;0.0749;-0.9490;
-75.6000;0.0838;-0.9263;
-75.3000;0.0733;-0.9513;
-75.0000;0.0749;-0.9467;
-74.7000;0.0757;-0.9467;
-74.4000;0.0716;-0.9490;
-74.1000;0.0749;-0.9445;
-73.8000;0.0749;-0.9445;
-73.5000;0.0676;-0.9671;
-73.2000;0.0765;-0.9513;
-72.9000;0.0716;-0.9671;
-72.6000;0.0749;-0.9581;
-72.3000;0.0757;-0.9535;
-72.0000;0.0716;-0.9558;
-71.7000;0.0724;-0.9490;
-71.4000;0.0733;-0.9535;
-71.1000;0.0765;-0.9490;
-70.8000;0.0741;-0.9535;
-70.5000;0.0733;-0.9626;
-70.2000;0.0757;-0.9649;
-69.9000;0.0749;-0.9603;
-69.6000;0.0765;-0.9603;
-69.3000;0.0757;-0.9535;
-69.0000;0.0765;-0.9649;
-68.7000;0.0716;-0.9807;
-68.4000;0.0757;-0.9649;
-68.1000;0.0716;-0.9784;
-67.8000;0.0765;-0.9671;
-67.5000;0.0757;-0.9626;
-67.2000;0.0733;-0.9671;
-66.9000;0.0700;-0.9716;
-66.6000;0.0749;-0.9581;
-66.3000;0.0708;-0.9671;
-66.0000;0.0716;-0.9649;
-65.7000;0.0838;-0.9331;
-65.4000;0.0749;-0.9535;
-65.1000;0.0684;-0.9716;
-64.8000;0.0757;-0.9558;
-64.5000;0.0781;-0.9467;
-64.2000;0.0627;-0.9852;
-63.9000;0.0741;-0.9626;
-63.6000;0.0716;-0.9603;
-63.3000;0.0733;-0.9581;
-63.0000;0.0757;-0.9513;
-62.7000;0.0749;-0.9603;
-62.4000;0.0847;-0.9331;
-62.1000;0.0749;-0.9535;
-61.8000;0.0773;-0.9513;
-61.5000;0.0708;-0.9603;
-61.2000;0.0757;-0.9649;
-60.9000;0.0757;-0.9558;
-60.6000;0.0741;-0.9535;
-60.3000;0.0757;-0.9445;
-60.0000;0.0757;-0.9490;
-59.7000;0.0757;-0.9513;
-59.4000;0.0765;-0.9581;
-59.1000;0.0749;-0.9581;
-58.8000;0.0757;-0.9694;
-58.5000;0.0741;-0.9716;
-58.2000;0.0773;-0.9716;
-57.9000;0.0741;-0.9784;
-57.6000;0.0749;-0.9716;
-57.3000;0.0749;-0.9739;
-57.0000;0.0749;-0.9762;
-56.7000;0.0749;-0.9762;
-56.4000;0.0749;-0.9762;
-56.1000;0.0733;-0.9762;
-55.8000;0.0749;-0.9694;
-55.5000;0.0733;-0.9852;
-55.2000;0.0765;-0.9807;
-54.9000;0.0741;-0.9875;
-54.6000;0.0765;-0.9807;
-54.3000;0.0741;-0.9852;
-54.0000;0.0741;-0.9830;
-53.7000;0.0863;-0.9558;
-53.4000;0.0790;-0.9694;
-53.1000;0.0830;-0.9490;
-52.8000;0.0733;-0.9671;
-52.5000;0.0806;-0.9513;
-52.2000;0.0757;-0.9649;
-51.9000;0.0863;-0.9490;
-51.6000;0.0611;-1.0192;
-51.3000;0.0724;-0.9898;
-51.0000;0.0863;-0.9467;
-50.7000;0.0692;-0.9875;
-50.4000;0.0733;-0.9807;
-50.1000;0.0741;-0.9807;
-49.8000;0.0757;-0.9807;
-49.5000;0.0781;-0.9694;
-49.2000;0.0741;-0.9762;
-48.9000;0.0749;-0.9739;
-48.6000;0.0741;-0.9762;
-48.3000;0.0765;-0.9694;
-48.0000;0.0757;-0.9784;
-47.7000;0.0741;-0.9898;
-47.4000;0.0741;-0.9898;
-47.1000;0.0741;-0.9920;
-46.8000;0.0733;-1.0034;
-46.5000;0.0733;-1.0101;
-46.2000;0.0733;-1.0124;
-45.9000;0.0806;-0.9920;
-45.6000;0.0757;-1.0124;
-45.3000;0.0716;-1.0169;
-45.0000;0.0749;-1.0101;
-44.7000;0.0741;-1.0056;
-44.4000;0.0757;-1.0011;
-44.1000;0.0773;-0.9943;
-43.8000;0.0741;-1.0056;
-43.5000;0.0773;-0.9898;
-43.2000;0.0773;-0.9852;
-42.9000;0.0619;-1.0237;
-42.6000;0.0765;-0.9943;
-42.3000;0.0684;-1.0101;
-42.0000;0.0733;-0.9966;
-41.7000;0.0757;-0.9852;
-41.4000;0.0733;-0.9943;
-41.1000;0.0700;-1.0011;
-40.8000;0.0692;-1.0056;
-40.5000;0.0733;-0.9943;
-40.2000;0.0757;-0.9875;
-39.9000;0.0806;-0.9739;
-39.6000;0.0733;-0.9898;
-39.3000;0.0692;-0.9988;
-39.0000;0.0749;-0.9762;
-38.7000;0.0733;-0.9739;
-38.4000;0.0757;-0.9626;
-38.1000;0.0733;-0.9830;
-37.8000;0.0798;-0.9739;
-37.5000;0.0757;-0.9807;
-37.2000;0.0741;-0.9784;
-36.9000;0.0724;-0.9852;
-36.6000;0.0692;-0.9920;
-36.3000;0.0757;-0.9762;
-36.0000;0.0741;-0.9852;
-35.7000;0.0733;-0.9898;
-35.4000;0.0733;-1.0011;
-35.1000;0.0749;-0.9988;
-34.8000;0.0765;-0.9988;
-34.5000;0.0765;-1.0011;
-34.2000;0.0749;-0.9943;
-33.9000;0.0773;-0.9830;
-33.6000;0.0749;-0.9830;
-33.3000;0.0733;-0.9920;
-33.0000;0.0749;-0.9920;
-32.7000;0.0708;-0.9943;
-32.4000;0.0757;-0.9852;
-32.1000;0.0724;-0.9898;
-31.8000;0.0790;-0.9762;
-31.5000;0.0765;-0.9830;
-31.2000;0.0659;-1.0034;
-30.9000;0.0716;-0.9830;
-30.6000;0.0765;-0.9671;
-30.3000;0.0741;-0.9807;
-30.0000;0.0781;-0.9716;
-29.7000;0.0733;-0.9852;
-29.4000;0.0724;-1.0011;
-29.1000;0.0741;-0.9943;
-28.8000;0.0781;-0.9852;
-28.5000;0.0602;-1.0283;
-28.2000;0.0716;-1.0011;
-27.9000;0.0684;-1.0056;
-27.6000;0.0733;-0.9966;
-27.3000;0.0741;-0.9920;
-27.0000;0.0765;-0.9966;
-26.7000;0.0814;-0.9784;
-26.4000;0.0667;-1.0215;
-26.1000;0.0741;-1.0079;
-25.8000;0.0733;-1.0011;
-25.5000;0.0773;-0.9852;
-25.2000;0.0733;-0.9898;
-24.9000;0.0708;-0.9920;
-24.6000;0.0724;-0.9920;
-24.3000;0.0781;-0.9807;
-24.0000;0.0765;-0.9807;
-23.7000;0.0757;-0.9784;
-23.4000;0.0733;-0.9875;
-23.1000;0.0749;-0.9807;
-22.8000;0.0724;-0.9898;
-22.5000;0.0741;-0.9807;
-22.2000;0.0757;-0.9694;
-21.9000;0.0757;-0.9784;
-21.6000;0.0757;-0.9716;
-21.3000;0.0659;-1.0056;
-21.0000;0.0741;-0.9875;
-20.7000;0.0684;-1.0011;
-20.4000;0.0773;-0.9784;
-20.1000;0.0749;-0.9807;
-19.8000;0.0749;-0.9875;
-19.5000;0.0749;-0.9852;
-19.2000;0.0765;-0.9807;
-18.9000;0.0790;-0.9694;
-18.6000;0.0765;-0.9784;
-18.3000;0.0700;-0.9898;
-18.0000;0.0847;-0.9649;
-17.7000;0.0806;-0.9762;
-17.4000;0.0765;-0.9875;
-17.1000;0.0741;-0.9898;
-16.8000;0.0765;-0.9739;
-16.5000;0.0757;-0.9762;
-16.2000;0.0749;-0.9694;
-15.9000;0.0822;-0.9558;
-15.6000;0.0741;-0.9784;
-15.3000;0.0659;-0.9943;
-15.0000;0.0765;-0.9716;
-14.7000;0.0708;-0.9920;
-14.4000;0.0684;-1.0011;
-14.1000;0.0790;-0.9784;
-13.8000;0.0741;-0.9875;
-13.5000;0.0586;-1.0169;
-13.2000;0.0716;-0.9807;
-12.9000;0.0749;-0.9716;
-12.6000;0.0757;-0.9694;
-12.3000;0.0684;-0.9898;
-12.0000;0.0765;-0.9852;
-11.7000;0.0790;-0.9784;
-11.4000;0.0773;-0.9920;
-11.1000;0.0757;-0.9988;
-10.8000;0.0741;-1.0011;
-10.5000;0.0741;-0.9988;
-10.2000;0.0765;-0.9830;
-9.9000;0.0749;-0.9852;
-9.6000;0.0765;-0.9966;
-9.3000;0.0741;-0.9966;
-9.0000;0.0765;-0.9784;
-8.7000;0.0790;-0.9716;
-8.4000;0.0790;-0.9649;
-8.1000;0.0749;-0.9671;
-7.8000;0.0790;-0.9581;
-7.5000;0.0757;-0.9671;
-7.2000;0.0724;-0.9716;
-6.9000;0.0749;-0.9671;
-6.6000;0.0724;-0.9807;
-6.3000;0.0781;-0.9649;
-6.0000;0.0749;-0.9716;
-5.7000;0.0741;-0.9830;
-5.4000;0.0757;-0.9784;
-5.1000;0.0733;-0.9784;
-4.8000;0.0749;-0.9762;
-4.5000;0.0733;-0.9830;
-4.2000;0.0765;-0.9762;
-3.9000;0.0847;-0.9490;
-3.6000;0.0733;-0.9762;
-3.3000;0.0749;-0.9762;
-3.0000;0.0781;-0.9716;
-2.7000;0.0741;-0.9762;
-2.4000;0.0741;-0.9762;
-2.1000;0.0749;-0.9671;
-1.8000;0.0733;-0.9784;
-1.5000;0.0765;-0.9694;
-1.2000;0.0741;-0.9739;
-0.9000;0.0724;-0.9762;
-0.6000;0.0741;-0.9626;
-0.3000;0.0733;-0.9649;
0.0000;0.0733;-0.9649;
0.3000;0.0724;-0.9739;
0.6000;0.0773;-0.9581;
0.9000;0.0773;-0.9490;
1.2000;0.0806;-0.9354;
1.5000;0.0830;-0.9218;
1.8000;0.0822;-0.9196;
2.1000;0.0822;-0.9218;
2.4000;0.0838;-0.9150;
2.7000;0.0847;-0.9060;
3.0000;0.0838;-0.9060;
3.3000;0.0806;-0.9082;
3.6000;0.0936;-0.8788;
3.9000;0.0863;-0.8901;
4.2000;0.0830;-0.8969;
4.5000;0.0847;-0.8924;
4.8000;0.0847;-0.8833;
5.1000;0.0863;-0.8675;
5.4000;0.0863;-0.8629;
5.7000;0.0781;-0.8810;
6.0000;0.0863;-0.8516;
6.3000;0.0838;-0.8584;
6.6000;0.0855;-0.8471;
6.9000;0.0855;-0.8493;
7.2000;0.0871;-0.8448;
7.5000;0.0806;-0.8539;
7.8000;0.0879;-0.8267;
8.1000;0.0855;-0.8358;
8.4000;0.0838;-0.8403;
8.7000;0.0814;-0.8448;
9.0000;0.0855;-0.8448;
9.3000;0.0847;-0.8561;
9.6000;0.0781;-0.8697;
9.9000;0.0863;-0.8425;
10.2000;0.0863;-0.8335;
10.5000;0.0733;-0.8743;
10.8000;0.0879;-0.8425;
11.1000;0.0847;-0.8516;
11.4000;0.0969;-0.8199;
11.7000;0.0871;-0.8425;
12.0000;0.0887;-0.8425;
12.3000;0.0871;-0.8471;
12.6000;0.0871;-0.8425;
12.9000;0.0879;-0.8471;
13.2000;0.0871;-0.8425;
13.5000;0.0871;-0.8380;
13.8000;0.0863;-0.8425;
14.1000;0.0879;-0.8312;
14.4000;0.0895;-0.8380;
14.7000;0.0863;-0.8471;
15.0000;0.0887;-0.8425;
15.3000;0.0879;-0.8358;
15.6000;0.0855;-0.8425;
15.9000;0.0855;-0.8448;
16.2000;0.0863;-0.8358;
16.5000;0.0871;-0.8335;
16.8000;0.0879;-0.8290;
17.1000;0.0887;-0.8267;
17.4000;0.0863;-0.8358;
17.7000;0.0895;-0.8403;
18.0000;0.0790;-0.8629;
18.3000;0.0863;-0.8358;
18.6000;0.0855;-0.8312;
18.9000;0.0879;-0.8335;
19.2000;0.0895;-0.8358;
19.5000;0.0814;-0.8539;
19.8000;0.0887;-0.8335;
20.1000;0.0879;-0.8380;
20.4000;0.0920;-0.8222;
20.7000;0.0871;-0.8335;
21.0000;0.0887;-0.8335;
21.3000;0.0928;-0.8267;
21.6000;0.0920;-0.8335;
21.9000;0.0895;-0.8403;
22.2000;0.0887;-0.8403;
22.5000;0.0895;-0.8380;
22.8000;0.0895;-0.8403;
23.1000;0.0904;-0.8358;
23.4000;0.0879;-0.8380;
23.7000;0.0838;-0.8403;
24.0000;0.0887;-0.8222;
24.3000;0.0912;-0.8176;
24.6000;0.0952;-0.8176;
24.9000;0.0879;-0.8335;
25.2000;0.0863;-0.8448;
25.5000;0.0920;-0.8267;
25.8000;0.0904;-0.8244;
26.1000;0.0904;-0.8244;
26.4000;0.0887;-0.8335;
26.7000;0.0887;-0.8199;
27.0000;0.0920;-0.8222;
27.3000;0.0887;-0.8267;
27.6000;0.0830;-0.8471;
27.9000;0.0887;-0.8358;
28.2000;0.0904;-0.8358;
28.5000;0.0871;-0.8425;
28.8000;0.0879;-0.8380;
29.1000;0.0887;-0.8312;
29.4000;0.0879;-0.8358;
29.7000;0.0830;-0.8471;
30.0000;0.0871;-0.8425;
30.3000;0.0895;-0.8335;
30.6000;0.0895;-0.8267;
30.9000;0.0879;-0.8335;
31.2000;0.0871;-0.8335;
31.5000;0.0847;-0.8448;
31.8000;0.0895;-0.8290;
32.1000;0.0895;-0.8312;
32.4000;0.0887;-0.8403;
32.7000;0.0871;-0.8335;
33.0000;0.0887;-0.8335;
33.3000;0.0895;-0.8312;
33.6000;0.0847;-0.8448;
33.9000;0.0879;-0.8425;
34.2000;0.0912;-0.8403;
34.5000;0.0944;-0.8290;
34.8000;0.0871;-0.8448;
35.1000;0.0887;-0.8358;
35.4000;0.0879;-0.8358;
35.7000;0.0912;-0.8312;
36.0000;0.0904;-0.8335;
36.3000;0.0887;-0.8358;
36.6000;0.0879;-0.8403;
36.9000;0.0887;-0.8312;
37.2000;0.0912;-0.8244;
37.5000;0.0887;-0.8290;
37.8000;0.0920;-0.8267;
38.1000;0.0887;-0.8335;
38.4000;0.0863;-0.8403;
38.7000;0.0895;-0.8267;
39.0000;0.0928;-0.8244;
39.3000;0.0847;-0.8448;
39.6000;0.0895;-0.8335;
39.9000;0.0895;-0.8403;
40.2000;0.0895;-0.8312;
40.5000;0.0912;-0.8267;
40.8000;0.0895;-0.8335;
41.1000;0.0952;-0.8199;
41.4000;0.0871;-0.8335;
41.7000;0.0887;-0.8222;
42.0000;0.0904;-0.8222;
42.3000;0.0814;-0.8493;
42.6000;0.0879;-0.8380;
42.9000;0.0871;-0.8403;
43.2000;0.0887;-0.8358;
43.5000;0.0912;-0.8267;
43.8000;0.0879;-0.8290;
44.1000;0.0863;-0.8380;
44.4000;0.0904;-0.8358;
44.7000;0.0912;-0.8312;
45.0000;0.0879;-0.8335;
45.3000;0.0904;-0.8358;
45.6000;0.0912;-0.8425;
45.9000;0.0895;-0.8425;
46.2000;0.0887;-0.8539;
46.5000;0.0895;-0.8403;
46.8000;0.0904;-0.8358;
47.1000;0.0904;-0.8290;
47.4000;0.0920;-0.8335;
47.7000;0.0912;-0.8312;
48.0000;0.0887;-0.8403;
48.3000;0.0895;-0.8335;
48.6000;0.0781;-0.8584;
48.9000;0.0912;-0.8267;
49.2000;0.0887;-0.8448;
49.5000;0.0904;-0.8448;
49.8000;0.0936;-0.8358;
50.1000;0.0912;-0.8493;
50.4000;0.0920;-0.8448;
50.7000;0.0928;-0.8425;
51.0000;0.0904;-0.8516;
51.3000;0.0887;-0.8584;
51.6000;0.0879;-0.8561;
51.9000;0.1009;-0.8199;
52.2000;0.0847;-0.8561;
52.5000;0.0887;-0.8539;
52.8000;0.0741;-0.8788;
53.1000;0.0863;-0.8471;
53.4000;0.0920;-0.8358;
53.7000;0.0871;-0.8448;
54.0000;0.0871;-0.8516;
54.3000;0.0814;-0.8652;
54.6000;0.0887;-0.8448;
54.9000;0.0879;-0.8335;
55.2000;0.0879;-0.8358;
55.5000;0.0814;-0.8493;
55.8000;0.0871;-0.8290;
56.1000;0.0904;-0.8267;
56.4000;0.0944;-0.8176;
56.7000;0.0985;-0.8063;
57.0000;0.0887;-0.8335;
57.3000;0.0944;-0.8176;
57.6000;0.0936;-0.8380;
57.9000;0.0904;-0.8493;
58.2000;0.0895;-0.8516;
58.5000;0.0887;-0.8448;
58.8000;0.0879;-0.8584;
59.1000;0.0863;-0.8652;
59.4000;0.0928;-0.8539;
59.7000;0.0871;-0.8697;
60.0000;0.0879;-0.8675;
60.3000;0.0904;-0.8561;
60.6000;0.0912;-0.8539;
60.9000;0.0895;-0.8539;
61.2000;0.0920;-0.8403;
61.5000;0.0879;-0.8539;
61.8000;0.0863;-0.8629;
62.1000;0.0879;-0.8607;
62.4000;0.0904;-0.8471;
62.7000;0.0920;-0.8380;
63.0000;0.0887;-0.8425;
63.3000;0.0895;-0.8312;
63.6000;0.0904;-0.8358;
63.9000;0.0887;-0.8448;
64.2000;0.0969;-0.8199;
64.5000;0.0904;-0.8380;
64.8000;0.0904;-0.8403;
65.1000;0.0912;-0.8448;
65.4000;0.0928;-0.8403;
65.7000;0.0879;-0.8448;
66.0000;0.0895;-0.8290;
66.3000;0.0904;-0.8199;
66.6000;0.0895;-0.8176;
66.9000;0.0904;-0.8108;
67.2000;0.0912;-0.8222;
67.5000;0.0895;-0.8244;
67.8000;0.0904;-0.8131;
68.1000;0.0887;-0.8154;
68.4000;0.0904;-0.8040;
68.7000;0.0887;-0.8063;
69.0000;0.0904;-0.8040;
69.3000;0.0944;-0.7972;
69.6000;0.0887;-0.8244;
69.9000;0.0887;-0.8222;
70.2000;0.0904;-0.8199;
70.5000;0.0798;-0.8516;
70.8000;0.0928;-0.8222;
71.1000;0.0944;-0.8358;
71.4000;0.0928;-0.8471;
71.7000;0.0928;-0.8493;
72.0000;0.0879;-0.8516;
72.3000;0.0871;-0.8425;
72.6000;0.0904;-0.8380;
72.9000;0.0887;-0.8403;
73.2000;0.0847;-0.8425;
73.5000;0.0936;-0.8131;
73.8000;0.0912;-0.8199;
74.1000;0.0928;-0.8131;
74.4000;0.0912;-0.8199;
74.7000;0.0920;-0.8176;
75.0000;0.0904;-0.8244;
75.3000;0.0920;-0.8290;
75.6000;0.0912;-0.8290;
75.9000;0.0912;-0.8244;
76.2000;0.0887;-0.8267;
76.5000;0.0912;-0.8222;
76.8000;0.0879;-0.8244;
77.1000;0.0887;-0.8222;
77.4000;0.0904;-0.8290;
77.7000;0.0838;-0.8448;
78.0000;0.0928;-0.8290;
78.3000;0.0904;-0.8335;
78.6000;0.0912;-0.8312;
78.9000;0.0863;-0.8471;
79.2000;0.0879;-0.8448;
79.5000;0.0871;-0.8493;
79.8000;0.0904;-0.8403;
80.1000;0.0912;-0.8425;
80.4000;0.0912;-0.8471;
80.7000;0.1009;-0.8086;
81.0000;0.0895;-0.8290;
81.3000;0.0879;-0.8358;
81.6000;0.0879;-0.8335;
81.9000;0.0904;-0.8267;
82.2000;0.0904;-0.8267;
82.5000;0.0944;-0.8154;
82.8000;0.0920;-0.8244;
83.1000;0.0904;-0.8335;
83.4000;0.0879;-0.8380;
83.7000;0.0887;-0.8448;
84.0000;0.0895;-0.8425;
84.3000;0.0895;-0.8448;
84.6000;0.0904;-0.8448;
84.9000;0.0822;-0.8607;
85.2000;0.0904;-0.8493;
85.5000;0.0920;-0.8448;
85.8000;0.0887;-0.8493;
86.1000;0.0944;-0.8403;
86.4000;0.0985;-0.8312;
86.7000;0.0912;-0.8471;
87.0000;0.0895;-0.8448;
87.3000;0.0904;-0.8425;
87.6000;0.1018;-0.8108;
87.9000;0.0887;-0.8403;
88.2000;0.0969;-0.8222;
88.5000;0.0773;-0.8697;
88.8000;0.0904;-0.8335;
89.1000;0.0871;-0.8425;
89.4000;0.0887;-0.8448;
89.7000;0.0920;-0.8425;
90.0000;0.0887;-0.8584;
90.3000;0.0912;-0.8471;
90.6000;0.0863;-0.8584;
90.9000;0.0904;-0.8448;
91.2000;0.0887;-0.8493;
91.5000;0.0871;-0.8493;
91.8000;0.0912;-0.8493;
92.1000;0.0895;-0.8584;
92.4000;0.0912;-0.8584;
92.7000;0.0895;-0.8629;
93.0000;0.0887;-0.8516;
93.3000;0.0879;-0.8539;
93.6000;0.0871;-0.8471;
93.9000;0.0887;-0.8493;
94.2000;0.0863;-0.8448;
94.5000;0.0838;-0.8607;
94.8000;0.0887;-0.8493;
95.1000;0.0904;-0.8629;
95.4000;0.0920;-0.8516;
95.7000;0.0871;-0.8652;
96.0000;0.0912;-0.8629;
96.3000;0.0904;-0.8561;
96.6000;0.0838;-0.8675;
96.9000;0.0928;-0.8516;
97.2000;0.0904;-0.8561;
97.5000;0.0904;-0.8561;
97.8000;0.0920;-0.8516;
98.1000;0.0952;-0.8493;
98.4000;0.0871;-0.8652;
98.7000;0.0920;-0.8380;
99.0000;0.0912;-0.8358;
99.3000;0.0904;-0.8403;
99.6000;0.0895;-0.8425;
99.9000;0.0904;-0.8425;
100.2000;0.0895;-0.8471;
100.5000;0.0879;-0.8539;
100.8000;0.0879;-0.8539;
101.1000;0.0887;-0.8607;
101.4000;0.0912;-0.8584;
101.7000;0.1001;-0.8290;
102.0000;0.0904;-0.8448;
102.3000;0.0985;-0.8312;
102.6000;0.0822;-0.8720;
102.9000;0.0912;-0.8561;
103.2000;0.0969;-0.8425;
103.5000;0.0879;-0.8629;
103.8000;0.0936;-0.8448;
104.1000;0.0912;-0.8516;
104.4000;0.0863;-0.8652;
104.7000;0.0920;-0.8471;
105.0000;0.0887;-0.8539;
105.3000;0.0928;-0.8380;
105.6000;0.0920;-0.8380;
105.9000;0.0879;-0.8471;
106.2000;0.0863;-0.8471;
106.5000;0.0895;-0.8335;
106.8000;0.0912;-0.8471;
107.1000;0.0895;-0.8471;
107.4000;0.0904;-0.8425;
107.7000;0.0895;-0.8425;
108.0000;0.0920;-0.8358;
108.3000;0.0879;-0.8448;
108.6000;0.0895;-0.8425;
108.9000;0.0920;-0.8380;
109.2000;0.0936;-0.8290;
109.5000;0.0928;-0.8244;
109.8000;0.0895;-0.8312;
110.1000;0.0895;-0.8267;
110.4000;0.0822;-0.8425;
110.7000;0.0895;-0.8290;
111.0000;0.0920;-0.8244;
111.3000;0.0920;-0.8312;
111.6000;0.0928;-0.8290;
111.9000;0.0936;-0.8312;
112.2000;0.0904;-0.8493;
112.5000;0.0887;-0.8561;
112.8000;0.0879;-0.8561;
113.1000;0.0904;-0.8425;
113.4000;0.0838;-0.8652;
113.7000;0.0912;-0.8380;
114.0000;0.0895;-0.8358;
114.3000;0.0871;-0.8403;
114.6000;0.0904;-0.8312;
114.9000;0.0895;-0.8335;
115.2000;0.0887;-0.8403;
115.5000;0.0920;-0.8425;
115.8000;0.0920;-0.8471;
116.1000;0.0904;-0.8471;
116.4000;0.0904;-0.8471;
116.7000;0.0879;-0.8561;
117.0000;0.0920;-0.8471;
117.3000;0.0912;-0.8471;
117.6000;0.0904;-0.8448;
117.9000;0.0904;-0.8471;
118.2000;0.0895;-0.8425;
118.5000;0.0961;-0.8358;
118.8000;0.0895;-0.8471;
119.1000;0.0895;-0.8539;
119.4000;0.0928;-0.8471;
119.7000;0.0895;-0.8539;
120.0000;0.0904;-0.8561;
120.3000;0.0895;-0.8584;
120.6000;0.1001;-0.8267;
120.9000;0.0904;-0.8561;
121.2000;0.0904;-0.8493;
121.5000;0.0887;-0.8471;
121.8000;0.0904;-0.8403;
122.1000;0.0904;-0.8425;
122.4000;0.0895;-0.8403;
122.7000;0.0863;-0.8539;
123.0000;0.0912;-0.8471;
123.3000;0.0936;-0.8448;
123.6000;0.0887;-0.8743;
123.9000;0.0895;-0.8720;
124.2000;0.0871;-0.8697;
124.5000;0.0920;-0.8652;
124.8000;0.0920;-0.8607;
125.1000;0.0904;-0.8584;
125.4000;0.0895;-0.8675;
125.7000;0.0895;-0.8652;
126.0000;0.0912;-0.8584;
126.3000;0.0977;-0.8380;
126.6000;0.0887;-0.8539;
126.9000;0.0904;-0.8584;
127.2000;0.0912;-0.8629;
127.5000;0.0887;-0.8652;
127.8000;0.0879;-0.8629;
128.1000;0.0871;-0.8697;
128.4000;0.0912;-0.8561;
128.7000;0.0904;-0.8652;
129.0000;0.0904;-0.8765;
129.3000;0.0879;-0.8697;
129.6000;0.0879;-0.8584;
129.9000;0.0904;-0.8584;
130.2000;0.0887;-0.8607;
130.5000;0.0904;-0.8629;
130.8000;0.0904;-0.8629;
131.1000;0.0895;-0.8629;
131.4000;0.0904;-0.8675;
131.7000;0.0904;-0.8743;
132.0000;0.0920;-0.8675;
132.3000;0.0904;-0.8629;
132.6000;0.0912;-0.8675;
132.9000;0.0895;-0.8697;
133.2000;0.0887;-0.8743;
133.5000;0.0895;-0.8675;
133.8000;0.0904;-0.8539;
134.1000;0.0887;-0.8539;
134.4000;0.0904;-0.8425;
134.7000;0.0904;-0.8425;
135.0000;0.0912;-0.8380;
135.3000;0.0920;-0.8403;
135.6000;0.0952;-0.8290;
135.9000;0.0912;-0.8403;
136.2000;0.0920;-0.8380;
136.5000;0.0912;-0.8493;
136.8000;0.0904;-0.8448;
137.1000;0.0928;-0.8403;
137.4000;0.0969;-0.8290;
137.7000;0.0895;-0.8425;
138.0000;0.0912;-0.8471;
138.3000;0.0928;-0.8358;
138.6000;0.0936;-0.8358;
138.9000;0.0969;-0.8380;
139.2000;0.0904;-0.8516;
139.5000;0.0920;-0.8471;
139.8000;0.0887;-0.8561;
140.1000;0.0952;-0.8471;
140.4000;0.0912;-0.8584;
140.7000;0.0961;-0.8448;
141.0000;0.0912;-0.8607;
141.3000;0.0952;-0.8516;
141.6000;0.0920;-0.8584;
141.9000;0.0895;-0.8584;
142.2000;0.0904;-0.8629;
142.5000;0.0920;-0.8584;
142.8000;0.0969;-0.8516;
143.1000;0.0912;-0.8629;
143.4000;0.0928;-0.8539;
143.7000;0.1148;-0.8063;
144.0000;0.0879;-0.8765;
144.3000;0.0904;-0.8697;
144.6000;0.0904;-0.8607;
144.9000;0.0912;-0.8539;
145.2000;0.0887;-0.8629;
145.5000;0.0920;-0.8539;
145.8000;0.0912;-0.8539;
146.1000;0.0904;-0.8471;
146.4000;0.0912;-0.8380;
146.7000;0.0887;-0.8425;
147.0000;0.0904;-0.8471;
147.3000;0.0944;-0.8335;
147.6000;0.0944;-0.8380;
147.9000;0.0879;-0.8539;
148.2000;0.0904;-0.8561;
148.5000;0.0969;-0.8380;
148.8000;0.0912;-0.8516;
149.1000;0.0879;-0.8584;
149.4000;0.0887;-0.8493;
149.7000;0.0944;-0.8358;
150.0000;0.0904;-0.8471;
150.3000;0.0977;-0.8290;
150.6000;0.0912;-0.8448;
150.9000;0.0814;-0.8675;
151.2000;0.0912;-0.8403;
151.5000;0.0904;-0.8403;
151.8000;0.0920;-0.8471;
152.1000;0.0920;-0.8516;
152.4000;0.0928;-0.8516;
152.7000;0.0879;-0.8607;
153.0000;0.0920;-0.8561;
153.3000;0.0830;-0.8788;
153.6000;0.0920;-0.8539;
153.9000;0.0920;-0.8607;
154.2000;0.0944;-0.8539;
154.5000;0.0879;-0.8697;
154.8000;0.0895;-0.8697;
155.1000;0.0822;-0.8924;
155.4000;0.0928;-0.8652;
155.7000;0.0912;-0.8652;
156.0000;0.0895;-0.8584;
156.3000;0.0798;-0.8924;
156.6000;0.0904;-0.8697;
156.9000;0.0887;-0.8697;
157.2000;0.0912;-0.8697;
157.5000;0.0855;-0.8788;
157.8000;0.0895;-0.8675;
158.1000;0.0904;-0.8652;
158.4000;0.0863;-0.8697;
158.7000;0.0895;-0.8607;
159.0000;0.0895;-0.8493;
159.3000;0.0871;-0.8561;
159.6000;0.0904;-0.8471;
159.9000;0.0887;-0.8607;
160.2000;0.0920;-0.8561;
160.5000;0.0952;-0.8448;
160.8000;0.0912;-0.8584;
161.1000;0.0887;-0.8584;
161.4000;0.0741;-0.8901;
161.7000;0.0887;-0.8471;
162.0000;0.0887;-0.8471;
162.3000;0.0895;-0.8448;
162.6000;0.0993;-0.8312;
162.9000;0.0887;-0.8493;
163.2000;0.0944;-0.8267;
163.5000;0.0879;-0.8403;
163.8000;0.0912;-0.8312;
164.1000;0.0920;-0.8267;
164.4000;0.0912;-0.8358;
164.7000;0.0806;-0.8743;
165.0000;0.0879;-0.8561;
165.3000;0.0904;-0.8425;
165.6000;0.0912;-0.8358;
165.9000;0.0871;-0.8380;
166.2000;0.0920;-0.8244;
166.5000;0.0912;-0.8335;
166.8000;0.0936;-0.8222;
167.1000;0.0895;-0.8267;
167.4000;0.0904;-0.8312;
167.7000;0.0830;-0.8584;
168.0000;0.0895;-0.8471;
168.3000;0.0871;-0.8561;
168.6000;0.0887;-0.8516;
168.9000;0.0912;-0.8471;
169.2000;0.0912;-0.8425;
169.5000;0.0936;-0.8358;
169.8000;0.0977;-0.8199;
170.1000;0.0855;-0.8493;
170.4000;0.0936;-0.8312;
170.7000;0.0952;-0.8312;
171.0000;0.0904;-0.8516;
171.3000;0.0806;-0.8697;
171.6000;0.0895;-0.8516;
171.9000;0.0912;-0.8516;
172.2000;0.0879;-0.8493;
172.5000;0.0969;-0.8267;
172.8000;0.0920;-0.8380;
173.1000;0.0879;-0.8493;
173.4000;0.0895;-0.8584;
173.7000;0.0928;-0.8607;
174.0000;0.0887;-0.8743;
174.3000;0.0895;-0.8675;
174.6000;0.0895;-0.8652;
174.9000;0.0838;-0.8788;
175.2000;0.0904;-0.8516;
175.5000;0.0879;-0.8539;
175.8000;0.0904;-0.8561;
176.1000;0.0904;-0.8561;
176.4000;0.0887;-0.8607;
176.7000;0.0887;-0.8629;
177.0000;0.0920;-0.8652;
177.3000;0.0733;-0.9037;
177.6000;0.0920;-0.8516;
177.9000;0.0887;-0.8584;
178.2000;0.0944;-0.8380;
178.5000;0.0904;-0.8448;
178.8000;0.0895;-0.8584;
179.1000;0.0952;-0.8425;
179.4000;0.0961;-0.8448;
179.7000;0.0887;-0.8561;
180.0000;0.0871;-0.8697;
180.3000;0.0838;-0.8788;
180.6000;0.0895;-0.8584;
180.9000;0.0895;-0.8607;
181.2000;0.0879;-0.8629;
181.5000;0.0895;-0.8584;
181.8000;0.0936;-0.8516;
182.1000;0.0879;-0.8561;
182.4000;0.0806;-0.8697;
182.7000;0.0920;-0.8471;
183.0000;0.1001;-0.8312;
183.3000;0.0977;-0.8358;
183.6000;0.0904;-0.8561;
183.9000;0.0879;-0.8516;
184.2000;0.0912;-0.8471;
184.5000;0.0895;-0.8561;
184.8000;0.0912;-0.8561;
185.1000;0.0936;-0.8448;
185.4000;0.0920;-0.8448;
185.7000;0.0904;-0.8425;
186.0000;0.0928;-0.8358;
186.3000;0.0895;-0.8403;
186.6000;0.0912;-0.8335;
186.9000;0.0887;-0.8380;
187.2000;0.0920;-0.8312;
187.5000;0.0944;-0.8222;
187.8000;0.0912;-0.8222;
188.1000;0.0936;-0.8199;
188.4000;0.0912;-0.8335;
188.7000;0.0895;-0.8448;
189.0000;0.0887;-0.8561;
189.3000;0.0904;-0.8493;
189.6000;0.0928;-0.8403;
189.9000;0.0912;-0.8471;
190.2000;0.0863;-0.8607;
190.5000;0.0928;-0.8425;
190.8000;0.0920;-0.8380;
191.1000;0.0912;-0.8380;
191.4000;0.0920;-0.8425;
191.7000;0.0887;-0.8584;
192.0000;0.0912;-0.8516;
192.3000;0.0928;-0.8471;
192.6000;0.0920;-0.8380;
192.9000;0.0928;-0.8335;
193.2000;0.0920;-0.8244;
193.5000;0.0912;-0.8222;
193.8000;0.0887;-0.8290;
194.1000;0.0895;-0.8290;
194.4000;0.0993;-0.8154;
194.7000;0.0928;-0.8403;
195.0000;0.0830;-0.8561;
195.3000;0.0936;-0.8222;
195.6000;0.0944;-0.8199;
195.9000;0.0920;-0.8222;
196.2000;0.0879;-0.8290;
196.5000;0.0920;-0.8108;
196.8000;0.0879;-0.8244;
197.1000;0.0920;-0.8154;
197.4000;0.0961;-0.8063;
197.7000;0.0928;-0.8222;
198.0000;0.0920;-0.8222;
198.3000;0.1009;-0.8018;
198.6000;0.1058;-0.7882;
198.9000;0.0904;-0.8199;
199.2000;0.0838;-0.8448;
199.5000;0.0912;-0.8267;
199.8000;0.0895;-0.8358;
200.1000;0.0920;-0.8244;
200.4000;0.0904;-0.8222;
200.7000;0.0912;-0.8199;
201.0000;0.0904;-0.8199;
201.3000;0.0993;-0.7995;
201.6000;0.0879;-0.8290;
201.9000;0.0912;-0.8290;
202.2000;0.0920;-0.8335;
202.5000;0.0863;-0.8290;
202.8000;0.0895;-0.8267;
203.1000;0.0847;-0.8448;
203.4000;0.0912;-0.8290;
203.7000;0.0895;-0.8358;
204.0000;0.0928;-0.8312;
204.3000;0.0928;-0.8244;
204.6000;0.0879;-0.8403;
204.9000;0.0887;-0.8448;
205.2000;0.0887;-0.8448;
205.5000;0.0969;-0.8222;
205.8000;0.0895;-0.8448;
206.1000;0.0887;-0.8539;
206.4000;0.0904;-0.8516;
206.7000;0.0912;-0.8471;
207.0000;0.0912;-0.8493;
207.3000;0.0928;-0.8448;
207.6000;0.0912;-0.8607;
207.9000;0.0920;-0.8539;
208.2000;0.0871;-0.8607;
208.5000;0.0920;-0.8493;
208.8000;0.0920;-0.8493;
209.1000;0.0895;-0.8539;
209.4000;0.0895;-0.8561;
209.7000;0.0904;-0.8561;
210.0000;0.0944;-0.8403;
210.3000;0.0904;-0.8607;
210.6000;0.0895;-0.8584;
210.9000;0.0879;-0.8584;
211.2000;0.0847;-0.8652;
211.5000;0.0879;-0.8584;
211.8000;0.0879;-0.8584;
212.1000;0.0920;-0.8493;
212.4000;0.0912;-0.8561;
212.7000;0.0904;-0.8493;
213.0000;0.0952;-0.8290;
213.3000;0.0887;-0.8471;
213.6000;0.0904;-0.8380;
213.9000;0.0912;-0.8335;
214.2000;0.0928;-0.8290;
214.5000;0.0920;-0.8244;
214.8000;0.0895;-0.8267;
215.1000;0.0904;-0.8312;
215.4000;0.0871;-0.8403;
215.7000;0.0904;-0.8290;
216.0000;0.0928;-0.8267;
216.3000;0.0895;-0.8471;
216.6000;0.0871;-0.8516;
216.9000;0.0904;-0.8425;
217.2000;0.0920;-0.8380;
217.5000;0.0936;-0.8335;
217.8000;0.0895;-0.8448;
218.1000;0.1001;-0.8199;
218.4000;0.0928;-0.8425;
218.7000;0.0928;-0.8312;
219.0000;0.0887;-0.8403;
219.3000;0.0895;-0.8448;
219.6000;0.0830;-0.8629;
219.9000;0.0912;-0.8471;
220.2000;0.0879;-0.8584;
220.5000;0.0879;-0.8516;
220.8000;0.0920;-0.8448;
221.1000;0.0920;-0.8471;
221.4000;0.0895;-0.8539;
221.7000;0.0895;-0.8493;
222.0000;0.0912;-0.8403;
222.3000;0.0895;-0.8493;
222.6000;0.0912;-0.8493;
222.9000;0.0904;-0.8425;
223.2000;0.0977;-0.8290;
223.5000;0.0912;-0.8403;
223.8000;0.0912;-0.8448;
224.1000;0.0912;-0.8335;
224.4000;0.0863;-0.8403;
224.7000;0.0895;-0.8380;
225.0000;0.0838;-0.8539;
225.3000;0.0895;-0.8425;
225.6000;0.0895;-0.8471;
225.9000;0.0912;-0.8471;
226.2000;0.0904;-0.8493;
226.5000;0.0912;-0.8471;
226.8000;0.0904;-0.8629;
227.1000;0.0920;-0.8561;
227.4000;0.0969;-0.8380;
227.7000;0.0904;-0.8448;
228.0000;0.0895;-0.8471;
228.3000;0.0912;-0.8448;
228.6000;0.0904;-0.8425;
228.9000;0.0904;-0.8380;
229.2000;0.0904;-0.8335;
229.5000;0.0952;-0.8222;
229.8000;0.0920;-0.8222;
230.1000;0.0912;-0.8222;
230.4000;0.0895;-0.8448;
230.7000;0.0944;-0.8403;
231.0000;0.0920;-0.8493;
231.3000;0.0904;-0.8425;
231.6000;0.0887;-0.8516;
231.9000;0.0912;-0.8516;
232.2000;0.0895;-0.8561;
232.5000;0.0920;-0.8516;
232.8000;0.0912;-0.8539;
233.1000;0.0904;-0.8493;
233.4000;0.0912;-0.8471;
233.7000;0.0928;-0.8425;
234.0000;0.0912;-0.8516;
234.3000;0.0879;-0.8652;
234.6000;0.0928;-0.8607;
234.9000;0.0912;-0.8743;
235.2000;0.0895;-0.8810;
235.5000;0.0887;-0.8765;
235.8000;0.0904;-0.8652;
236.1000;0.0904;-0.8675;
236.4000;0.0928;-0.8561;
236.7000;0.0985;-0.8380;
237.0000;0.0936;-0.8516;
237.3000;0.0920;-0.8584;
237.6000;0.0944;-0.8448;
237.9000;0.0912;-0.8539;
238.2000;0.0895;-0.8561;
238.5000;0.0887;-0.8629;
238.8000;0.0904;-0.8561;
239.1000;0.0912;-0.8584;
239.4000;0.0895;-0.8471;
239.7000;0.0912;-0.8425;
240.0000;0.0912;-0.8380;
240.3000;0.0952;-0.8222;
240.6000;0.0871;-0.8403;
240.9000;0.0920;-0.8290;
241.2000;0.0895;-0.8312;
241.5000;0.0936;-0.8176;
241.8000;0.0912;-0.8222;
242.1000;0.0961;-0.8154;
242.4000;0.1034;-0.8063;
242.7000;0.0969;-0.8267;
243.0000;0.0912;-0.8358;
243.3000;0.1018;-0.8154;
243.6000;0.0895;-0.8312;
243.9000;0.0912;-0.8222;
244.2000;0.0895;-0.8380;
244.5000;0.0863;-0.8561;
244.8000;0.0822;-0.8697;
245.1000;0.1058;-0.8176;
245.4000;0.0977;-0.8448;
245.7000;0.0912;-0.8607;
246.0000;0.0904;-0.8561;
246.3000;0.0912;-0.8493;
246.6000;0.0920;-0.8425;
246.9000;0.0920;-0.8471;
247.2000;0.0904;-0.8493;
247.5000;0.0904;-0.8471;
247.8000;0.0904;-0.8493;
248.1000;0.0912;-0.8539;
248.4000;0.0887;-0.8561;
248.7000;0.0895;-0.8561;
249.0000;0.0879;-0.8561;
249.3000;0.0904;-0.8539;
249.6000;0.0912;-0.8584;
249.9000;0.1009;-0.8244;
250.2000;0.0920;-0.8493;
250.5000;0.0936;-0.8539;
250.8000;0.0895;-0.8675;
251.1000;0.0928;-0.8675;
251.4000;0.0904;-0.8765;
251.7000;0.0904;-0.8810;
252.0000;0.0912;-0.8765;
252.3000;0.0920;-0.8675;
252.6000;0.0904;-0.8675;
252.9000;0.0912;-0.8652;
253.2000;0.0920;-0.8584;
253.5000;0.0895;-0.8607;
253.8000;0.0912;-0.8584;
254.1000;0.0912;-0.8584;
254.4000;0.0920;-0.8493;
254.7000;0.0887;-0.8493;
255.0000;0.0920;-0.8561;
255.3000;0.0904;-0.8493;
255.6000;0.0871;-0.8561;
255.9000;0.0920;-0.8425;
256.2000;0.0904;-0.8425;
256.5000;0.0944;-0.8403;
256.8000;0.0936;-0.8448;
257.1000;0.0912;-0.8493;
257.4000;0.0895;-0.8607;
257.7000;0.0920;-0.8561;
258.0000;0.0895;-0.8561;
258.3000;0.0912;-0.8607;
258.6000;0.0855;-0.8720;
258.9000;0.0912;-0.8743;
259.2000;0.0920;-0.8765;
259.5000;0.0847;-0.8992;
259.8000;0.0904;-0.8765;
260.1000;0.0765;-0.9082;
260.4000;0.0912;-0.8697;
260.7000;0.0904;-0.8652;
261.0000;0.0895;-0.8607;
261.3000;0.0920;-0.8584;
261.6000;0.0920;-0.8516;
261.9000;0.0863;-0.8584;
262.2000;0.0904;-0.8403;
262.5000;0.0936;-0.8335;
262.8000;0.0904;-0.8425;
263.1000;0.0871;-0.8561;
263.4000;0.0920;-0.8539;
263.7000;0.0912;-0.8471;
264.0000;0.0895;-0.8471;
264.3000;0.0936;-0.8380;
264.6000;0.0879;-0.8493;
264.9000;0.0904;-0.8493;
265.2000;0.0895;-0.8425;
265.5000;0.0944;-0.8312;
265.8000;0.0904;-0.8380;
266.1000;0.0928;-0.8403;
266.4000;0.0904;-0.8425;
266.7000;0.0895;-0.8471;
267.0000;0.0912;-0.8358;
267.3000;0.0961;-0.8290;
267.6000;0.0847;-0.8584;
267.9000;0.0912;-0.8425;
268.2000;0.0952;-0.8222;
268.5000;0.0936;-0.8267;
268.8000;0.0944;-0.8358;
269.1000;0.0912;-0.8425;
269.4000;0.0944;-0.8335;
269.7000;0.0920;-0.8403;
270.0000;0.0904;-0.8493;
270.3000;0.0904;-0.8539;
270.6000;0.0920;-0.8493;
270.9000;0.0904;-0.8448;
271.2000;0.0920;-0.8425;
271.5000;0.0961;-0.8358;
271.8000;0.0904;-0.8539;
272.1000;0.0920;-0.8539;
272.4000;0.0977;-0.8425;
272.7000;0.0904;-0.8629;
273.0000;0.0904;-0.8607;
273.3000;0.0912;-0.8584;
273.6000;0.0887;-0.8743;
273.9000;0.0887;-0.8720;
274.2000;0.0895;-0.8697;
274.5000;0.0936;-0.8561;
274.8000;0.0904;-0.8652;
275.1000;0.1026;-0.8403;
275.4000;0.0879;-0.8833;
275.7000;0.0904;-0.8788;
276.0000;0.0895;-0.8697;
276.3000;0.0904;-0.8697;
276.6000;0.0863;-0.8743;
276.9000;0.0920;-0.8516;
277.2000;0.0895;-0.8584;
277.5000;0.0879;-0.8629;
277.8000;0.0895;-0.8584;
278.1000;0.0920;-0.8471;
278.4000;0.0904;-0.8539;
278.7000;0.0928;-0.8471;
279.0000;0.0920;-0.8403;
279.3000;0.0920;-0.8471;
279.6000;0.0944;-0.8403;
279.9000;0.1001;-0.8312;
280.2000;0.0895;-0.8561;
280.5000;0.0969;-0.8471;
280.8000;0.0895;-0.8584;
281.1000;0.0863;-0.8584;
281.4000;0.0871;-0.8607;
281.7000;0.0863;-0.8584;
282.0000;0.0912;-0.8539;
282.3000;0.0912;-0.8584;
282.6000;0.0887;-0.8561;
282.9000;0.0969;-0.8312;
283.2000;0.0944;-0.8244;
283.5000;0.0928;-0.8358;
283.8000;0.0895;-0.8380;
284.1000;0.0912;-0.8267;
284.4000;0.0928;-0.8199;
284.7000;0.0895;-0.8267;
285.0000;0.0887;-0.8290;
285.3000;0.0887;-0.8358;
285.6000;0.0879;-0.8425;
285.9000;0.0912;-0.8448;
286.2000;0.0871;-0.8629;
286.5000;0.0928;-0.8539;
286.8000;0.0895;-0.8652;
287.1000;0.0904;-0.8629;
287.4000;0.0920;-0.8607;
287.7000;0.0944;-0.8493;
288.0000;0.0912;-0.8516;
288.3000;0.0904;-0.8561;
288.6000;0.0871;-0.8607;
288.9000;0.0904;-0.8471;
289.2000;0.0904;-0.8516;
289.5000;0.0912;-0.8539;
289.8000;0.1074;-0.8290;
290.1000;0.0879;-0.8720;
290.4000;0.0920;-0.8584;
290.7000;0.0904;-0.8584;
291.0000;0.0838;-0.8788;
291.3000;0.0790;-0.8878;
291.6000;0.0887;-0.8607;
291.9000;0.0904;-0.8607;
292.2000;0.0879;-0.8584;
292.5000;0.0912;-0.8539;
292.8000;0.0912;-0.8607;
293.1000;0.0806;-0.8924;
293.4000;0.0904;-0.8720;
293.7000;0.0912;-0.8607;
294.0000;0.0912;-0.8584;
294.3000;0.0904;-0.8516;
294.6000;0.0887;-0.8561;
294.9000;0.0928;-0.8358;
295.2000;0.0904;-0.8358;
295.5000;0.0895;-0.8358;
295.8000;0.0904;-0.8380;
296.1000;0.0847;-0.8471;
296.4000;0.0928;-0.8312;
296.7000;0.0895;-0.8358;
297.0000;0.0912;-0.8403;
297.3000;0.0912;-0.8403;
297.6000;0.0920;-0.8471;
297.9000;0.0879;-0.8607;
298.2000;0.0871;-0.8675;
298.5000;0.0863;-0.8652;
298.8000;0.0920;-0.8493;
299.1000;0.0912;-0.8448;
299.4000;0.0912;-0.8425;
299.7000;0.0920;-0.8403;
300.0000;0.0904;-0.8471;
300.3000;0.0936;-0.8335;
300.6000;0.0887;-0.8516;
300.9000;0.0904;-0.8516;
301.2000;0.0936;-0.8425;
301.5000;0.0904;-0.8516;
301.8000;0.0928;-0.8539;
302.1000;0.0920;-0.8607;
302.4000;0.0904;-0.8675;
302.7000;0.0920;-0.8652;
303.0000;0.0871;-0.8833;
303.3000;0.0912;-0.8788;
303.6000;0.0887;-0.8833;
303.9000;0.0944;-0.8675;
304.2000;0.0838;-0.8833;
304.5000;0.0887;-0.8720;
304.8000;0.0895;-0.8697;
305.1000;0.0887;-0.8652;
305.4000;0.0936;-0.8425;
305.7000;0.0952;-0.8425;
306.0000;0.0887;-0.8539;
306.3000;0.0912;-0.8403;
306.6000;0.1026;-0.8222;
306.9000;0.0928;-0.8471;
307.2000;0.0920;-0.8539;
307.5000;0.0904;-0.8539;
307.8000;0.0904;-0.8471;
308.1000;0.0952;-0.8312;
308.4000;0.0928;-0.8380;
308.7000;0.0920;-0.8335;
309.0000;0.0928;-0.8358;
309.3000;0.0781;-0.8697;
309.6000;0.0838;-0.8584;
309.9000;0.0904;-0.8425;
310.2000;0.0928;-0.8380;
310.5000;0.0871;-0.8516;
310.8000;0.0912;-0.8471;
311.1000;0.0895;-0.8561;
311.4000;0.0920;-0.8448;
311.7000;0.0920;-0.8516;
312.0000;0.0928;-0.8471;
312.3000;0.0944;-0.8290;
312.6000;0.0928;-0.8312;
312.9000;0.0912;-0.8425;
313.2000;0.0936;-0.8403;
313.5000;0.0912;-0.8425;
313.8000;0.0944;-0.8290;
314.1000;0.0969;-0.8267;
314.4000;0.0887;-0.8516;
314.7000;0.0920;-0.8403;
315.0000;0.0912;-0.8516;
315.3000;0.0928;-0.8584;
315.6000;0.0920;-0.8561;
315.9000;0.0887;-0.8584;
316.2000;0.0904;-0.8516;
316.5000;0.0912;-0.8425;
316.8000;0.0936;-0.8358;
317.1000;0.0912;-0.8403;
317.4000;0.0985;-0.8290;
317.7000;0.0895;-0.8493;
318.0000;0.0920;-0.8425;
318.3000;0.0904;-0.8425;
318.6000;0.0887;-0.8539;
318.9000;0.0887;-0.8539;
319.2000;0.0912;-0.8493;
319.5000;0.0912;-0.8539;
319.8000;0.0887;-0.8471;
320.1000;0.0871;-0.8516;
320.4000;0.0904;-0.8493;
320.7000;0.0895;-0.8539;
321.0000;0.0904;-0.8539;
321.3000;0.0944;-0.8403;
321.6000;0.0904;-0.8335;
321.9000;0.0920;-0.8312;
322.2000;0.0904;-0.8358;
322.5000;0.0912;-0.8312;
322.8000;0.0895;-0.8335;
323.1000;0.0961;-0.8199;
323.4000;0.0912;-0.8380;
323.7000;0.0928;-0.8358;
324.0000;0.0904;-0.8471;
324.3000;0.0895;-0.8539;
324.6000;0.0879;-0.8584;
324.9000;0.0904;-0.8493;
325.2000;0.0952;-0.8335;
325.5000;0.0798;-0.8810;
325.8000;0.0904;-0.8516;
326.1000;0.0904;-0.8516;
326.4000;0.0952;-0.8403;
326.7000;0.0928;-0.8493;
327.0000;0.0895;-0.8607;
327.3000;0.0928;-0.8516;
327.6000;0.0936;-0.8403;
327.9000;0.0928;-0.8403;
328.2000;0.0838;-0.8584;
328.5000;0.0928;-0.8380;
328.8000;0.0912;-0.8539;
329.1000;0.1026;-0.8222;
329.4000;0.0904;-0.8403;
329.7000;0.0887;-0.8448;
330.0000;0.0936;-0.8290;
330.3000;0.0912;-0.8312;
330.6000;0.0920;-0.8267;
330.9000;0.0952;-0.8176;
331.2000;0.0879;-0.8403;
331.5000;0.0912;-0.8448;
331.8000;0.0920;-0.8448;
332.1000;0.0863;-0.8743;
332.4000;0.0904;-0.8652;
332.7000;0.0912;-0.8652;
333.0000;0.0904;-0.8652;
333.3000;0.0912;-0.8516;
333.6000;0.0798;-0.8697;
333.9000;0.0912;-0.8493;
334.2000;0.0863;-0.8584;
334.5000;0.0912;-0.8539;
334.8000;0.0944;-0.8425;
335.1000;0.0904;-0.8493;
335.4000;0.0871;-0.8539;
335.7000;0.0977;-0.8222;
336.0000;0.0895;-0.8448;
336.3000;0.0871;-0.8539;
336.6000;0.0912;-0.8425;
336.9000;0.0895;-0.8358;
337.2000;0.0920;-0.8335;
337.5000;0.0944;-0.8267;
337.8000;0.0920;-0.8312;
338.1000;0.0871;-0.8335;
338.4000;0.0920;-0.8358;
338.7000;0.0904;-0.8358;
339.0000;0.0895;-0.8403;
339.3000;0.0879;-0.8493;
339.6000;0.0912;-0.8380;
339.9000;0.0904;-0.8335;
340.2000;0.0879;-0.8403;
340.5000;0.0895;-0.8358;
340.8000;0.0969;-0.8244;
341.1000;0.0985;-0.8222;
341.4000;0.0944;-0.8335;
341.7000;0.0904;-0.8425;
342.0000;0.0928;-0.8267;
342.3000;0.1050;-0.8063;
342.6000;0.0895;-0.8380;
342.9000;0.0912;-0.8380;
343.2000;0.0887;-0.8425;
343.5000;0.0952;-0.8267;
343.8000;0.0904;-0.8425;
344.1000;0.0895;-0.8335;
344.4000;0.0961;-0.8131;
344.7000;0.0920;-0.8244;
345.0000;0.0895;-0.8358;
345.3000;0.0928;-0.8312;
345.6000;0.0928;-0.8358;
345.9000;0.0936;-0.8335;
346.2000;0.0887;-0.8425;
346.5000;0.0912;-0.8358;
346.8000;0.0895;-0.8380;
347.1000;0.0920;-0.8358;
347.4000;0.0928;-0.8358;
347.7000;0.0887;-0.8425;
348.0000;0.0879;-0.8358;
348.3000;0.0863;-0.8403;
348.6000;0.0904;-0.8403;
348.9000;0.0895;-0.8425;
349.2000;0.0895;-0.8584;
349.5000;0.0912;-0.8629;
349.8000;0.0920;-0.8629;
350.1000;0.0879;-0.8607;
350.4000;0.0936;-0.8425;
350.7000;0.0895;-0.8516;
351.0000;0.0838;-0.8720;
351.3000;0.0961;-0.8471;
351.6000;0.0895;-0.8561;
351.9000;0.0912;-0.8448;
352.2000;0.0944;-0.8471;
352.5000;0.0961;-0.8425;
352.8000;0.0952;-0.8471;
353.1000;0.0928;-0.8493;
353.4000;0.0887;-0.8561;
353.7000;0.0895;-0.8516;
354.0000;0.0863;-0.8561;
354.3000;0.0895;-0.8561;
354.6000;0.0887;-0.8675;
354.9000;0.0887;-0.8743;
355.2000;0.0944;-0.8629;
355.5000;0.0936;-0.8697;
355.8000;0.0936;-0.8629;
356.1000;0.0904;-0.8629;
356.4000;0.0887;-0.8765;
356.7000;0.0928;-0.8652;
357.0000;0.0838;-0.8810;
357.3000;0.0904;-0.8607;
357.6000;0.0952;-0.8493;
357.9000;0.0920;-0.8629;
358.2000;0.0920;-0.8629;
358.5000;0.0912;-0.8675;
358.8000;0.0895;-0.8675;
359.1000;0.0871;-0.8629;
359.4000;0.0879;-0.8629;
359.7000;0.0920;-0.8539;
360.0000;0.0887;-0.8561;
360.3000;0.0830;-0.8697;
360.6000;0.0863;-0.8493;
360.9000;0.0895;-0.8403;
361.2000;0.0895;-0.8448;
361.5000;0.0904;-0.8561;
361.8000;0.0773;-0.8833;
362.1000;0.0985;-0.8358;
362.4000;0.0887;-0.8652;
362.7000;0.0904;-0.8652;
363.0000;0.0895;-0.8765;
363.3000;0.0912;-0.8856;
363.6000;0.0887;-0.8901;
363.9000;0.0895;-0.8788;
364.2000;0.0912;-0.8720;
364.5000;0.0912;-0.8607;
364.8000;0.0904;-0.8720;
365.1000;0.0830;-0.8878;
365.4000;0.0920;-0.8584;
365.7000;0.0912;-0.8584;
366.0000;0.0904;-0.8652;
366.3000;0.0904;-0.8607;
366.6000;0.0887;-0.8675;
366.9000;0.0879;-0.8720;
367.2000;0.0928;-0.8652;
367.5000;0.0830;-0.8946;
367.8000;0.0895;-0.8743;
368.1000;0.0920;-0.8697;
368.4000;0.0952;-0.8584;
368.7000;0.0912;-0.8629;
369.0000;0.0887;-0.8652;
369.3000;0.0871;-0.8788;
369.6000;0.0920;-0.8652;
369.9000;0.0912;-0.8652;
370.2000;0.0912;-0.8607;
370.5000;0.0863;-0.8743;
370.8000;0.0895;-0.8629;
371.1000;0.0904;-0.8584;
371.4000;0.0912;-0.8584;
371.7000;0.0855;-0.8810;
372.0000;0.0765;-0.9060;
372.3000;0.0936;-0.8675;
372.6000;0.0904;-0.8810;
372.9000;0.0920;-0.8765;
373.2000;0.0920;-0.8788;
373.5000;0.0920;-0.8765;
373.8000;0.0912;-0.8856;
374.1000;0.0887;-0.8901;
374.4000;0.0912;-0.8788;
374.7000;0.0912;-0.8675;
375.0000;0.0920;-0.8629;
375.3000;0.0822;-0.8856;
375.6000;0.0904;-0.8607;
375.9000;0.0912;-0.8652;
376.2000;0.0993;-0.8425;
376.5000;0.0904;-0.8765;
376.8000;0.0904;-0.8743;
377.1000;0.0895;-0.8833;
377.4000;0.0920;-0.8788;
377.7000;0.0920;-0.8810;
378.0000;0.0912;-0.8833;
378.3000;0.0895;-0.8788;
378.6000;0.0936;-0.8675;
378.9000;0.0904;-0.8743;
379.2000;0.0977;-0.8516;
379.5000;0.0920;-0.8743;
379.8000;0.0863;-0.8788;
380.1000;0.0920;-0.8788;
380.4000;0.0912;-0.8833;
380.7000;0.0912;-0.8833;
381.0000;0.0920;-0.8720;
381.3000;0.0920;-0.8675;
381.6000;0.0928;-0.8720;
381.9000;0.0936;-0.8652;
382.2000;0.0912;-0.8720;
382.5000;0.0871;-0.8788;
382.8000;0.0814;-0.8946;
383.1000;0.0904;-0.8652;
383.4000;0.0904;-0.8765;
383.7000;0.1001;-0.8539;
384.0000;0.0920;-0.8652;
384.3000;0.0887;-0.8675;
384.6000;0.0790;-0.8901;
384.9000;0.0928;-0.8584;
385.2000;0.0961;-0.8448;
385.5000;0.0863;-0.8675;
385.8000;0.0887;-0.8607;
386.1000;0.0904;-0.8629;
386.4000;0.0944;-0.8516;
386.7000;0.0887;-0.8675;
387.0000;0.0879;-0.8629;
387.3000;0.0895;-0.8516;
387.6000;0.0920;-0.8448;
387.9000;0.0904;-0.8516;
388.2000;0.0871;-0.8539;
388.5000;0.0895;-0.8471;
388.8000;0.0904;-0.8539;
389.1000;0.0912;-0.8539;
389.4000;0.0928;-0.8493;
389.7000;0.0904;-0.8516;
390.0000;0.0912;-0.8471;
390.3000;0.0904;-0.8471;
390.6000;0.0936;-0.8425;
390.9000;0.0838;-0.8720;
391.2000;0.0895;-0.8629;
391.5000;0.0920;-0.8584;
391.8000;0.0895;-0.8607;
392.1000;0.0904;-0.8607;
392.4000;0.1009;-0.8493;
392.7000;0.0904;-0.8788;
393.0000;0.0904;-0.8743;
393.3000;0.0895;-0.8607;
393.6000;0.0920;-0.8539;
393.9000;0.0904;-0.8584;
394.2000;0.0904;-0.8584;
394.5000;0.0904;-0.8539;
394.8000;0.0895;-0.8607;
395.1000;0.0928;-0.8539;
395.4000;0.0928;-0.8607;
395.7000;0.0912;-0.8652;
396.0000;0.0904;-0.8584;
396.3000;0.0928;-0.8493;
396.6000;0.0928;-0.8493;
396.9000;0.0790;-0.8788;
397.2000;0.0879;-0.8584;
397.5000;0.0936;-0.8471;
397.8000;0.0920;-0.8493;
398.1000;0.0904;-0.8516;
398.4000;0.0871;-0.8652;
398.7000;0.0904;-0.8652;
399.0000;0.0920;-0.8584;
399.3000;0.0912;-0.8629;
399.6000;0.0920;-0.8652;
399.9000;0.0879;-0.8720;
400.2000;0.0912;-0.8697;
400.5000;0.0944;-0.8584;
400.8000;0.0904;-0.8652;
401.1000;0.0912;-0.8629;
401.4000;0.0904;-0.8652;
401.7000;0.0895;-0.8561;
402.0000;0.0904;-0.8471;
402.3000;0.0904;-0.8516;
402.6000;0.0920;-0.8584;
402.9000;0.0895;-0.8765;
403.2000;0.0855;-0.8946;
403.5000;0.0887;-0.8697;
403.8000;0.0895;-0.8652;
404.1000;0.1009;-0.8380;
404.4000;0.0920;-0.8561;
404.7000;0.0928;-0.8539;
405.0000;0.0765;-0.8878;
405.3000;0.0928;-0.8516;
405.6000;0.0895;-0.8652;
405.9000;0.0944;-0.8652;
406.2000;0.0855;-0.8856;
406.5000;0.0879;-0.8697;
406.8000;0.0863;-0.8652;
407.1000;0.0920;-0.8584;
407.4000;0.0912;-0.8697;
407.7000;0.1009;-0.8448;
408.0000;0.0928;-0.8652;
408.3000;0.0961;-0.8516;
408.6000;0.0928;-0.8448;
408.9000;0.0936;-0.8312;
409.2000;0.0993;-0.8086;
409.5000;0.0904;-0.8290;
409.8000;0.0920;-0.8312;
410.1000;0.0928;-0.8267;
410.4000;0.0871;-0.8403;
410.7000;0.0895;-0.8493;
411.0000;0.0912;-0.8471;
411.3000;0.0895;-0.8516;
411.6000;0.0887;-0.8607;
411.9000;0.0936;-0.8516;
412.2000;0.0928;-0.8516;
412.5000;0.0895;-0.8652;
412.8000;0.0920;-0.8675;
413.1000;0.0920;-0.8720;
413.4000;0.0904;-0.8810;
413.7000;0.0904;-0.8788;
414.0000;0.0904;-0.8833;
414.3000;0.0895;-0.8856;
414.6000;0.0887;-0.8833;
414.9000;0.0944;-0.8607;
415.2000;0.0912;-0.8652;
415.5000;0.0969;-0.8448;
415.8000;0.0920;-0.8607;
416.1000;0.0895;-0.8652;
416.4000;0.0871;-0.8743;
416.7000;0.0895;-0.8652;
417.0000;0.0920;-0.8675;
417.3000;0.0912;-0.8652;
417.6000;0.0887;-0.8856;
417.9000;0.0912;-0.8675;
418.2000;0.0904;-0.8675;
418.5000;0.0936;-0.8539;
418.8000;0.0920;-0.8629;
419.1000;0.0920;-0.8652;
419.4000;0.0920;-0.8743;
419.7000;0.0920;-0.8675;
420.0000;0.0920;-0.8629;
420.3000;0.0871;-0.8765;
420.6000;0.0961;-0.8516;
420.9000;0.0847;-0.8697;
421.2000;0.0895;-0.8561;
421.5000;0.0904;-0.8471;
421.8000;0.0895;-0.8516;
422.1000;0.0936;-0.8380;
422.4000;0.0944;-0.8335;
422.7000;0.0912;-0.8403;
423.0000;0.0912;-0.8425;
423.3000;0.0993;-0.8176;
423.6000;0.0936;-0.8312;
423.9000;0.0904;-0.8425;
424.2000;0.1001;-0.8222;
424.5000;0.0920;-0.8425;
424.8000;0.0904;-0.8358;
425.1000;0.0936;-0.8267;
425.4000;0.0904;-0.8358;
425.7000;0.0961;-0.8199;
426.0000;0.0847;-0.8516;
426.3000;0.0887;-0.8358;
426.6000;0.0879;-0.8516;
426.9000;0.0920;-0.8425;
427.2000;0.0936;-0.8403;
427.5000;0.0863;-0.8561;
427.8000;0.0952;-0.8380;
428.1000;0.0969;-0.8267;
428.4000;0.0904;-0.8425;
428.7000;0.0887;-0.8403;
429.0000;0.0920;-0.8358;
429.3000;0.0895;-0.8448;
429.6000;0.0904;-0.8425;
429.9000;0.0920;-0.8471;
430.2000;0.0920;-0.8607;
430.5000;0.0904;-0.8743;
430.8000;0.0961;-0.8539;
431.1000;0.0879;-0.8720;
431.4000;0.0904;-0.8652;
431.7000;0.0871;-0.8833;
432.0000;0.0904;-0.8765;
432.3000;0.0920;-0.8697;
432.6000;0.0887;-0.8697;
432.9000;0.0912;-0.8697;
433.2000;0.0920;-0.8697;
433.5000;0.0879;-0.8697;
433.8000;0.0912;-0.8584;
434.1000;0.0912;-0.8493;
434.4000;0.0895;-0.8539;
434.7000;0.0895;-0.8539;
435.0000;0.0936;-0.8493;
435.3000;0.0895;-0.8561;
435.6000;0.0952;-0.8493;
435.9000;0.0928;-0.8516;
436.2000;0.0895;-0.8629;
436.5000;0.0920;-0.8539;
436.8000;0.0879;-0.8697;
437.1000;0.0952;-0.8584;
437.4000;0.0920;-0.8629;
437.7000;0.0912;-0.8539;
438.0000;0.0895;-0.8561;
438.3000;0.0879;-0.8561;
438.6000;0.0936;-0.8425;
438.9000;0.0904;-0.8493;
439.2000;0.0912;-0.8516;
439.5000;0.0928;-0.8403;
439.8000;0.0920;-0.8403;
440.1000;0.0871;-0.8516;
440.4000;0.0879;-0.8471;
440.7000;0.0887;-0.8448;
441.0000;0.0920;-0.8403;
441.3000;0.0928;-0.8425;
441.6000;0.0904;-0.8516;
441.9000;0.0904;-0.8584;
442.2000;0.0920;-0.8629;
442.5000;0.0920;-0.8561;
442.8000;0.0928;-0.8539;
443.1000;0.0904;-0.8561;
443.4000;0.0887;-0.8652;
443.7000;0.0961;-0.8516;
444.0000;0.0871;-0.8584;
444.3000;0.0912;-0.8471;
444.6000;0.0993;-0.8222;
444.9000;0.0912;-0.8380;
445.2000;0.0895;-0.8380;
445.5000;0.0920;-0.8312;
445.8000;0.0895;-0.8425;
446.1000;0.0887;-0.8493;
446.4000;0.0912;-0.8380;
446.7000;0.0928;-0.8335;
447.0000;0.0936;-0.8312;
447.3000;0.0912;-0.8312;
447.6000;0.0879;-0.8561;
447.9000;0.0920;-0.8471;
448.2000;0.0855;-0.8675;
448.5000;0.0912;-0.8448;
448.8000;0.0904;-0.8380;
449.1000;0.0904;-0.8425;
449.4000;0.0887;-0.8380;
449.7000;0.1009;-0.8108;
450.0000;0.0904;-0.8312;
450.3000;0.0887;-0.8358;
450.6000;0.0887;-0.8335;
450.9000;0.0879;-0.8358;
451.2000;0.0969;-0.8176;
451.5000;0.0912;-0.8335;
451.8000;0.0904;-0.8380;
452.1000;0.0969;-0.8267;
452.4000;0.0895;-0.8493;
452.7000;0.0879;-0.8629;
453.0000;0.0912;-0.8607;
453.3000;0.0912;-0.8629;
453.6000;0.0912;-0.8652;
453.9000;0.0912;-0.8607;
454.2000;0.0838;-0.8765;
454.5000;0.0790;-0.8901;
454.8000;0.0912;-0.8607;
455.1000;0.0912;-0.8539;
455.4000;0.0895;-0.8607;
455.7000;0.0887;-0.8652;
456.0000;0.0895;-0.8629;
456.3000;0.0847;-0.8743;
456.6000;0.0904;-0.8652;
456.9000;0.0879;-0.8743;
457.2000;0.0904;-0.8697;
457.5000;0.0944;-0.8675;
457.8000;0.0920;-0.8720;
458.1000;0.0912;-0.8765;
458.4000;0.0912;-0.8720;
458.7000;0.0895;-0.8720;
459.0000;0.0871;-0.8720;
459.3000;0.0879;-0.8720;
459.6000;0.0895;-0.8675;
459.9000;0.0969;-0.8561;
460.2000;0.0887;-0.8697;
460.5000;0.0952;-0.8516;
460.8000;0.0928;-0.8629;
461.1000;0.0904;-0.8697;
461.4000;0.0904;-0.8629;
461.7000;0.0920;-0.8539;
462.0000;0.0904;-0.8584;
462.3000;0.0928;-0.8471;
462.6000;0.0920;-0.8425;
462.9000;0.0904;-0.8493;
463.2000;0.0920;-0.8516;
463.5000;0.0912;-0.8584;
463.8000;0.0904;-0.8561;
464.1000;0.0920;-0.8403;
464.4000;0.0904;-0.8335;
464.7000;0.0838;-0.8539;
465.0000;0.0887;-0.8358;
465.3000;0.0904;-0.8312;
465.6000;0.0863;-0.8358;
465.9000;0.0920;-0.8244;
466.2000;0.0895;-0.8335;
466.5000;0.0904;-0.8335;
466.8000;0.0920;-0.8335;
467.1000;0.0904;-0.8380;
467.4000;0.0944;-0.8267;
467.7000;0.0904;-0.8358;
468.0000;0.0920;-0.8335;
468.3000;0.0944;-0.8244;
468.6000;0.0993;-0.8222;
468.9000;0.0920;-0.8448;
469.2000;0.0936;-0.8312;
469.5000;0.0895;-0.8380;
469.8000;0.0879;-0.8425;
470.1000;0.0928;-0.8312;
470.4000;0.0912;-0.8358;
470.7000;0.0920;-0.8358;
471.0000;0.0912;-0.8403;
471.3000;0.0912;-0.8244;
471.6000;0.0952;-0.8267;
471.9000;0.0904;-0.8312;
472.2000;0.0920;-0.8244;
472.5000;0.0879;-0.8425;
472.8000;0.0952;-0.8312;
473.1000;0.0920;-0.8380;
473.4000;0.0920;-0.8335;
473.7000;0.0790;-0.8561;
474.0000;0.0904;-0.8312;
474.3000;0.0928;-0.8244;
474.6000;0.0895;-0.8267;
474.9000;0.0912;-0.8176;
475.2000;0.0773;-0.8561;
475.5000;0.0904;-0.8244;
475.8000;0.0904;-0.8267;
476.1000;0.0904;-0.8335;
476.4000;0.0920;-0.8267;
476.7000;0.0969;-0.8222;
477.0000;0.0904;-0.8380;
477.3000;0.0895;-0.8335;
477.6000;0.0912;-0.8335;
477.9000;0.0806;-0.8471;
478.2000;0.0912;-0.8380;
478.5000;0.1034;-0.8086;
478.8000;0.0920;-0.8358;
479.1000;0.0904;-0.8425;
479.4000;0.0895;-0.8471;
479.7000;0.0871;-0.8471;
480.0000;0.0895;-0.8403;
480.3000;0.0920;-0.8267;
480.6000;0.0912;-0.8290;
480.9000;0.0912;-0.8290;
481.2000;0.0912;-0.8267;
481.5000;0.0912;-0.8312;
481.8000;0.0920;-0.8335;
482.1000;0.0920;-0.8267;
482.4000;0.0912;-0.8335;
482.7000;0.0920;-0.8312;
483.0000;0.0871;-0.8403;
483.3000;0.0928;-0.8222;
483.6000;0.0920;-0.8199;
483.9000;0.0920;-0.8244;
484.2000;0.0912;-0.8176;
484.5000;0.0895;-0.8176;
484.8000;0.0871;-0.8154;
485.1000;0.0912;-0.8086;
485.4000;0.0798;-0.8403;
485.7000;0.0912;-0.8154;
486.0000;0.0895;-0.8176;
486.3000;0.0912;-0.8199;
486.6000;0.0928;-0.8222;
486.9000;0.0912;-0.8199;
487.2000;0.0887;-0.8222;
487.5000;0.0879;-0.8222;
487.8000;0.0920;-0.8244;
488.1000;0.1001;-0.8018;
488.4000;0.0871;-0.8290;
488.7000;0.0912;-0.8176;
489.0000;0.0895;-0.8244;
489.3000;0.0904;-0.8154;
489.6000;0.0895;-0.8131;
489.9000;0.0904;-0.8131;
490.2000;0.0847;-0.8244;
490.5000;0.0920;-0.7995;
490.8000;0.0895;-0.8040;
491.1000;0.0904;-0.8086;
491.4000;0.0822;-0.8335;
491.7000;0.0798;-0.8335;
492.0000;0.0944;-0.7972;
492.3000;0.0863;-0.8222;
492.6000;0.0895;-0.8222;
492.9000;0.0887;-0.8222;
493.2000;0.0969;-0.8086;
493.5000;0.0879;-0.8335;
493.8000;0.0936;-0.8222;
494.1000;0.0936;-0.8176;
494.4000;0.0920;-0.8199;
494.7000;0.0912;-0.8244;
495.0000;0.0912;-0.8222;
495.3000;0.0887;-0.8312;
495.6000;0.0904;-0.8312;
495.9000;0.0928;-0.8312;
496.2000;0.0928;-0.8335;
496.5000;0.0895;-0.8380;
496.8000;0.0912;-0.8267;
497.1000;0.0912;-0.8312;
497.4000;0.0920;-0.8244;
497.7000;0.0904;-0.8267;
498.0000;0.0928;-0.8176;
498.3000;0.0863;-0.8290;
498.6000;0.0969;-0.8063;
498.9000;0.0912;-0.8244;
499.2000;0.0798;-0.8471;
499.5000;0.0895;-0.8222;
499.8000;0.0814;-0.8425;
500.1000;0.0912;-0.8176;
500.4000;0.0895;-0.8222;
500.7000;0.0969;-0.8108;
501.0000;0.0781;-0.8516;
501.3000;0.0879;-0.8312;
501.6000;0.0936;-0.8222;
501.9000;0.0887;-0.8312;
502.2000;0.0920;-0.8335;
502.5000;0.0920;-0.8335;
502.8000;0.0895;-0.8516;
503.1000;0.0928;-0.8403;
503.4000;0.0928;-0.8425;
503.7000;0.0895;-0.8516;
504.0000;0.0887;-0.8561;
504.3000;0.0887;-0.8539;
504.6000;0.0936;-0.8425;
504.9000;0.0936;-0.8358;
505.2000;0.0912;-0.8425;
505.5000;0.0904;-0.8493;
505.8000;0.0920;-0.8471;
506.1000;0.0928;-0.8403;
506.4000;0.0912;-0.8312;
506.7000;0.0912;-0.8358;
507.0000;0.0936;-0.8335;
507.3000;0.0928;-0.8312;
507.6000;0.0928;-0.8222;
507.9000;0.0912;-0.8222;
508.2000;0.0904;-0.8176;
508.5000;0.0912;-0.8176;
508.8000;0.0904;-0.8131;
509.1000;0.0912;-0.8086;
509.4000;0.0912;-0.8154;
509.7000;0.0904;-0.8176;
510.0000;0.0936;-0.8063;
510.3000;0.0895;-0.8176;
510.6000;0.0887;-0.8154;
510.9000;0.0887;-0.8154;
511.2000;0.0871;-0.8312;
511.5000;0.0895;-0.8154;
511.8000;0.0904;-0.8154;
512.1000;0.0879;-0.8154;
512.4000;0.0879;-0.8154;
512.7000;0.0920;-0.8131;
513.0000;0.0855;-0.8290;
513.3000;0.0920;-0.8086;
513.6000;0.0920;-0.8108;
513.9000;0.0895;-0.8199;
514.2000;0.0920;-0.8267;
514.5000;0.0879;-0.8290;
514.8000;0.0920;-0.8199;
515.1000;0.0904;-0.8290;
515.4000;0.0944;-0.8335;
515.7000;0.0887;-0.8380;
516.0000;0.0912;-0.8380;
516.3000;0.0912;-0.8312;
516.6000;0.0895;-0.8403;
516.9000;0.0912;-0.8290;
517.2000;0.0977;-0.8154;
517.5000;0.0895;-0.8312;
517.8000;0.0904;-0.8267;
518.1000;0.0838;-0.8335;
518.4000;0.0920;-0.8108;
518.7000;0.0928;-0.8108;
519.0000;0.1058;-0.7882;
519.3000;0.0912;-0.8267;
519.6000;0.0920;-0.8358;
519.9000;0.0895;-0.8358;
520.2000;0.0936;-0.8267;
520.5000;0.0928;-0.8312;
520.8000;0.0904;-0.8290;
521.1000;0.0838;-0.8471;
521.4000;0.0912;-0.8335;
521.7000;0.0822;-0.8561;
522.0000;0.0985;-0.8176;
522.3000;0.0920;-0.8358;
522.6000;0.0887;-0.8493;
522.9000;0.0879;-0.8493;
523.2000;0.0871;-0.8403;
523.5000;0.0920;-0.8267;
523.8000;0.0961;-0.8154;
524.1000;0.0871;-0.8335;
524.4000;0.0879;-0.8244;
524.7000;0.0838;-0.8267;
525.0000;0.0912;-0.8199;
525.3000;0.0928;-0.8244;
525.6000;0.0887;-0.8358;
525.9000;0.0895;-0.8335;
526.2000;0.0895;-0.8290;
526.5000;0.0895;-0.8358;
526.8000;0.0920;-0.8380;
527.1000;0.0904;-0.8380;
527.4000;0.0936;-0.8312;
527.7000;0.0887;-0.8471;
528.0000;0.0904;-0.8403;
528.3000;0.0904;-0.8403;
528.6000;0.0912;-0.8403;
528.9000;0.0920;-0.8380;
529.2000;0.0920;-0.8312;
529.5000;0.0904;-0.8290;
529.8000;0.0895;-0.8267;
530.1000;0.0920;-0.8267;
530.4000;0.0904;-0.8290;
530.7000;0.0895;-0.8403;
531.0000;0.0904;-0.8358;
531.3000;0.0887;-0.8358;
531.6000;0.0847;-0.8539;
531.9000;0.0904;-0.8358;
532.2000;0.0904;-0.8335;
532.5000;0.0904;-0.8380;
532.8000;0.0879;-0.8380;
533.1000;0.0912;-0.8267;
533.4000;0.0928;-0.8244;
533.7000;0.0920;-0.8244;
534.0000;0.0920;-0.8267;
534.3000;0.0895;-0.8290;
534.6000;0.0912;-0.8222;
534.9000;0.0912;-0.8267;
535.2000;0.0863;-0.8380;
535.5000;0.0879;-0.8335;
535.8000;0.0879;-0.8335;
536.1000;0.0912;-0.8222;
536.4000;0.0920;-0.8244;
536.7000;0.0920;-0.8358;
537.0000;0.0920;-0.8335;
537.3000;0.0887;-0.8425;
537.6000;0.0895;-0.8380;
537.9000;0.0952;-0.8290;
538.2000;0.0936;-0.8267;
538.5000;0.0871;-0.8380;
538.8000;0.0920;-0.8176;
539.1000;0.0912;-0.8244;
539.4000;0.0936;-0.8199;
539.7000;0.0822;-0.8516;
540.0000;0.0920;-0.8199;
540.3000;0.0928;-0.8176;
540.6000;0.1026;-0.7950;
540.9000;0.0904;-0.8312;
541.2000;0.0830;-0.8539;
541.5000;0.0855;-0.8471;
541.8000;0.0912;-0.8335;
542.1000;0.0952;-0.8312;
542.4000;0.0920;-0.8380;
542.7000;0.0912;-0.8448;
543.0000;0.0855;-0.8607;
543.3000;0.0904;-0.8448;
543.6000;0.0879;-0.8471;
543.9000;0.0920;-0.8312;
544.2000;0.0904;-0.8448;
544.5000;0.0928;-0.8403;
544.8000;0.0944;-0.8403;
545.1000;0.0887;-0.8516;
545.4000;0.0887;-0.8471;
545.7000;0.0895;-0.8448;
546.0000;0.0904;-0.8380;
546.3000;0.0985;-0.8222;
546.6000;0.0895;-0.8448;
546.9000;0.0904;-0.8448;
547.2000;0.0895;-0.8561;
547.5000;0.0895;-0.8561;
547.8000;0.0928;-0.8516;
548.1000;0.0871;-0.8584;
548.4000;0.0904;-0.8539;
548.7000;0.0895;-0.8584;
549.0000;0.0920;-0.8448;
549.3000;0.0847;-0.8516;
549.6000;0.0895;-0.8403;
549.9000;0.0920;-0.8358;
550.2000;0.0847;-0.8584;
550.5000;0.0887;-0.8539;
550.8000;0.0863;-0.8561;
551.1000;0.0871;-0.8584;
551.4000;0.0871;-0.8561;
551.7000;0.0879;-0.8425;
552.0000;0.0904;-0.8448;
552.3000;0.0887;-0.8493;
552.6000;0.0936;-0.8380;
552.9000;0.0879;-0.8584;
553.2000;0.0904;-0.8561;
553.5000;0.0944;-0.8425;
553.8000;0.0895;-0.8493;
554.1000;0.0847;-0.8584;
554.4000;0.0904;-0.8516;
554.7000;0.0895;-0.8561;
555.0000;0.0879;-0.8652;
555.3000;0.0912;-0.8584;
555.6000;0.0920;-0.8675;
555.9000;0.0895;-0.8675;
556.2000;0.0879;-0.8675;
556.5000;0.0904;-0.8743;
556.8000;0.0904;-0.8720;
557.1000;0.0912;-0.8720;
557.4000;0.0904;-0.8607;
557.7000;0.0887;-0.8584;
558.0000;0.0936;-0.8493;
558.3000;0.0855;-0.8652;
558.6000;0.0895;-0.8652;
558.9000;0.0904;-0.8561;
559.2000;0.0912;-0.8607;
559.5000;0.0928;-0.8629;
559.8000;0.0847;-0.8743;
560.1000;0.0920;-0.8652;
560.4000;0.0928;-0.8561;
560.7000;0.0928;-0.8629;
561.0000;0.0887;-0.8607;
561.3000;0.0887;-0.8697;
561.6000;0.0895;-0.8584;
561.9000;0.0838;-0.8743;
562.2000;0.0838;-0.8720;
562.5000;0.0944;-0.8493;
562.8000;0.0895;-0.8652;
563.1000;0.0912;-0.8561;
563.4000;0.0920;-0.8629;
563.7000;0.0969;-0.8584;
564.0000;0.0912;-0.8720;
564.3000;0.0920;-0.8629;
564.6000;0.0904;-0.8675;
564.9000;0.0904;-0.8765;
565.2000;0.1018;-0.8516;
565.5000;0.0912;-0.8743;
565.8000;0.0904;-0.8720;
566.1000;0.0912;-0.8607;
566.4000;0.0920;-0.8561;
566.7000;0.0920;-0.8561;
567.0000;0.0920;-0.8493;
567.3000;0.0920;-0.8493;
567.6000;0.0904;-0.8629;
567.9000;0.0985;-0.8561;
568.2000;0.0912;-0.8720;
568.5000;0.0879;-0.8765;
568.8000;0.0904;-0.8675;
569.1000;0.0920;-0.8607;
569.4000;0.0920;-0.8539;
569.7000;0.0904;-0.8539;
570.0000;0.0871;-0.8584;
570.3000;0.0928;-0.8493;
570.6000;0.0912;-0.8629;
570.9000;0.0871;-0.8652;
571.2000;0.0887;-0.8675;
571.5000;0.0912;-0.8607;
571.8000;0.0928;-0.8516;
572.1000;0.0887;-0.8675;
572.4000;0.0904;-0.8629;
572.7000;0.0904;-0.8697;
573.0000;0.0904;-0.8675;
573.3000;0.0912;-0.8584;
573.6000;0.0920;-0.8607;
573.9000;0.0904;-0.8652;
574.2000;0.0887;-0.8561;
574.5000;0.0879;-0.8584;
574.8000;0.0912;-0.8539;
575.1000;0.0912;-0.8425;
575.4000;0.0912;-0.8493;
575.7000;0.0928;-0.8425;
576.0000;0.0887;-0.8493;
576.3000;0.0887;-0.8403;
576.6000;0.0871;-0.8425;
576.9000;0.0936;-0.8222;
577.2000;0.0912;-0.8267;
577.5000;0.0904;-0.8290;
577.8000;0.0912;-0.8244;
578.1000;0.0904;-0.8335;
578.4000;0.0952;-0.8244;
578.7000;0.0904;-0.8425;
579.0000;0.0895;-0.8471;
579.3000;0.0920;-0.8335;
579.6000;0.1001;-0.8086;
579.9000;0.0879;-0.8471;
580.2000;0.0895;-0.8425;
580.5000;0.0920;-0.8380;
580.8000;0.0904;-0.8425;
581.1000;0.0961;-0.8244;
581.4000;0.0912;-0.8403;
581.7000;0.0904;-0.8425;
582.0000;0.0912;-0.8403;
582.3000;0.0895;-0.8380;
582.6000;0.0887;-0.8403;
582.9000;0.0895;-0.8358;
583.2000;0.0920;-0.8380;
583.5000;0.0895;-0.8471;
583.8000;0.0904;-0.8471;
584.1000;0.0904;-0.8403;
584.4000;0.0895;-0.8448;
584.7000;0.0936;-0.8380;
585.0000;0.0904;-0.8425;
585.3000;0.0912;-0.8312;
585.6000;0.0879;-0.8425;
585.9000;0.0887;-0.8516;
586.2000;0.0912;-0.8493;
586.5000;0.0887;-0.8539;
586.8000;0.0912;-0.8516;
587.1000;0.0912;-0.8448;
587.4000;0.0895;-0.8380;
587.7000;0.0912;-0.8312;
588.0000;0.0871;-0.8425;
588.3000;0.0920;-0.8312;
588.6000;0.0928;-0.8267;
588.9000;0.0920;-0.8335;
589.2000;0.0904;-0.8335;
589.5000;0.0912;-0.8312;
589.8000;0.0904;-0.8403;
590.1000;0.0879;-0.8471;
590.4000;0.0871;-0.8471;
590.7000;0.0904;-0.8290;
591.0000;0.0895;-0.8244;
591.3000;0.0879;-0.8335;
591.6000;0.0895;-0.8358;
591.9000;0.0887;-0.8425;
592.2000;0.0904;-0.8471;
592.5000;0.0855;-0.8516;
592.8000;0.0887;-0.8493;
593.1000;0.0912;-0.8380;
593.4000;0.0912;-0.8335;
593.7000;0.0920;-0.8290;
594.0000;0.0977;-0.8154;
594.3000;0.0961;-0.8154;
594.6000;0.0912;-0.8380;
594.9000;0.0904;-0.8403;
595.2000;0.0879;-0.8380;
595.5000;0.0904;-0.8312;
595.8000;0.0895;-0.8312;
596.1000;0.0904;-0.8358;
596.4000;0.0904;-0.8448;
596.7000;0.0863;-0.8539;
597.0000;0.0887;-0.8471;
597.3000;0.0936;-0.8471;
597.6000;0.0895;-0.8629;
597.9000;0.0887;-0.8675;
598.2000;0.0904;-0.8652;
598.5000;0.0895;-0.8652;
598.8000;0.0895;-0.8561;
599.1000;0.0879;-0.8607;
599.4000;0.0952;-0.8403;
599.7000;0.0904;-0.8493;
600.0000;0.0928;-0.8493;
600.3000;0.0895;-0.8516;
600.6000;0.0879;-0.8675;
600.9000;0.0895;-0.8765;
601.2000;0.0895;-0.8810;
601.5000;0.0912;-0.8856;
601.8000;0.0887;-0.9014;
602.1000;0.0871;-0.9173;
602.4000;0.0887;-0.9241;
602.7000;0.0871;-0.9354;
603.0000;0.0904;-0.9354;
603.3000;0.0895;-0.9490;
603.6000;0.0871;-0.9649;
603.9000;0.0871;-0.9694;
604.2000;0.0863;-0.9671;
604.5000;0.0847;-0.9694;
604.8000;0.0863;-0.9649;
605.1000;0.0855;-0.9784;
605.4000;0.0871;-0.9716;
605.7000;0.0871;-0.9875;
606.0000;0.0822;-0.9988;
606.3000;0.0847;-0.9852;
606.6000;0.0838;-0.9875;
606.9000;0.0814;-0.9830;
607.2000;0.0830;-0.9852;
607.5000;0.0847;-0.9830;
607.8000;0.0855;-0.9852;
608.1000;0.0822;-0.9943;
608.4000;0.0838;-0.9852;
608.7000;0.0838;-0.9852;
609.0000;0.0830;-0.9875;
609.3000;0.0838;-0.9830;
609.6000;0.0847;-0.9830;
609.9000;0.0830;-0.9875;
610.2000;0.0928;-0.9626;
610.5000;0.0814;-0.9898;
610.8000;0.0806;-0.9943;
611.1000;0.0814;-0.9920;
611.4000;0.0741;-1.0101;
611.7000;0.0798;-0.9875;
612.0000;0.0781;-0.9988;
612.3000;0.0806;-0.9875;
612.6000;0.0830;-0.9762;
612.9000;0.0806;-0.9852;
613.2000;0.0822;-0.9784;
613.5000;0.0773;-0.9966;
613.8000;0.0781;-0.9988;
614.1000;0.0855;-0.9852;
614.4000;0.0904;-0.9830;
614.7000;0.0806;-1.0034;
615.0000;0.0920;-0.9671;
615.3000;0.0806;-1.0034;
615.6000;0.0806;-0.9988;
615.9000;0.0806;-1.0034;
616.2000;0.0855;-0.9966;
616.5000;0.0724;-1.0215;
616.8000;0.0798;-1.0079;
617.1000;0.0781;-1.0124;
617.4000;0.0806;-1.0101;
617.7000;0.0790;-1.0124;
618.0000;0.0798;-1.0169;
618.3000;0.0871;-0.9943;
618.6000;0.0806;-1.0011;
618.9000;0.0790;-1.0011;
619.2000;0.0781;-0.9988;
619.5000;0.0912;-0.9716;
619.8000;0.0765;-1.0124;
620.1000;0.0806;-1.0034;
620.4000;0.0830;-1.0011;
620.7000;0.0773;-1.0101;
621.0000;0.0773;-1.0011;
621.3000;0.0790;-0.9852;
621.6000;0.0798;-0.9784;
621.9000;0.0798;-0.9807;
622.2000;0.0790;-0.9739;
622.5000;0.0798;-0.9852;
622.8000;0.0798;-0.9807;
623.1000;0.0806;-0.9898;
623.4000;0.0830;-0.9852;
623.7000;0.0806;-0.9920;
624.0000;0.0806;-0.9852;
624.3000;0.0781;-0.9807;
624.6000;0.0773;-0.9830;
624.9000;0.0708;-0.9988;
625.2000;0.0847;-0.9716;
625.5000;0.0757;-0.9898;
625.8000;0.0838;-0.9694;
626.1000;0.0781;-0.9920;
626.4000;0.0765;-0.9920;
626.7000;0.0781;-0.9898;
627.0000;0.0798;-0.9966;
627.3000;0.0798;-1.0034;
627.6000;0.0790;-0.9988;
627.9000;0.0790;-0.9920;
628.2000;0.0790;-0.9898;
628.5000;0.0790;-0.9920;
628.8000;0.0790;-0.9875;
629.1000;0.0716;-1.0101;
629.4000;0.0757;-0.9988;
629.7000;0.0741;-1.0056;
630.0000;0.0765;-0.9988;
630.3000;0.0863;-0.9807;
630.6000;0.0773;-1.0124;
630.9000;0.0757;-1.0192;
631.2000;0.0781;-1.0101;
631.5000;0.0830;-1.0034;
631.8000;0.0790;-1.0079;
632.1000;0.0757;-1.0147;
632.4000;0.0757;-1.0101;
632.7000;0.0773;-1.0079;
633.0000;0.0765;-1.0034;
633.3000;0.0765;-1.0056;
633.6000;0.0814;-0.9988;
633.9000;0.0798;-1.0011;
634.2000;0.0790;-0.9988;
634.5000;0.0790;-1.0011;
634.8000;0.0790;-1.0056;
635.1000;0.0765;-1.0169;
635.4000;0.0790;-1.0101;
635.7000;0.0814;-1.0056;
636.0000;0.0733;-1.0237;
636.3000;0.0765;-1.0215;
636.6000;0.0765;-1.0260;
636.9000;0.0757;-1.0305;
637.2000;0.0684;-1.0464;
637.5000;0.0871;-1.0011;
637.8000;0.0798;-1.0147;
638.1000;0.0838;-0.9988;
638.4000;0.0798;-1.0056;
638.7000;0.0773;-1.0124;
639.0000;0.0863;-0.9920;
639.3000;0.0790;-1.0101;
639.6000;0.0781;-1.0079;
639.9000;0.0781;-1.0147;
640.2000;0.0749;-1.0260;
640.5000;0.0765;-1.0192;
640.8000;0.0773;-1.0101;
641.1000;0.0798;-1.0034;
641.4000;0.0765;-1.0101;
641.7000;0.0765;-1.0056;
642.0000;0.0773;-0.9943;
642.3000;0.0781;-0.9920;
642.6000;0.0757;-0.9966;
642.9000;0.0773;-0.9966;
643.2000;0.0790;-0.9898;
643.5000;0.0773;-0.9898;
643.8000;0.0749;-0.9898;
644.1000;0.0765;-0.9898;
644.4000;0.0757;-0.9966;
644.7000;0.0781;-0.9898;
645.0000;0.0757;-1.0034;
645.3000;0.0757;-1.0079;
645.6000;0.0757;-1.0124;
645.9000;0.0773;-1.0101;
646.2000;0.0757;-1.0124;
646.5000;0.0822;-0.9875;
646.8000;0.0765;-0.9988;
647.1000;0.0806;-0.9898;
647.4000;0.0749;-1.0011;
647.7000;0.0724;-1.0101;
648.0000;0.0773;-1.0011;
648.3000;0.0773;-1.0011;
648.6000;0.0700;-1.0192;
648.9000;0.0790;-0.9966;
649.2000;0.0773;-1.0034;
649.5000;0.0692;-1.0169;
649.8000;0.0741;-1.0079;
650.1000;0.0708;-1.0169;
650.4000;0.0733;-1.0079;
650.7000;0.0765;-0.9943;
651.0000;0.0700;-1.0124;
651.3000;0.0749;-1.0034;
651.6000;0.0741;-1.0034;
651.9000;0.0781;-0.9966;
652.2000;0.0773;-0.9920;
652.5000;0.0741;-1.0147;
652.8000;0.0757;-1.0101;
653.1000;0.0749;-1.0124;
653.4000;0.0765;-1.0034;
653.7000;0.0757;-0.9943;
654.0000;0.0773;-1.0034;
654.3000;0.0733;-1.0215;
654.6000;0.0847;-1.0011;
654.9000;0.0773;-1.0169;
655.2000;0.0781;-1.0056;
655.5000;0.0716;-1.0260;
655.8000;0.0765;-1.0056;
656.1000;0.0757;-1.0034;
656.4000;0.0822;-0.9898;
656.7000;0.0741;-1.0011;
657.0000;0.0757;-0.9920;
657.3000;0.0749;-0.9830;
657.6000;0.0741;-0.9875;
657.9000;0.0724;-0.9920;
658.2000;0.0781;-0.9830;
658.5000;0.0798;-0.9784;
658.8000;0.0741;-0.9898;
659.1000;0.0814;-0.9784;
659.4000;0.0773;-0.9920;
659.7000;0.0765;-1.0011;
660.0000;0.0765;-1.0011;
660.3000;0.0773;-1.0079;
660.6000;0.0781;-1.0056;
660.9000;0.0765;-1.0011;
661.2000;0.0749;-1.0011;
661.5000;0.0765;-1.0034;
661.8000;0.0741;-1.0101;
662.1000;0.0635;-1.0509;
662.4000;0.0765;-1.0283;
662.7000;0.0733;-1.0373;
663.0000;0.0790;-1.0283;
663.3000;0.0781;-1.0305;
663.6000;0.0724;-1.0419;
663.9000;0.0790;-1.0192;
664.2000;0.0741;-1.0260;
664.5000;0.0749;-1.0237;
664.8000;0.0757;-1.0237;
665.1000;0.0773;-1.0079;
665.4000;0.0757;-1.0034;
665.7000;0.0733;-1.0079;
666.0000;0.0790;-0.9920;
666.3000;0.0765;-0.9966;
666.6000;0.0741;-1.0034;
666.9000;0.0773;-0.9988;
667.2000;0.0749;-1.0034;
667.5000;0.0741;-1.0079;
667.8000;0.0773;-0.9875;
668.1000;0.0692;-1.0011;
668.4000;0.0781;-0.9807;
668.7000;0.0741;-1.0011;
669.0000;0.0757;-0.9943;
669.3000;0.0781;-0.9943;
669.6000;0.0773;-0.9943;
669.9000;0.0757;-0.9920;
670.2000;0.0757;-0.9920;
670.5000;0.0806;-0.9716;
670.8000;0.0749;-0.9875;
671.1000;0.0757;-0.9807;
671.4000;0.0741;-0.9898;
671.7000;0.0741;-0.9943;
672.0000;0.0781;-0.9852;
672.3000;0.0798;-0.9807;
672.6000;0.0708;-1.0079;
672.9000;0.0757;-1.0034;
673.2000;0.0765;-0.9988;
673.5000;0.0667;-1.0260;
673.8000;0.0741;-0.9988;
674.1000;0.0749;-1.0034;
674.4000;0.0781;-0.9920;
674.7000;0.0749;-1.0011;
675.0000;0.0781;-0.9988;
675.3000;0.0822;-0.9943;
675.6000;0.0757;-1.0124;
675.9000;0.0757;-1.0034;
676.2000;0.0765;-0.9943;
676.5000;0.0733;-1.0079;
676.8000;0.0749;-1.0056;
677.1000;0.0765;-0.9988;
677.4000;0.0757;-1.0034;
677.7000;0.0765;-1.0034;
678.0000;0.0765;-1.0056;
678.3000;0.0716;-1.0147;
678.6000;0.0773;-0.9966;
678.9000;0.0765;-0.9898;
679.2000;0.0741;-0.9875;
679.5000;0.0773;-0.9784;
679.8000;0.0765;-0.9807;
680.1000;0.0757;-0.9920;
680.4000;0.0651;-1.0192;
680.7000;0.0667;-1.0192;
681.0000;0.0749;-0.9966;
681.3000;0.0757;-0.9988;
681.6000;0.0757;-0.9966;
681.9000;0.0757;-0.9988;
682.2000;0.0749;-0.9920;
682.5000;0.0757;-0.9920;
682.8000;0.0765;-0.9852;
683.1000;0.0741;-0.9852;
683.4000;0.0741;-0.9852;
683.7000;0.0724;-0.9966;
684.0000;0.0757;-0.9875;
684.3000;0.0773;-0.9852;
684.6000;0.0781;-0.9852;
684.9000;0.0765;-0.9830;
685.2000;0.0806;-0.9807;
685.5000;0.0757;-0.9898;
685.8000;0.0741;-0.9875;
686.1000;0.0741;-0.9762;
686.4000;0.0765;-0.9784;
686.7000;0.0757;-0.9875;
687.0000;0.0765;-0.9852;
687.3000;0.0684;-1.0056;
687.6000;0.0757;-0.9875;
687.9000;0.0724;-0.9943;
688.2000;0.0765;-0.9852;
688.5000;0.0749;-0.9988;
688.8000;0.0806;-0.9784;
689.1000;0.0765;-0.9898;
689.4000;0.0781;-0.9920;
689.7000;0.0741;-0.9988;
690.0000;0.0765;-0.9898;
690.3000;0.0773;-0.9875;
690.6000;0.0741;-0.9852;
690.9000;0.0741;-0.9852;
691.2000;0.0724;-0.9852;
691.5000;0.0733;-0.9898;
691.8000;0.0733;-0.9943;
692.1000;0.0741;-0.9830;
692.4000;0.0749;-0.9807;
692.7000;0.0676;-1.0034;
693.0000;0.0757;-0.9875;
693.3000;0.0733;-0.9966;
693.6000;0.0773;-0.9875;
693.9000;0.0749;-0.9920;
694.2000;0.0765;-0.9943;
694.5000;0.0692;-1.0101;
694.8000;0.0838;-0.9739;
695.1000;0.0863;-0.9716;
695.4000;0.0741;-0.9943;
695.7000;0.0781;-0.9807;
696.0000;0.0773;-0.9830;
696.3000;0.0757;-0.9807;
696.6000;0.0765;-0.9762;
696.9000;0.0749;-0.9784;
697.2000;0.0765;-0.9762;
697.5000;0.0733;-0.9830;
697.8000;0.0749;-0.9784;
698.1000;0.0781;-0.9739;
698.4000;0.0741;-0.9830;
698.7000;0.0757;-0.9784;
699.0000;0.0749;-0.9852;
699.3000;0.0781;-0.9739;
699.6000;0.0741;-0.9852;
699.9000;0.0749;-0.9852;
700.2000;0.0773;-0.9852;
700.5000;0.0757;-0.9898;
700.8000;0.0765;-0.9920;
701.1000;0.0790;-0.9784;
701.4000;0.0773;-0.9784;
701.7000;0.0741;-0.9875;
702.0000;0.0733;-0.9966;
702.3000;0.0749;-0.9966;
702.6000;0.0757;-0.9898;
702.9000;0.0781;-0.9807;
703.2000;0.0749;-0.9830;
703.5000;0.0741;-0.9852;
703.8000;0.0716;-0.9830;
704.1000;0.0749;-0.9830;
704.4000;0.0781;-0.9694;
704.7000;0.0887;-0.9467;
705.0000;0.0684;-0.9988;
705.3000;0.0847;-0.9558;
705.6000;0.0904;-0.9399;
705.9000;0.0733;-0.9875;
706.2000;0.0733;-0.9920;
706.5000;0.0757;-0.9920;
706.8000;0.0749;-1.0034;
707.1000;0.0790;-0.9875;
707.4000;0.0781;-0.9875;
707.7000;0.0749;-0.9875;
708.0000;0.0749;-0.9807;
708.3000;0.0757;-0.9830;
708.6000;0.0741;-0.9898;
708.9000;0.0733;-0.9943;
709.2000;0.0741;-0.9920;
709.5000;0.0741;-0.9898;
709.8000;0.0757;-0.9807;
710.1000;0.0773;-0.9807;
710.4000;0.0667;-1.0124;
710.7000;0.0733;-0.9943;
711.0000;0.0733;-0.9898;
711.3000;0.0757;-0.9898;
711.6000;0.0798;-0.9716;
711.9000;0.0733;-0.9943;
712.2000;0.0741;-0.9920;
712.5000;0.0692;-1.0034;
712.8000;0.0757;-0.9852;
713.1000;0.0749;-0.9898;
713.4000;0.0757;-0.9875;
713.7000;0.0749;-0.9920;
714.0000;0.0757;-0.9943;
714.3000;0.0798;-0.9784;
714.6000;0.0757;-0.9966;
714.9000;0.0749;-0.9943;
715.2000;0.0733;-0.9898;
715.5000;0.0733;-0.9830;
715.8000;0.0724;-0.9875;
716.1000;0.0741;-0.9852;
716.4000;0.0781;-0.9762;
716.7000;0.0708;-0.9875;
717.0000;0.0749;-0.9784;
717.3000;0.0757;-0.9807;
717.6000;0.0733;-0.9875;
717.9000;0.0594;-1.0215;
718.2000;0.0741;-0.9807;
718.5000;0.0773;-0.9694;
718.8000;0.0765;-0.9649;
719.1000;0.0749;-0.9671;
719.4000;0.0765;-0.9671;
719.7000;0.0700;-0.9943;
720.0000;0.0741;-0.9920;
720.3000;0.0757;-0.9852;
720.6000;0.0765;-0.9898;
720.9000;0.0765;-0.9966;
721.2000;0.0708;-1.0101;
721.5000;0.0724;-1.0011;
721.8000;0.0757;-0.9920;
722.1000;0.0749;-0.9966;
722.4000;0.0749;-0.9920;
722.7000;0.0724;-0.9966;
723.0000;0.0741;-0.9830;
723.3000;0.0879;-0.9558;
723.6000;0.0781;-0.9784;
723.9000;0.0757;-0.9875;
724.2000;0.0830;-0.9603;
724.5000;0.0773;-0.9807;
724.8000;0.0741;-0.9920;
725.1000;0.0741;-0.9920;
725.4000;0.0700;-1.0079;
725.7000;0.0765;-0.9966;
726.0000;0.0749;-0.9920;
726.3000;0.0814;-0.9739;
726.6000;0.0838;-0.9694;
726.9000;0.0741;-0.9920;
727.2000;0.0741;-0.9875;
727.5000;0.0757;-0.9875;
727.8000;0.0733;-0.9852;
728.1000;0.0773;-0.9739;
728.4000;0.0773;-0.9716;
728.7000;0.0741;-0.9762;
729.0000;0.0708;-0.9807;
729.3000;0.0765;-0.9626;
729.6000;0.0741;-0.9671;
729.9000;0.0765;-0.9558;
730.2000;0.0684;-0.9739;
730.5000;0.0765;-0.9513;
730.8000;0.0741;-0.9649;
731.1000;0.0798;-0.9513;
731.4000;0.0733;-0.9603;
731.7000;0.0749;-0.9626;
732.0000;0.0667;-0.9762;
732.3000;0.0716;-0.9558;
732.6000;0.0757;-0.9399;
732.9000;0.0733;-0.9490;
733.2000;0.0741;-0.9535;
733.5000;0.0724;-0.9558;
733.8000;0.0757;-0.9513;
734.1000;0.0716;-0.9694;
734.4000;0.0692;-0.9875;
734.7000;0.0749;-0.9807;
735.0000;0.0733;-0.9898;
735.3000;0.0741;-0.9830;
735.6000;0.0757;-0.9807;
735.9000;0.0741;-0.9807;
736.2000;0.0741;-0.9852;
736.5000;0.0749;-0.9920;
736.8000;0.0781;-0.9898;
737.1000;0.0765;-0.9898;
737.4000;0.0700;-1.0034;
737.7000;0.0757;-0.9830;
738.0000;0.0741;-0.9830;
738.3000;0.0765;-0.9807;
738.6000;0.0733;-0.9830;
738.9000;0.0749;-0.9716;
739.2000;0.0757;-0.9694;
739.5000;0.0741;-0.9762;
739.8000;0.0700;-0.9852;
740.1000;0.0757;-0.9694;
740.4000;0.0757;-0.9694;
740.7000;0.0781;-0.9626;
741.0000;0.0724;-0.9739;
741.3000;0.0716;-0.9762;
741.6000;0.0692;-0.9784;
741.9000;0.0749;-0.9694;
742.2000;0.0741;-0.9762;
742.5000;0.0757;-0.9694;
742.8000;0.0814;-0.9513;
743.1000;0.0749;-0.9558;
743.4000;0.0781;-0.9513;
743.7000;0.0741;-0.9649;
744.0000;0.0781;-0.9626;
744.3000;0.0741;-0.9762;
744.6000;0.0741;-0.9830;
744.9000;0.0757;-0.9739;
745.2000;0.0749;-0.9739;
745.5000;0.0749;-0.9784;
745.8000;0.0716;-0.9898;
746.1000;0.0887;-0.9535;
746.4000;0.0741;-0.9875;
746.7000;0.0765;-0.9830;
747.0000;0.0741;-0.9830;
747.3000;0.0765;-0.9762;
747.6000;0.0635;-1.0034;
747.9000;0.0749;-0.9739;
748.2000;0.0716;-0.9875;
748.5000;0.0733;-0.9898;
748.8000;0.0724;-0.9898;
749.1000;0.0765;-0.9852;
749.4000;0.0733;-1.0034;
749.7000;0.0749;-0.9943;
750.0000;0.0757;-0.9988;
750.3000;0.0773;-0.9920;
750.6000;0.0651;-1.0147;
750.9000;0.0741;-0.9875;
751.2000;0.0676;-0.9966;
751.5000;0.0757;-0.9694;
751.8000;0.0733;-0.9830;
752.1000;0.0765;-0.9671;
752.4000;0.0741;-0.9694;
752.7000;0.0749;-0.9694;
753.0000;0.0741;-0.9852;
753.3000;0.0790;-0.9649;
753.6000;0.0684;-0.9898;
753.9000;0.0724;-0.9762;
754.2000;0.0741;-0.9716;
754.5000;0.0659;-0.9988;
754.8000;0.0749;-0.9739;
755.1000;0.0667;-0.9943;
755.4000;0.0708;-0.9988;
755.7000;0.0749;-0.9830;
756.0000;0.0741;-0.9898;
756.3000;0.0724;-0.9852;
756.6000;0.0741;-0.9830;
756.9000;0.0741;-0.9875;
757.2000;0.0724;-0.9898;
757.5000;0.0659;-0.9920;
757.8000;0.0733;-0.9739;
758.1000;0.0708;-0.9830;
758.4000;0.0757;-0.9694;
758.7000;0.0724;-0.9784;
759.0000;0.0741;-0.9784;
759.3000;0.0806;-0.9739;
759.6000;0.0749;-0.9784;
759.9000;0.0724;-0.9920;
760.2000;0.0757;-0.9762;
760.5000;0.0765;-0.9739;
760.8000;0.0741;-0.9807;
761.1000;0.0741;-0.9875;
761.4000;0.0765;-0.9852;
761.7000;0.0749;-0.9898;
762.0000;0.0724;-0.9966;
762.3000;0.0765;-0.9852;
762.6000;0.0733;-0.9966;
762.9000;0.0757;-0.9830;
763.2000;0.0741;-0.9875;
763.5000;0.0724;-0.9920;
763.8000;0.0757;-0.9784;
764.1000;0.0749;-0.9830;
764.4000;0.0716;-0.9852;
764.7000;0.0741;-0.9852;
765.0000;0.0749;-0.9875;
765.3000;0.0733;-0.9784;
765.6000;0.0716;-0.9852;
765.9000;0.0716;-0.9807;
766.2000;0.0757;-0.9694;
766.5000;0.0798;-0.9603;
766.8000;0.0733;-0.9784;
767.1000;0.0757;-0.9807;
767.4000;0.0814;-0.9626;
767.7000;0.0741;-0.9875;
768.0000;0.0798;-0.9784;
768.3000;0.0716;-0.9943;
768.6000;0.0757;-0.9852;
768.9000;0.0749;-0.9943;
769.2000;0.0757;-0.9943;
769.5000;0.0790;-0.9784;
769.8000;0.0692;-0.9943;
770.1000;0.0773;-0.9762;
770.4000;0.0773;-0.9739;
770.7000;0.0716;-0.9966;
771.0000;0.0716;-0.9875;
771.3000;0.0716;-1.0011;
771.6000;0.0700;-1.0079;
771.9000;0.0716;-0.9988;
772.2000;0.0684;-1.0056;
772.5000;0.0635;-1.0192;
772.8000;0.0749;-0.9966;
773.1000;0.0741;-0.9988;
773.4000;0.0757;-0.9830;
773.7000;0.0724;-0.9898;
774.0000;0.0749;-0.9830;
774.3000;0.0781;-0.9784;
774.6000;0.0790;-0.9807;
774.9000;0.0757;-0.9920;
775.2000;0.0757;-0.9920;
775.5000;0.0724;-0.9966;
775.8000;0.0741;-0.9920;
776.1000;0.0741;-0.9920;
776.4000;0.0724;-1.0011;
776.7000;0.0733;-0.9966;
777.0000;0.0724;-0.9966;
777.3000;0.0741;-0.9988;
777.6000;0.0676;-1.0101;
777.9000;0.0741;-0.9920;
778.2000;0.0708;-0.9988;
778.5000;0.0724;-0.9966;
778.8000;0.0708;-0.9966;
779.1000;0.0733;-0.9966;
779.4000;0.0749;-0.9943;
779.7000;0.0741;-0.9898;
780.0000;0.0741;-0.9898;
780.3000;0.0741;-0.9920;
780.6000;0.0749;-0.9898;
780.9000;0.0749;-0.9875;
781.2000;0.0724;-0.9852;
781.5000;0.0716;-0.9852;
781.8000;0.0749;-0.9762;
782.1000;0.0741;-0.9762;
782.4000;0.0733;-0.9807;
782.7000;0.0749;-0.9762;
783.0000;0.0741;-0.9784;
783.3000;0.0757;-0.9762;
783.6000;0.0708;-0.9852;
783.9000;0.0741;-0.9852;
784.2000;0.0741;-0.9830;
784.5000;0.0749;-0.9875;
784.8000;0.0773;-0.9784;
785.1000;0.0757;-0.9898;
785.4000;0.0733;-0.9920;
785.7000;0.0741;-0.9898;
786.0000;0.0749;-0.9875;
786.3000;0.0749;-0.9830;
786.6000;0.0659;-1.0056;
786.9000;0.0708;-0.9898;
787.2000;0.0716;-0.9943;
787.5000;0.0806;-0.9875;
787.8000;0.0749;-0.9988;
788.1000;0.0749;-0.9988;
788.4000;0.0806;-0.9875;
788.7000;0.0741;-1.0079;
789.0000;0.0749;-0.9988;
789.3000;0.0749;-0.9966;
789.6000;0.0773;-0.9966;
789.9000;0.0765;-0.9966;
790.2000;0.0733;-0.9988;
790.5000;0.0765;-0.9920;
790.8000;0.0773;-0.9898;
791.1000;0.0733;-1.0034;
791.4000;0.0708;-1.0124;
791.7000;0.0757;-0.9852;
792.0000;0.0887;-0.9422;
792.3000;0.0741;-0.9852;
792.6000;0.0741;-0.9739;
792.9000;0.0749;-0.9739;
793.2000;0.0733;-0.9807;
793.5000;0.0741;-0.9830;
793.8000;0.0741;-0.9875;
794.1000;0.0692;-0.9966;
794.4000;0.0749;-0.9830;
794.7000;0.0741;-0.9875;
795.0000;0.0757;-0.9807;
795.3000;0.0741;-0.9943;
795.6000;0.0773;-0.9920;
795.9000;0.0781;-0.9784;
796.2000;0.0749;-0.9762;
796.5000;0.0733;-0.9807;
796.8000;0.0724;-0.9762;
797.1000;0.0586;-1.0056;
797.4000;0.0749;-0.9762;
797.7000;0.0741;-0.9852;
798.0000;0.0741;-0.9920;
798.3000;0.0757;-0.9830;
798.6000;0.0733;-0.9852;
798.9000;0.0724;-0.9784;
799.2000;0.0749;-0.9649;
799.5000;0.0765;-0.9603;
799.8000;0.0611;-0.9943;
800.1000;0.0716;-0.9807;
800.4000;0.0757;-0.9694;
800.7000;0.0602;-1.0079;
801.0000;0.0741;-0.9784;
801.3000;0.0741;-0.9830;
801.6000;0.0757;-0.9830;
801.9000;0.0716;-0.9898;
802.2000;0.0733;-0.9830;
802.5000;0.0708;-0.9830;
802.8000;0.0741;-0.9807;
803.1000;0.0749;-0.9739;
803.4000;0.0724;-0.9830;
803.7000;0.0724;-0.9898;
804.0000;0.0749;-0.9784;
804.3000;0.0741;-0.9807;
804.6000;0.0733;-0.9807;
804.9000;0.0781;-0.9807;
805.2000;0.0741;-0.9943;
805.5000;0.0757;-0.9943;
805.8000;0.0659;-1.0101;
806.1000;0.0749;-0.9784;
806.4000;0.0733;-0.9852;
806.7000;0.0741;-0.9784;
807.0000;0.0757;-0.9762;
807.3000;0.0716;-0.9920;
807.6000;0.0724;-0.9875;
807.9000;0.0724;-0.9966;
808.2000;0.0757;-0.9898;
808.5000;0.0733;-0.9988;
808.8000;0.0773;-0.9762;
809.1000;0.0724;-0.9898;
809.4000;0.0741;-0.9875;
809.7000;0.0741;-0.9920;
810.0000;0.0733;-0.9830;
810.3000;0.0733;-0.9830;
810.6000;0.0724;-0.9875;
810.9000;0.0716;-0.9943;
811.2000;0.0741;-0.9898;
811.5000;0.0806;-0.9762;
811.8000;0.0741;-0.9875;
812.1000;0.0773;-0.9875;
812.4000;0.0733;-0.9966;
812.7000;0.0733;-0.9920;
813.0000;0.0733;-0.9898;
813.3000;0.0741;-0.9852;
813.6000;0.0684;-0.9988;
813.9000;0.0749;-0.9852;
814.2000;0.0692;-1.0124;
814.5000;0.0724;-0.9966;
814.8000;0.0749;-0.9898;
815.1000;0.0700;-1.0011;
815.4000;0.0708;-0.9920;
815.7000;0.0749;-0.9830;
816.0000;0.0749;-0.9830;
816.3000;0.0790;-0.9739;
816.6000;0.0749;-0.9875;
816.9000;0.0741;-0.9852;
817.2000;0.0724;-0.9875;
817.5000;0.0749;-0.9784;
817.8000;0.0659;-1.0011;
818.1000;0.0716;-0.9898;
818.4000;0.0716;-0.9943;
818.7000;0.0749;-0.9852;
819.0000;0.0781;-0.9807;
819.3000;0.0700;-1.0034;
819.6000;0.0724;-1.0034;
819.9000;0.0733;-1.0079;
820.2000;0.0830;-0.9739;
820.5000;0.0749;-0.9875;
820.8000;0.0757;-0.9784;
821.1000;0.0822;-0.9671;
821.4000;0.0733;-0.9898;
821.7000;0.0733;-0.9830;
822.0000;0.0643;-0.9966;
822.3000;0.0757;-0.9694;
822.6000;0.0724;-0.9671;
822.9000;0.0700;-0.9671;
823.2000;0.0684;-0.9784;
823.5000;0.0724;-0.9626;
823.8000;0.0741;-0.9603;
824.1000;0.0667;-0.9852;
824.4000;0.0757;-0.9603;
824.7000;0.0749;-0.9649;
825.0000;0.0757;-0.9649;
825.3000;0.0724;-0.9739;
825.6000;0.0716;-0.9807;
825.9000;0.0733;-0.9784;
826.2000;0.0822;-0.9649;
826.5000;0.0733;-0.9852;
826.8000;0.0765;-0.9807;
827.1000;0.0724;-0.9943;
827.4000;0.0757;-0.9830;
827.7000;0.0733;-0.9943;
828.0000;0.0741;-0.9875;
828.3000;0.0757;-0.9807;
828.6000;0.0724;-0.9852;
828.9000;0.0798;-0.9671;
829.2000;0.0749;-0.9739;
829.5000;0.0822;-0.9467;
829.8000;0.0733;-0.9852;
830.1000;0.0781;-0.9739;
830.4000;0.0749;-0.9966;
830.7000;0.0741;-0.9988;
831.0000;0.0781;-0.9920;
831.3000;0.0765;-0.9966;
831.6000;0.0733;-0.9943;
831.9000;0.0724;-0.9852;
832.2000;0.0765;-0.9762;
832.5000;0.0749;-0.9671;
832.8000;0.0749;-0.9739;
833.1000;0.0716;-0.9830;
833.4000;0.0733;-0.9784;
833.7000;0.0757;-0.9626;
834.0000;0.0757;-0.9581;
834.3000;0.0765;-0.9513;
834.6000;0.0757;-0.9513;
834.9000;0.0757;-0.9422;
835.2000;0.0749;-0.9467;
835.5000;0.0757;-0.9513;
835.8000;0.0741;-0.9581;
836.1000;0.0749;-0.9581;
836.4000;0.0708;-0.9762;
836.7000;0.0741;-0.9807;
837.0000;0.0733;-0.9898;
837.3000;0.0733;-0.9898;
837.6000;0.0708;-0.9943;
837.9000;0.0749;-0.9807;
838.2000;0.0692;-1.0011;
838.5000;0.0741;-0.9784;
838.8000;0.0765;-0.9716;
839.1000;0.0765;-0.9649;
839.4000;0.0765;-0.9649;
839.7000;0.0733;-0.9694;
840.0000;0.0741;-0.9581;
840.3000;0.0733;-0.9671;
840.6000;0.0781;-0.9581;
840.9000;0.0716;-0.9739;
841.2000;0.0716;-0.9739;
841.5000;0.0749;-0.9649;
841.8000;0.0724;-0.9739;
842.1000;0.0733;-0.9784;
842.4000;0.0765;-0.9784;
842.7000;0.0765;-0.9716;
843.0000;0.0757;-0.9762;
843.3000;0.0757;-0.9784;
843.6000;0.0814;-0.9649;
843.9000;0.0749;-0.9852;
844.2000;0.0749;-0.9694;
844.5000;0.0733;-0.9671;
844.8000;0.0724;-0.9671;
845.1000;0.0749;-0.9626;
845.4000;0.0757;-0.9626;
845.7000;0.0830;-0.9445;
846.0000;0.0692;-0.9762;
846.3000;0.0765;-0.9626;
846.6000;0.0855;-0.9354;
846.9000;0.0749;-0.9649;
847.2000;0.0724;-0.9649;
847.5000;0.0700;-0.9626;
847.8000;0.0757;-0.9558;
848.1000;0.0757;-0.9603;
848.4000;0.0822;-0.9558;
848.7000;0.0749;-0.9762;
849.0000;0.0741;-0.9694;
849.3000;0.0741;-0.9694;
849.6000;0.0708;-0.9852;
849.9000;0.0733;-0.9762;
850.2000;0.0838;-0.9467;
850.5000;0.0814;-0.9422;
850.8000;0.0798;-0.9513;
851.1000;0.0733;-0.9739;
851.4000;0.0749;-0.9784;
851.7000;0.0667;-1.0034;
852.0000;0.0716;-0.9988;
852.3000;0.0814;-0.9716;
852.6000;0.0733;-0.9898;
852.9000;0.0822;-0.9739;
853.2000;0.0741;-0.9966;
853.5000;0.0781;-0.9852;
853.8000;0.0724;-0.9966;
854.1000;0.0749;-0.9920;
854.4000;0.0765;-0.9875;
854.7000;0.0741;-0.9875;
855.0000;0.0733;-0.9762;
855.3000;0.0749;-0.9694;
855.6000;0.0733;-0.9671;
855.9000;0.0773;-0.9694;
856.2000;0.0733;-0.9830;
856.5000;0.0798;-0.9649;
856.8000;0.0749;-0.9762;
857.1000;0.0741;-0.9694;
857.4000;0.0716;-0.9739;
857.7000;0.0757;-0.9671;
858.0000;0.0733;-0.9784;
858.3000;0.0741;-0.9739;
858.6000;0.0790;-0.9603;
858.9000;0.0895;-0.9331;
859.2000;0.0757;-0.9558;
859.5000;0.0855;-0.9377;
859.8000;0.0790;-0.9558;
860.1000;0.0651;-0.9943;
860.4000;0.0724;-0.9762;
860.7000;0.0773;-0.9739;
861.0000;0.0741;-0.9920;
861.3000;0.0724;-0.9966;
861.6000;0.0838;-0.9716;
861.9000;0.0741;-0.9920;
862.2000;0.0887;-0.9467;
862.5000;0.0757;-0.9694;
862.8000;0.0676;-0.9875;
863.1000;0.0765;-0.9603;
863.4000;0.0716;-0.9716;
863.7000;0.0781;-0.9535;
864.0000;0.0765;-0.9535;
864.3000;0.0733;-0.9558;
864.6000;0.0684;-0.9694;
864.9000;0.0814;-0.9377;
865.2000;0.0741;-0.9558;
865.5000;0.0749;-0.9558;
865.8000;0.0733;-0.9626;
866.1000;0.0749;-0.9649;
866.4000;0.0773;-0.9603;
866.7000;0.0676;-0.9920;
867.0000;0.0749;-0.9603;
867.3000;0.0773;-0.9558;
867.6000;0.0733;-0.9649;
867.9000;0.0716;-0.9739;
868.2000;0.0741;-0.9739;
868.5000;0.0790;-0.9558;
868.8000;0.0724;-0.9671;
869.1000;0.0855;-0.9331;
869.4000;0.0790;-0.9558;
869.7000;0.0814;-0.9535;
870.0000;0.0716;-0.9739;
870.3000;0.0741;-0.9649;
870.6000;0.0765;-0.9626;
870.9000;0.0708;-0.9852;
871.2000;0.0733;-0.9807;
871.5000;0.0716;-0.9852;
871.8000;0.0733;-0.9875;
872.1000;0.0749;-0.9784;
872.4000;0.0733;-0.9807;
872.7000;0.0765;-0.9649;
873.0000;0.0741;-0.9739;
873.3000;0.0765;-0.9671;
873.6000;0.0757;-0.9626;
873.9000;0.0570;-1.0124;
874.2000;0.0757;-0.9762;
874.5000;0.0733;-0.9830;
874.8000;0.0757;-0.9920;
875.1000;0.0724;-0.9988;
875.4000;0.0733;-0.9875;
875.7000;0.0781;-0.9739;
876.0000;0.0757;-0.9875;
876.3000;0.0692;-0.9920;
876.6000;0.0741;-0.9830;
876.9000;0.0781;-0.9626;
877.2000;0.0741;-0.9694;
877.5000;0.0716;-0.9716;
877.8000;0.0733;-0.9671;
878.1000;0.0733;-0.9626;
878.4000;0.0724;-0.9603;
878.7000;0.0741;-0.9558;
879.0000;0.0757;-0.9535;
879.3000;0.0716;-0.9603;
879.6000;0.0838;-0.9286;
879.9000;0.0749;-0.9490;
880.2000;0.0741;-0.9513;
880.5000;0.0651;-0.9762;
880.8000;0.0724;-0.9603;
881.1000;0.0814;-0.9377;
881.4000;0.0741;-0.9535;
881.7000;0.0757;-0.9535;
882.0000;0.0773;-0.9558;
882.3000;0.0724;-0.9716;
882.6000;0.0741;-0.9716;
882.9000;0.0749;-0.9649;
883.2000;0.0733;-0.9603;
883.5000;0.0749;-0.9490;
883.8000;0.0741;-0.9558;
884.1000;0.0716;-0.9603;
884.4000;0.0830;-0.9354;
884.7000;0.0733;-0.9716;
885.0000;0.0733;-0.9603;
885.3000;0.0716;-0.9671;
885.6000;0.0611;-0.9875;
885.9000;0.0741;-0.9603;
886.2000;0.0733;-0.9739;
886.5000;0.0724;-0.9784;
886.8000;0.0733;-0.9875;
887.1000;0.0765;-0.9762;
887.4000;0.0708;-0.9830;
887.7000;0.0733;-0.9830;
888.0000;0.0716;-0.9852;
888.3000;0.0741;-0.9784;
888.6000;0.0749;-0.9762;
888.9000;0.0741;-0.9762;
889.2000;0.0716;-0.9875;
889.5000;0.0741;-0.9671;
889.8000;0.0749;-0.9649;
890.1000;0.0749;-0.9649;
890.4000;0.0822;-0.9445;
890.7000;0.0757;-0.9671;
891.0000;0.0741;-0.9626;
891.3000;0.0684;-0.9784;
891.6000;0.0692;-0.9716;
891.9000;0.0733;-0.9558;
892.2000;0.0733;-0.9558;
892.5000;0.0724;-0.9558;
892.8000;0.0749;-0.9467;
893.1000;0.0733;-0.9535;
893.4000;0.0602;-0.9852;
893.7000;0.0724;-0.9671;
894.0000;0.0741;-0.9716;
894.3000;0.0781;-0.9694;
894.6000;0.0733;-0.9762;
894.9000;0.0749;-0.9626;
895.2000;0.0708;-0.9784;
895.5000;0.0667;-0.9966;
895.8000;0.0724;-0.9716;
896.1000;0.0765;-0.9716;
896.4000;0.0741;-0.9762;
896.7000;0.0733;-0.9784;
897.0000;0.0757;-0.9716;
897.3000;0.0724;-0.9762;
897.6000;0.0716;-0.9716;
897.9000;0.0733;-0.9716;
898.2000;0.0716;-0.9716;
898.5000;0.0749;-0.9739;
898.8000;0.0741;-0.9830;
899.1000;0.0741;-0.9784;
899.4000;0.0798;-0.9558;
899.7000;0.0757;-0.9716;
900.0000;0.0741;-0.9694;
900.3000;0.0733;-0.9671;
900.6000;0.0716;-0.9830;
900.9000;0.0741;-0.9762;
901.2000;0.0749;-0.9694;
901.5000;0.0757;-0.9716;
901.8000;0.0733;-0.9739;
902.1000;0.0765;-0.9603;
902.4000;0.0741;-0.9671;
902.7000;0.0716;-0.9716;
903.0000;0.0733;-0.9649;
903.3000;0.0749;-0.9603;
903.6000;0.0904;-0.9241;
903.9000;0.0741;-0.9626;
904.2000;0.0733;-0.9626;
904.5000;0.0676;-0.9807;
904.8000;0.0798;-0.9535;
905.1000;0.0863;-0.9354;
905.4000;0.0757;-0.9603;
905.7000;0.0781;-0.9513;
906.0000;0.0741;-0.9671;
906.3000;0.0749;-0.9671;
906.6000;0.0749;-0.9671;
906.9000;0.0749;-0.9649;
907.2000;0.0708;-0.9830;
907.5000;0.0749;-0.9784;
907.8000;0.0708;-0.9898;
908.1000;0.0700;-0.9875;
908.4000;0.0716;-0.9852;
908.7000;0.0749;-0.9784;
909.0000;0.0724;-0.9807;
909.3000;0.0724;-0.9830;
909.6000;0.0667;-0.9988;
909.9000;0.0773;-0.9739;
910.2000;0.0830;-0.9558;
910.5000;0.0781;-0.9649;
910.8000;0.0741;-0.9739;
911.1000;0.0838;-0.9513;
911.4000;0.0700;-0.9852;
911.7000;0.0724;-0.9807;
912.0000;0.0733;-0.9852;
912.3000;0.0659;-1.0079;
912.6000;0.0741;-0.9920;
912.9000;0.0733;-0.9943;
913.2000;0.0708;-0.9943;
913.5000;0.0724;-0.9852;
913.8000;0.0773;-0.9739;
914.1000;0.0733;-0.9875;
914.4000;0.0692;-1.0056;
914.7000;0.0765;-0.9875;
915.0000;0.0749;-0.9762;
915.3000;0.0733;-0.9830;
915.6000;0.0724;-0.9784;
915.9000;0.0749;-0.9694;
916.2000;0.0724;-0.9535;
916.5000;0.0757;-0.9354;
916.8000;0.0741;-0.9377;
917.1000;0.0692;-0.9535;
917.4000;0.0676;-0.9716;
917.7000;0.0749;-0.9513;
918.0000;0.0700;-0.9716;
918.3000;0.0757;-0.9649;
918.6000;0.0708;-0.9716;
918.9000;0.0757;-0.9513;
919.2000;0.0773;-0.9490;
919.5000;0.0749;-0.9467;
919.8000;0.0765;-0.9445;
920.1000;0.0733;-0.9513;
920.4000;0.0684;-0.9535;
920.7000;0.0741;-0.9399;
921.0000;0.0741;-0.9445;
921.3000;0.0724;-0.9513;
921.6000;0.0741;-0.9535;
921.9000;0.0741;-0.9626;
922.2000;0.0716;-0.9739;
922.5000;0.0733;-0.9671;
922.8000;0.0749;-0.9603;
923.1000;0.0741;-0.9649;
923.4000;0.0741;-0.9649;
923.7000;0.0741;-0.9603;
924.0000;0.0700;-0.9626;
924.3000;0.0757;-0.9558;
924.6000;0.0724;-0.9603;
924.9000;0.0733;-0.9490;
925.2000;0.0765;-0.9445;
925.5000;0.0741;-0.9490;
925.8000;0.0716;-0.9467;
926.1000;0.0757;-0.9445;
926.4000;0.0741;-0.9535;
926.7000;0.0724;-0.9490;
927.0000;0.0724;-0.9513;
927.3000;0.0749;-0.9445;
927.6000;0.0741;-0.9399;
927.9000;0.0749;-0.9399;
928.2000;0.0741;-0.9422;
928.5000;0.0716;-0.9467;
928.8000;0.0757;-0.9445;
929.1000;0.0773;-0.9467;
929.4000;0.0757;-0.9467;
929.7000;0.0741;-0.9535;
930.0000;0.0749;-0.9626;
930.3000;0.0733;-0.9671;
930.6000;0.0733;-0.9603;
930.9000;0.0741;-0.9671;
931.2000;0.0749;-0.9671;
931.5000;0.0741;-0.9626;
931.8000;0.0733;-0.9716;
932.1000;0.0733;-0.9739;
932.4000;0.0724;-0.9716;
932.7000;0.0749;-0.9626;
933.0000;0.0765;-0.9558;
933.3000;0.0749;-0.9558;
933.6000;0.0741;-0.9603;
933.9000;0.0822;-0.9399;
934.2000;0.0741;-0.9558;
934.5000;0.0733;-0.9513;
934.8000;0.0733;-0.9513;
935.1000;0.0733;-0.9490;
935.4000;0.0741;-0.9581;
935.7000;0.0741;-0.9649;
936.0000;0.0749;-0.9716;
936.3000;0.0684;-0.9852;
936.6000;0.0708;-0.9852;
936.9000;0.0749;-0.9830;
937.2000;0.0724;-0.9898;
937.5000;0.0716;-0.9852;
937.8000;0.0757;-0.9694;
938.1000;0.0741;-0.9671;
938.4000;0.0741;-0.9649;
938.7000;0.0733;-0.9716;
939.0000;0.0822;-0.9445;
939.3000;0.0757;-0.9603;
939.6000;0.0741;-0.9762;
939.9000;0.0757;-0.9694;
940.2000;0.0749;-0.9581;
940.5000;0.0741;-0.9558;
940.8000;0.0806;-0.9377;
941.1000;0.0724;-0.9581;
941.4000;0.0724;-0.9649;
941.7000;0.0741;-0.9603;
942.0000;0.0733;-0.9558;
942.3000;0.0741;-0.9535;
942.6000;0.0741;-0.9581;
942.9000;0.0749;-0.9581;
943.2000;0.0716;-0.9626;
943.5000;0.0741;-0.9581;
943.8000;0.0733;-0.9581;
944.1000;0.0708;-0.9671;
944.4000;0.0749;-0.9671;
944.7000;0.0741;-0.9784;
945.0000;0.0757;-0.9603;
945.3000;0.0724;-0.9626;
945.6000;0.0741;-0.9581;
945.9000;0.0716;-0.9626;
946.2000;0.0708;-0.9603;
946.5000;0.0741;-0.9603;
946.8000;0.0733;-0.9649;
947.1000;0.0741;-0.9626;
947.4000;0.0741;-0.9671;
947.7000;0.0724;-0.9762;
948.0000;0.0716;-0.9784;
948.3000;0.0724;-0.9649;
948.6000;0.0749;-0.9581;
948.9000;0.0741;-0.9649;
949.2000;0.0757;-0.9603;
949.5000;0.0757;-0.9535;
949.8000;0.0741;-0.9603;
950.1000;0.0741;-0.9626;
950.4000;0.0749;-0.9671;
950.7000;0.0741;-0.9694;
951.0000;0.0724;-0.9739;
951.3000;0.0716;-0.9784;
951.6000;0.0692;-0.9807;
951.9000;0.0733;-0.9784;
952.2000;0.0741;-0.9739;
952.5000;0.0692;-0.9830;
952.8000;0.0684;-0.9875;
953.1000;0.0733;-0.9739;
953.4000;0.0830;-0.9445;
953.7000;0.0741;-0.9694;
954.0000;0.0733;-0.9671;
954.3000;0.0733;-0.9649;
954.6000;0.0749;-0.9626;
954.9000;0.0733;-0.9603;
955.2000;0.0806;-0.9422;
955.5000;0.0741;-0.9649;
955.8000;0.0757;-0.9558;
956.1000;0.0676;-0.9784;
956.4000;0.0684;-0.9739;
956.7000;0.0741;-0.9603;
957.0000;0.0749;-0.9581;
957.3000;0.0716;-0.9694;
957.6000;0.0741;-0.9535;
957.9000;0.0749;-0.9513;
958.2000;0.0733;-0.9513;
958.5000;0.0741;-0.9535;
958.8000;0.0667;-0.9716;
959.1000;0.0733;-0.9626;
959.4000;0.0741;-0.9762;
959.7000;0.0765;-0.9739;
960.0000;0.0765;-0.9671;
960.3000;0.0790;-0.9626;
960.6000;0.0741;-0.9784;
960.9000;0.0757;-0.9739;
961.2000;0.0757;-0.9784;
961.5000;0.0724;-0.9920;
961.8000;0.0733;-0.9807;
962.1000;0.0733;-0.9875;
962.4000;0.0749;-0.9830;
962.7000;0.0733;-0.9762;
963.0000;0.0741;-0.9716;
963.3000;0.0741;-0.9716;
963.6000;0.0749;-0.9694;
963.9000;0.0733;-0.9852;
964.2000;0.0741;-0.9716;
964.5000;0.0741;-0.9671;
964.8000;0.0773;-0.9558;
965.1000;0.0749;-0.9535;
965.4000;0.0741;-0.9581;
965.7000;0.0733;-0.9603;
966.0000;0.0741;-0.9581;
966.3000;0.0724;-0.9784;
966.6000;0.0741;-0.9716;
966.9000;0.0708;-0.9716;
967.2000;0.0741;-0.9694;
967.5000;0.0724;-0.9694;
967.8000;0.0749;-0.9671;
968.1000;0.0716;-0.9603;
968.4000;0.0757;-0.9535;
968.7000;0.0733;-0.9558;
969.0000;0.0716;-0.9535;
969.3000;0.0724;-0.9445;
969.6000;0.0757;-0.9377;
969.9000;0.0757;-0.9377;
970.2000;0.0692;-0.9513;
970.5000;0.0741;-0.9377;
970.8000;0.0733;-0.9422;
971.1000;0.0806;-0.9173;
971.4000;0.0700;-0.9467;
971.7000;0.0765;-0.9309;
972.0000;0.0781;-0.9377;
972.3000;0.0741;-0.9581;
972.6000;0.0708;-0.9694;
972.9000;0.0708;-0.9739;
973.2000;0.0765;-0.9581;
973.5000;0.0749;-0.9603;
973.8000;0.0749;-0.9558;
974.1000;0.0741;-0.9513;
974.4000;0.0708;-0.9603;
974.7000;0.0741;-0.9603;
975.0000;0.0757;-0.9649;
975.3000;0.0741;-0.9716;
975.6000;0.0822;-0.9445;
975.9000;0.0733;-0.9649;
976.2000;0.0741;-0.9513;
976.5000;0.0708;-0.9535;
976.8000;0.0724;-0.9603;
977.1000;0.0838;-0.9263;
977.4000;0.0733;-0.9581;
977.7000;0.0741;-0.9649;
978.0000;0.0667;-0.9875;
978.3000;0.0733;-0.9807;
978.6000;0.0724;-0.9852;
978.9000;0.0733;-0.9784;
979.2000;0.0741;-0.9671;
979.5000;0.0749;-0.9649;
979.8000;0.0749;-0.9716;
980.1000;0.0733;-0.9603;
980.4000;0.0708;-0.9649;
980.7000;0.0733;-0.9581;
981.0000;0.0749;-0.9513;
981.3000;0.0749;-0.9535;
981.6000;0.0741;-0.9467;
981.9000;0.0733;-0.9558;
982.2000;0.0781;-0.9535;
982.5000;0.0741;-0.9694;
982.8000;0.0773;-0.9603;
983.1000;0.0733;-0.9716;
983.4000;0.0822;-0.9445;
983.7000;0.0733;-0.9762;
984.0000;0.0765;-0.9739;
984.3000;0.0773;-0.9739;
984.6000;0.0741;-0.9762;
984.9000;0.0741;-0.9739;
985.2000;0.0749;-0.9694;
985.5000;0.0749;-0.9716;
985.8000;0.0692;-0.9807;
986.1000;0.0724;-0.9807;
986.4000;0.0708;-0.9920;
986.7000;0.0708;-0.9966;
987.0000;0.0741;-0.9830;
987.3000;0.0716;-0.9852;
987.6000;0.0708;-0.9875;
987.9000;0.0708;-0.9898;
988.2000;0.0741;-0.9762;
988.5000;0.0781;-0.9603;
988.8000;0.0749;-0.9626;
989.1000;0.0741;-0.9626;
989.4000;0.0724;-0.9716;
989.7000;0.0741;-0.9762;
990.0000;0.0749;-0.9807;
990.3000;0.0716;-0.9875;
990.6000;0.0700;-0.9920;
990.9000;0.0724;-0.9694;
991.2000;0.0798;-0.9535;
991.5000;0.0822;-0.9399;
991.8000;0.0716;-0.9671;
992.1000;0.0724;-0.9603;
992.4000;0.0863;-0.9173;
992.7000;0.0643;-0.9852;
993.0000;0.0741;-0.9558;
993.3000;0.0667;-0.9739;
993.6000;0.0724;-0.9694;
993.9000;0.0749;-0.9649;
994.2000;0.0741;-0.9739;
994.5000;0.0716;-0.9898;
994.8000;0.0716;-0.9830;
995.1000;0.0733;-0.9807;
995.4000;0.0765;-0.9716;
995.7000;0.0749;-0.9649;
996.0000;0.0757;-0.9603;
996.3000;0.0741;-0.9581;
996.6000;0.0749;-0.9513;
996.9000;0.0749;-0.9535;
997.2000;0.0724;-0.9558;
997.5000;0.0733;-0.9513;
997.8000;0.0708;-0.9535;
998.1000;0.0684;-0.9581;
998.4000;0.0643;-0.9739;
998.7000;0.0659;-0.9716;
999.0000;0.0684;-0.9739;
999.3000;0.0773;-0.9558;
999.6000;0.0716;-0.9784;
999.9000;0.0790;-0.9581;
1000.2000;0.0716;-0.9739;
1000.5000;0.0749;-0.9603;
1000.8000;0.0765;-0.9649;
1001.1000;0.0724;-0.9739;
1001.4000;0.0684;-0.9875;
1001.7000;0.0716;-0.9875;
1002.0000;0.0757;-0.9762;
1002.3000;0.0749;-0.9784;
1002.6000;0.0716;-0.9762;
1002.9000;0.0724;-0.9807;
1003.2000;0.0724;-0.9898;
1003.5000;0.0724;-0.9852;
1003.8000;0.0741;-0.9716;
1004.1000;0.0765;-0.9671;
1004.4000;0.0741;-0.9649;
1004.7000;0.0733;-0.9558;
1005.0000;0.0741;-0.9558;
1005.3000;0.0741;-0.9649;
1005.6000;0.0749;-0.9603;
1005.9000;0.0733;-0.9535;
1006.2000;0.0741;-0.9513;
1006.5000;0.0741;-0.9513;
1006.8000;0.0724;-0.9649;
1007.1000;0.0741;-0.9581;
1007.4000;0.0765;-0.9603;
1007.7000;0.0741;-0.9581;
1008.0000;0.0741;-0.9626;
1008.3000;0.0757;-0.9558;
1008.6000;0.0676;-0.9694;
1008.9000;0.0741;-0.9558;
1009.2000;0.0749;-0.9603;
1009.5000;0.0741;-0.9581;
1009.8000;0.0733;-0.9603;
1010.1000;0.0724;-0.9558;
1010.4000;0.0741;-0.9467;
1010.7000;0.0741;-0.9513;
1011.0000;0.0741;-0.9513;
1011.3000;0.0724;-0.9535;
1011.6000;0.0741;-0.9490;
1011.9000;0.0757;-0.9467;
1012.2000;0.0692;-0.9626;
1012.5000;0.0676;-0.9626;
1012.8000;0.0741;-0.9513;
1013.1000;0.0830;-0.9354;
1013.4000;0.0757;-0.9649;
1013.7000;0.0749;-0.9649;
1014.0000;0.0733;-0.9694;
1014.3000;0.0651;-1.0011;
1014.6000;0.0749;-0.9716;
1014.9000;0.0724;-0.9694;
1015.2000;0.0667;-0.9762;
1015.5000;0.0822;-0.9331;
1015.8000;0.0806;-0.9196;
1016.1000;0.0708;-0.9422;
1016.4000;0.0676;-0.9467;
1016.7000;0.0773;-0.9196;
1017.0000;0.0724;-0.9354;
1017.3000;0.0733;-0.9377;
1017.6000;0.0741;-0.9377;
1017.9000;0.0773;-0.9354;
1018.2000;0.0684;-0.9535;
1018.5000;0.0741;-0.9354;
1018.8000;0.0708;-0.9490;
1019.1000;0.0716;-0.9513;
1019.4000;0.0716;-0.9558;
1019.7000;0.0765;-0.9399;
1020.0000;0.0724;-0.9626;
1020.3000;0.0733;-0.9671;
1020.6000;0.0773;-0.9558;
1020.9000;0.0741;-0.9558;
1021.2000;0.0676;-0.9739;
1021.5000;0.0765;-0.9558;
1021.8000;0.0741;-0.9535;
1022.1000;0.0741;-0.9513;
1022.4000;0.0741;-0.9422;
1022.7000;0.0798;-0.9331;
1023.0000;0.0733;-0.9513;
1023.3000;0.0773;-0.9490;
1023.6000;0.0659;-0.9739;
1023.9000;0.0741;-0.9649;
1024.2000;0.0814;-0.9467;
1024.5000;0.0765;-0.9490;
1024.8000;0.0733;-0.9513;
1025.1000;0.0659;-0.9671;
1025.4000;0.0741;-0.9467;
1025.7000;0.0749;-0.9399;
1026.0000;0.0781;-0.9309;
1026.3000;0.0781;-0.9354;
1026.6000;0.0716;-0.9490;
1026.9000;0.0733;-0.9535;
1027.2000;0.0757;-0.9399;
1027.5000;0.0741;-0.9467;
1027.8000;0.0773;-0.9445;
1028.1000;0.0741;-0.9558;
1028.4000;0.0724;-0.9535;
1028.7000;0.0733;-0.9535;
1029.0000;0.0765;-0.9422;
1029.3000;0.0781;-0.9377;
1029.6000;0.0733;-0.9535;
1029.9000;0.0724;-0.9535;
1030.2000;0.0733;-0.9399;
1030.5000;0.0733;-0.9445;
1030.8000;0.0627;-0.9739;
1031.1000;0.0749;-0.9422;
1031.4000;0.0749;-0.9354;
1031.7000;0.0741;-0.9354;
1032.0000;0.0700;-0.9377;
1032.3000;0.0659;-0.9445;
1032.6000;0.0724;-0.9218;
1032.9000;0.0684;-0.9331;
1033.2000;0.0586;-0.9535;
1033.5000;0.0724;-0.9286;
1033.8000;0.0773;-0.9218;
1034.1000;0.0684;-0.9445;
1034.4000;0.0765;-0.9286;
1034.7000;0.0790;-0.9218;
1035.0000;0.0724;-0.9422;
1035.3000;0.0733;-0.9490;
1035.6000;0.0757;-0.9422;
1035.9000;0.0790;-0.9331;
1036.2000;0.0724;-0.9535;
1036.5000;0.0798;-0.9331;
1036.8000;0.0708;-0.9603;
1037.1000;0.0773;-0.9377;
1037.4000;0.0708;-0.9671;
1037.7000;0.0733;-0.9649;
1038.0000;0.0765;-0.9535;
1038.3000;0.0757;-0.9671;
1038.6000;0.0724;-0.9762;
1038.9000;0.0724;-0.9762;
1039.2000;0.0724;-0.9807;
1039.5000;0.0749;-0.9739;
1039.8000;0.0773;-0.9716;
1040.1000;0.0757;-0.9716;
1040.4000;0.0733;-0.9830;
1040.7000;0.0765;-0.9739;
1041.0000;0.0749;-0.9739;
1041.3000;0.0814;-0.9535;
1041.6000;0.0733;-0.9694;
1041.9000;0.0749;-0.9694;
1042.2000;0.0741;-0.9694;
1042.5000;0.0716;-0.9694;
1042.8000;0.0724;-0.9739;
1043.1000;0.0700;-0.9830;
1043.4000;0.0741;-0.9739;
1043.7000;0.0765;-0.9716;
1044.0000;0.0716;-0.9762;
1044.3000;0.0724;-0.9716;
1044.6000;0.0773;-0.9581;
1044.9000;0.0733;-0.9603;
1045.2000;0.0773;-0.9513;
1045.5000;0.0724;-0.9490;
1045.8000;0.0757;-0.9399;
1046.1000;0.0773;-0.9331;
1046.4000;0.0741;-0.9377;
1046.7000;0.0757;-0.9354;
1047.0000;0.0757;-0.9354;
1047.3000;0.0741;-0.9309;
1047.6000;0.0716;-0.9331;
1047.9000;0.0667;-0.9422;
1048.2000;0.0741;-0.9286;
1048.5000;0.0757;-0.9241;
1048.8000;0.0733;-0.9331;
1049.1000;0.0806;-0.9286;
1049.4000;0.0765;-0.9422;
1049.7000;0.0773;-0.9422;
1050.0000;0.0733;-0.9467;
1050.3000;0.0798;-0.9331;
1050.6000;0.0749;-0.9399;
1050.9000;0.0822;-0.9263;
1051.2000;0.0724;-0.9535;
1051.5000;0.0724;-0.9603;
1051.8000;0.0749;-0.9535;
1052.1000;0.0838;-0.9377;
1052.4000;0.0667;-0.9784;
1052.7000;0.0822;-0.9399;
1053.0000;0.0724;-0.9603;
1053.3000;0.0708;-0.9671;
1053.6000;0.0733;-0.9694;
1053.9000;0.0716;-0.9694;
1054.2000;0.0667;-0.9807;
1054.5000;0.0749;-0.9649;
1054.8000;0.0757;-0.9626;
1055.1000;0.0757;-0.9535;
1055.4000;0.0724;-0.9581;
1055.7000;0.0692;-0.9649;
1056.0000;0.0741;-0.9581;
1056.3000;0.0741;-0.9694;
1056.6000;0.0741;-0.9716;
1056.9000;0.0765;-0.9671;
1057.2000;0.0814;-0.9490;
1057.5000;0.0708;-0.9694;
1057.8000;0.0724;-0.9671;
1058.1000;0.0741;-0.9671;
1058.4000;0.0757;-0.9626;
1058.7000;0.0741;-0.9603;
1059.0000;0.0749;-0.9603;
1059.3000;0.0741;-0.9626;
1059.6000;0.0749;-0.9581;
1059.9000;0.0651;-0.9830;
1060.2000;0.0659;-0.9875;
1060.5000;0.0741;-0.9694;
1060.8000;0.0741;-0.9581;
1061.1000;0.0724;-0.9581;
1061.4000;0.0790;-0.9422;
1061.7000;0.0765;-0.9490;
1062.0000;0.0733;-0.9513;
1062.3000;0.0757;-0.9399;
1062.6000;0.0733;-0.9467;
1062.9000;0.0716;-0.9490;
1063.2000;0.0757;-0.9354;
1063.5000;0.0708;-0.9309;
1063.8000;0.0724;-0.9377;
1064.1000;0.0733;-0.9422;
1064.4000;0.0733;-0.9422;
1064.7000;0.0724;-0.9422;
1065.0000;0.0700;-0.9535;
1065.3000;0.0724;-0.9603;
1065.6000;0.0765;-0.9558;
1065.9000;0.0741;-0.9535;
1066.2000;0.0749;-0.9467;
1066.5000;0.0692;-0.9558;
1066.8000;0.0659;-0.9716;
1067.1000;0.0724;-0.9558;
1067.4000;0.0741;-0.9467;
1067.7000;0.0724;-0.9535;
1068.0000;0.0716;-0.9558;
1068.3000;0.0708;-0.9581;
1068.6000;0.0757;-0.9513;
1068.9000;0.0749;-0.9422;
1069.2000;0.0724;-0.9490;
1069.5000;0.0651;-0.9716;
1069.8000;0.0765;-0.9467;
1070.1000;0.0757;-0.9445;
1070.4000;0.0749;-0.9513;
1070.7000;0.0733;-0.9535;
1071.0000;0.0757;-0.9535;
1071.3000;0.0757;-0.9513;
1071.6000;0.0757;-0.9490;
1071.9000;0.0733;-0.9581;
1072.2000;0.0733;-0.9513;
1072.5000;0.0757;-0.9399;
1072.8000;0.0765;-0.9331;
1073.1000;0.0749;-0.9354;
1073.4000;0.0700;-0.9422;
1073.7000;0.0716;-0.9422;
1074.0000;0.0733;-0.9377;
1074.3000;0.0635;-0.9716;
1074.6000;0.0724;-0.9513;
1074.9000;0.0733;-0.9445;
1075.2000;0.0700;-0.9626;
1075.5000;0.0749;-0.9422;
1075.8000;0.0733;-0.9422;
1076.1000;0.0733;-0.9467;
1076.4000;0.0749;-0.9558;
1076.7000;0.0765;-0.9535;
1077.0000;0.0749;-0.9558;
1077.3000;0.0757;-0.9558;
1077.6000;0.0741;-0.9535;
1077.9000;0.0757;-0.9422;
1078.2000;0.0741;-0.9399;
1078.5000;0.0733;-0.9422;
1078.8000;0.0773;-0.9309;
1079.1000;0.0749;-0.9445;
1079.4000;0.0741;-0.9467;
1079.7000;0.0724;-0.9467;
1080.0000;0.0733;-0.9377;
1080.3000;0.0733;-0.9445;
1080.6000;0.0741;-0.9445;
1080.9000;0.0733;-0.9399;
1081.2000;0.0749;-0.9354;
1081.5000;0.0757;-0.9309;
1081.8000;0.0749;-0.9331;
1082.1000;0.0790;-0.9309;
1082.4000;0.0749;-0.9354;
1082.7000;0.0757;-0.9399;
1083.0000;0.0733;-0.9399;
1083.3000;0.0733;-0.9377;
1083.6000;0.0749;-0.9331;
1083.9000;0.0749;-0.9354;
1084.2000;0.0733;-0.9399;
1084.5000;0.0586;-0.9716;
1084.8000;0.0773;-0.9309;
1085.1000;0.0724;-0.9399;
1085.4000;0.0733;-0.9399;
1085.7000;0.0749;-0.9399;
1086.0000;0.0757;-0.9377;
1086.3000;0.0741;-0.9354;
1086.6000;0.0757;-0.9331;
1086.9000;0.0733;-0.9445;
1087.2000;0.0765;-0.9377;
1087.5000;0.0749;-0.9331;
1087.8000;0.0733;-0.9445;
1088.1000;0.0700;-0.9467;
1088.4000;0.0749;-0.9331;
1088.7000;0.0733;-0.9354;
1089.0000;0.0724;-0.9399;
1089.3000;0.0749;-0.9399;
1089.6000;0.0733;-0.9422;
1089.9000;0.0667;-0.9603;
1090.2000;0.0733;-0.9490;
1090.5000;0.0749;-0.9422;
1090.8000;0.0749;-0.9399;
1091.1000;0.0773;-0.9377;
1091.4000;0.0822;-0.9241;
1091.7000;0.0773;-0.9422;
1092.0000;0.0708;-0.9626;
1092.3000;0.0757;-0.9422;
1092.6000;0.0773;-0.9331;
1092.9000;0.0708;-0.9445;
1093.2000;0.0724;-0.9445;
1093.5000;0.0749;-0.9535;
1093.8000;0.0741;-0.9558;
1094.1000;0.0741;-0.9649;
1094.4000;0.0749;-0.9581;
1094.7000;0.0741;-0.9603;
1095.0000;0.0749;-0.9603;
1095.3000;0.0765;-0.9558;
1095.6000;0.0733;-0.9535;
1095.9000;0.0733;-0.9558;
1096.2000;0.0667;-0.9784;
1096.5000;0.0741;-0.9581;
1096.8000;0.0733;-0.9490;
1097.1000;0.0724;-0.9490;
1097.4000;0.0741;-0.9354;
1097.7000;0.0724;-0.9309;
1098.0000;0.0724;-0.9354;
1098.3000;0.0741;-0.9377;
1098.6000;0.0749;-0.9377;
1098.9000;0.0733;-0.9354;
1099.2000;0.0724;-0.9354;
1099.5000;0.0749;-0.9399;
1099.8000;0.0733;-0.9513;
1100.1000;0.0749;-0.9513;
1100.4000;0.0855;-0.9241;
1100.7000;0.0733;-0.9513;
1101.0000;0.0741;-0.9626;
1101.3000;0.0741;-0.9671;
1101.6000;0.0749;-0.9762;
1101.9000;0.0749;-0.9762;
1102.2000;0.0708;-0.9943;
1102.5000;0.0733;-0.9898;
1102.8000;0.0733;-0.9762;
1103.1000;0.0757;-0.9626;
1103.4000;0.0741;-0.9694;
1103.7000;0.0733;-0.9784;
1104.0000;0.0749;-0.9671;
1104.3000;0.0749;-0.9649;
1104.6000;0.0724;-0.9558;
1104.9000;0.0733;-0.9513;
1105.2000;0.0716;-0.9513;
1105.5000;0.0757;-0.9490;
1105.8000;0.0708;-0.9626;
1106.1000;0.0741;-0.9626;
1106.4000;0.0708;-0.9762;
1106.7000;0.0733;-0.9581;
1107.0000;0.0798;-0.9354;
1107.3000;0.0700;-0.9581;
1107.6000;0.0741;-0.9490;
1107.9000;0.0733;-0.9445;
1108.2000;0.0757;-0.9445;
1108.5000;0.0765;-0.9377;
1108.8000;0.0757;-0.9377;
1109.1000;0.0692;-0.9603;
1109.4000;0.0781;-0.9399;
1109.7000;0.0814;-0.9377;
1110.0000;0.0741;-0.9558;
1110.3000;0.0724;-0.9671;
1110.6000;0.0733;-0.9649;
1110.9000;0.0716;-0.9694;
1111.2000;0.0667;-0.9852;
1111.5000;0.0716;-0.9739;
1111.8000;0.0741;-0.9581;
1112.1000;0.0765;-0.9581;
1112.4000;0.0733;-0.9467;
1112.7000;0.0716;-0.9535;
1113.0000;0.0741;-0.9490;
1113.3000;0.0757;-0.9490;
1113.6000;0.0733;-0.9581;
1113.9000;0.0773;-0.9422;
1114.2000;0.0733;-0.9558;
1114.5000;0.0741;-0.9626;
1114.8000;0.0757;-0.9581;
1115.1000;0.0684;-0.9694;
1115.4000;0.0749;-0.9467;
1115.7000;0.0757;-0.9422;
1116.0000;0.0741;-0.9467;
1116.3000;0.0733;-0.9422;
1116.6000;0.0790;-0.9286;
1116.9000;0.0733;-0.9377;
1117.2000;0.0847;-0.9105;
1117.5000;0.0741;-0.9399;
1117.8000;0.0757;-0.9331;
1118.1000;0.0692;-0.9467;
1118.4000;0.0716;-0.9422;
1118.7000;0.0741;-0.9399;
1119.0000;0.0749;-0.9286;
1119.3000;0.0659;-0.9445;
1119.6000;0.0749;-0.9196;
1119.9000;0.0724;-0.9331;
1120.2000;0.0822;-0.9173;
1120.5000;0.0716;-0.9263;
1120.8000;0.0733;-0.9150;
1121.1000;0.0814;-0.9082;
1121.4000;0.0749;-0.9331;
1121.7000;0.0733;-0.9490;
1122.0000;0.0716;-0.9467;
1122.3000;0.0757;-0.9377;
1122.6000;0.0716;-0.9513;
1122.9000;0.0741;-0.9445;
1123.2000;0.0741;-0.9377;
1123.5000;0.0733;-0.9377;
1123.8000;0.0692;-0.9445;
1124.1000;0.0716;-0.9331;
1124.4000;0.0733;-0.9241;
1124.7000;0.0741;-0.9263;
1125.0000;0.0920;-0.8856;
1125.3000;0.0765;-0.9196;
1125.6000;0.0749;-0.9286;
1125.9000;0.0749;-0.9263;
1126.2000;0.0724;-0.9241;
1126.5000;0.0765;-0.9196;
1126.8000;0.0733;-0.9354;
1127.1000;0.0733;-0.9422;
1127.4000;0.0790;-0.9354;
1127.7000;0.0716;-0.9626;
1128.0000;0.0692;-0.9626;
1128.3000;0.0765;-0.9399;
1128.6000;0.0733;-0.9422;
1128.9000;0.0733;-0.9377;
1129.2000;0.0741;-0.9490;
1129.5000;0.0773;-0.9399;
1129.8000;0.0716;-0.9399;
1130.1000;0.0716;-0.9331;
1130.4000;0.0676;-0.9490;
1130.7000;0.0635;-0.9762;
1131.0000;0.0684;-0.9581;
1131.3000;0.0806;-0.9467;
1131.6000;0.0716;-0.9671;
1131.9000;0.0716;-0.9603;
1132.2000;0.0692;-0.9581;
1132.5000;0.0708;-0.9603;
1132.8000;0.0733;-0.9490;
1133.1000;0.0741;-0.9399;
1133.4000;0.0733;-0.9445;
1133.7000;0.0749;-0.9467;
1134.0000;0.0741;-0.9581;
1134.3000;0.0733;-0.9581;
1134.6000;0.0700;-0.9535;
1134.9000;0.0830;-0.9309;
1135.2000;0.0765;-0.9399;
1135.5000;0.0757;-0.9445;
1135.8000;0.0700;-0.9626;
1136.1000;0.0749;-0.9581;
1136.4000;0.0757;-0.9490;
1136.7000;0.0749;-0.9467;
1137.0000;0.0741;-0.9490;
1137.3000;0.0765;-0.9467;
1137.6000;0.0749;-0.9467;
1137.9000;0.0757;-0.9467;
1138.2000;0.0733;-0.9467;
1138.5000;0.0757;-0.9445;
1138.8000;0.0692;-0.9558;
1139.1000;0.0716;-0.9581;
1139.4000;0.0749;-0.9513;
1139.7000;0.0773;-0.9399;
1140.0000;0.0716;-0.9445;
1140.3000;0.0781;-0.9309;
1140.6000;0.0741;-0.9467;
1140.9000;0.0741;-0.9354;
1141.2000;0.0757;-0.9241;
1141.5000;0.0749;-0.9218;
1141.8000;0.0830;-0.9105;
1142.1000;0.0773;-0.9263;
1142.4000;0.0749;-0.9286;
1142.7000;0.0741;-0.9173;
1143.0000;0.0716;-0.9173;
1143.3000;0.0659;-0.9354;
1143.6000;0.0733;-0.9263;
1143.9000;0.0798;-0.9196;
1144.2000;0.0708;-0.9377;
1144.5000;0.0765;-0.9241;
1144.8000;0.0724;-0.9354;
1145.1000;0.0749;-0.9377;
1145.4000;0.0733;-0.9331;
1145.7000;0.0773;-0.9263;
1146.0000;0.0781;-0.9286;
1146.3000;0.0716;-0.9535;
1146.6000;0.0749;-0.9513;
1146.9000;0.0757;-0.9422;
1147.2000;0.0798;-0.9309;
1147.5000;0.0716;-0.9490;
1147.8000;0.0757;-0.9399;
1148.1000;0.0716;-0.9513;
1148.4000;0.0822;-0.9286;
1148.7000;0.0749;-0.9445;
1149.0000;0.0741;-0.9490;
1149.3000;0.0733;-0.9558;
1149.6000;0.0716;-0.9762;
1149.9000;0.0733;-0.9807;
1150.2000;0.0724;-0.9694;
1150.5000;0.0733;-0.9603;
1150.8000;0.0741;-0.9513;
1151.1000;0.0733;-0.9603;
1151.4000;0.0781;-0.9558;
1151.7000;0.0692;-0.9807;
1152.0000;0.0741;-0.9694;
1152.3000;0.0667;-0.9898;
1152.6000;0.0879;-0.9286;
1152.9000;0.0733;-0.9581;
1153.2000;0.0733;-0.9558;
1153.5000;0.0692;-0.9626;
1153.8000;0.0741;-0.9490;
1154.1000;0.0667;-0.9716;
1154.4000;0.0724;-0.9581;
1154.7000;0.0733;-0.9581;
1155.0000;0.0798;-0.9467;
1155.3000;0.0773;-0.9535;
1155.6000;0.0798;-0.9445;
1155.9000;0.0733;-0.9603;
1156.2000;0.0741;-0.9581;
1156.5000;0.0749;-0.9535;
1156.8000;0.0724;-0.9581;
1157.1000;0.0757;-0.9513;
1157.4000;0.0781;-0.9467;
1157.7000;0.0749;-0.9513;
1158.0000;0.0757;-0.9558;
1158.3000;0.0757;-0.9558;
1158.6000;0.0733;-0.9671;
1158.9000;0.0757;-0.9558;
1159.2000;0.0741;-0.9558;
1159.5000;0.0749;-0.9581;
1159.8000;0.0765;-0.9603;
1160.1000;0.0741;-0.9603;
1160.4000;0.0757;-0.9581;
1160.7000;0.0765;-0.9558;
1161.0000;0.0757;-0.9535;
1161.3000;0.0749;-0.9558;
1161.6000;0.0749;-0.9558;
1161.9000;0.0733;-0.9626;
1162.2000;0.0724;-0.9581;
1162.5000;0.0716;-0.9671;
1162.8000;0.0733;-0.9558;
1163.1000;0.0708;-0.9603;
1163.4000;0.0749;-0.9581;
1163.7000;0.0692;-0.9649;
1164.0000;0.0733;-0.9535;
1164.3000;0.0749;-0.9535;
1164.6000;0.0724;-0.9649;
1164.9000;0.0716;-0.9626;
1165.2000;0.0757;-0.9513;
1165.5000;0.0635;-0.9807;
1165.8000;0.0749;-0.9649;
1166.1000;0.0733;-0.9716;
1166.4000;0.0765;-0.9581;
1166.7000;0.0765;-0.9626;
1167.0000;0.0741;-0.9649;
1167.3000;0.0765;-0.9467;
1167.6000;0.0757;-0.9490;
1167.9000;0.0733;-0.9535;
1168.2000;0.0733;-0.9535;
1168.5000;0.0741;-0.9581;
1168.8000;0.0749;-0.9581;
1169.1000;0.0741;-0.9626;
1169.4000;0.0749;-0.9513;
1169.7000;0.0749;-0.9513;
1170.0000;0.0716;-0.9535;
1170.3000;0.0765;-0.9399;
1170.6000;0.0757;-0.9399;
1170.9000;0.0765;-0.9467;
1171.2000;0.0749;-0.9513;
1171.5000;0.0749;-0.9490;
1171.8000;0.0724;-0.9535;
1172.1000;0.0741;-0.9467;
1172.4000;0.0733;-0.9535;
1172.7000;0.0749;-0.9490;
1173.0000;0.0733;-0.9399;
1173.3000;0.0733;-0.9399;
1173.6000;0.0733;-0.9445;
1173.9000;0.0724;-0.9467;
1174.2000;0.0749;-0.9513;
1174.5000;0.0757;-0.9558;
1174.8000;0.0716;-0.9581;
1175.1000;0.0741;-0.9581;
1175.4000;0.0741;-0.9558;
1175.7000;0.0692;-0.9626;
1176.0000;0.0716;-0.9513;
1176.3000;0.0765;-0.9422;
1176.6000;0.0757;-0.9490;
1176.9000;0.0749;-0.9490;
1177.2000;0.0749;-0.9445;
1177.5000;0.0749;-0.9445;
1177.8000;0.0700;-0.9558;
1178.1000;0.0708;-0.9490;
1178.4000;0.0733;-0.9467;
1178.7000;0.0659;-0.9671;
1179.0000;0.0733;-0.9513;
1179.3000;0.0790;-0.9445;
1179.6000;0.0790;-0.9331;
1179.9000;0.0773;-0.9377;
1180.2000;0.0830;-0.9218;
1180.5000;0.0733;-0.9490;
1180.8000;0.0716;-0.9535;
1181.1000;0.0724;-0.9513;
1181.4000;0.0724;-0.9558;
1181.7000;0.0757;-0.9467;
1182.0000;0.0838;-0.9218;
1182.3000;0.0733;-0.9490;
1182.6000;0.0798;-0.9377;
1182.9000;0.0667;-0.9649;
1183.2000;0.0765;-0.9399;
1183.5000;0.0822;-0.9286;
1183.8000;0.0724;-0.9558;
1184.1000;0.0741;-0.9490;
1184.4000;0.0708;-0.9626;
1184.7000;0.0741;-0.9513;
1185.0000;0.0684;-0.9716;
1185.3000;0.0724;-0.9535;
1185.6000;0.0741;-0.9467;
1185.9000;0.0863;-0.9128;
1186.2000;0.0724;-0.9513;
1186.5000;0.0594;-0.9830;
1186.8000;0.0765;-0.9377;
1187.1000;0.0757;-0.9377;
1187.4000;0.0765;-0.9399;
1187.7000;0.0733;-0.9513;
1188.0000;0.0765;-0.9422;
1188.3000;0.0643;-0.9739;
1188.6000;0.0749;-0.9467;
1188.9000;0.0684;-0.9581;
1189.2000;0.0716;-0.9445;
1189.5000;0.0578;-0.9830;
1189.8000;0.0733;-0.9445;
1190.1000;0.0733;-0.9513;
1190.4000;0.0708;-0.9603;
1190.7000;0.0757;-0.9513;
1191.0000;0.0773;-0.9490;
1191.3000;0.0692;-0.9739;
1191.6000;0.0733;-0.9581;
1191.9000;0.0741;-0.9558;
1192.2000;0.0700;-0.9649;
1192.5000;0.0757;-0.9558;
1192.8000;0.0724;-0.9716;
1193.1000;0.0733;-0.9739;
1193.4000;0.0749;-0.9716;
1193.7000;0.0765;-0.9694;
1194.0000;0.0700;-0.9784;
1194.3000;0.0741;-0.9671;
1194.6000;0.0749;-0.9671;
1194.9000;0.0716;-0.9716;
1195.2000;0.0733;-0.9716;
1195.5000;0.0741;-0.9739;
1195.8000;0.0790;-0.9581;
1196.1000;0.0741;-0.9694;
1196.4000;0.0708;-0.9671;
1196.7000;0.0716;-0.9671;
1197.0000;0.0733;-0.9671;
1197.3000;0.0733;-0.9603;
1197.6000;0.0741;-0.9581;
1197.9000;0.0741;-0.9535;
1198.2000;0.0708;-0.9649;
1198.5000;0.0749;-0.9694;
1198.8000;0.0749;-0.9762;
1199.1000;0.0733;-0.9762;
1199.4000;0.0838;-0.9422;
1199.7000;0.0708;-0.9739;
1200.0000;0.0765;-0.9558;
1200.3000;0.0757;-0.9535;
1200.6000;0.0790;-0.9535;
1200.9000;0.0749;-0.9649;
1201.2000;0.0741;-0.9603;
1201.5000;0.0887;-0.9309;
1201.8000;0.0765;-0.9626;
1202.1000;0.0741;-0.9694;
1202.4000;0.0724;-0.9671;
1202.7000;0.0798;-0.9422;
1203.0000;0.0757;-0.9535;
1203.3000;0.0773;-0.9467;
1203.6000;0.0733;-0.9558;
1203.9000;0.0733;-0.9445;
1204.2000;0.0765;-0.9422;
1204.5000;0.0733;-0.9445;
1204.8000;0.0749;-0.9399;
1205.1000;0.0741;-0.9467;
1205.4000;0.0659;-0.9671;
1205.7000;0.0781;-0.9263;
1206.0000;0.0757;-0.9309;
1206.3000;0.0757;-0.9399;
1206.6000;0.0684;-0.9603;
1206.9000;0.0749;-0.9445;
1207.2000;0.0741;-0.9399;
1207.5000;0.0773;-0.9241;
1207.8000;0.0733;-0.9354;
1208.1000;0.0708;-0.9399;
1208.4000;0.0676;-0.9558;
1208.7000;0.0733;-0.9490;
1209.0000;0.0708;-0.9513;
1209.3000;0.0757;-0.9445;
1209.6000;0.0749;-0.9467;
1209.9000;0.0733;-0.9535;
1210.2000;0.0659;-0.9739;
1210.5000;0.0676;-0.9807;
1210.8000;0.0781;-0.9535;
1211.1000;0.0749;-0.9490;
1211.4000;0.0765;-0.9377;
1211.7000;0.0724;-0.9490;
1212.0000;0.0724;-0.9490;
1212.3000;0.0741;-0.9467;
1212.6000;0.0749;-0.9490;
1212.9000;0.0847;-0.9241;
1213.2000;0.0749;-0.9422;
1213.5000;0.0733;-0.9399;
1213.8000;0.0724;-0.9377;
1214.1000;0.0741;-0.9286;
1214.4000;0.0733;-0.9309;
1214.7000;0.0871;-0.8924;
1215.0000;0.0733;-0.9309;
1215.3000;0.0806;-0.9150;
1215.6000;0.0741;-0.9331;
1215.9000;0.0765;-0.9286;
1216.2000;0.0611;-0.9558;
1216.5000;0.0724;-0.9241;
1216.8000;0.0733;-0.9218;
1217.1000;0.0724;-0.9286;
1217.4000;0.0757;-0.9286;
1217.7000;0.0733;-0.9263;
1218.0000;0.0733;-0.9286;
1218.3000;0.0733;-0.9150;
1218.6000;0.0716;-0.9150;
1218.9000;0.0716;-0.9218;
1219.2000;0.0724;-0.9196;
1219.5000;0.0724;-0.9128;
1219.8000;0.0692;-0.9060;
1220.1000;0.0749;-0.8946;
1220.4000;0.0733;-0.9128;
1220.7000;0.0765;-0.9128;
1221.0000;0.0757;-0.9128;
1221.3000;0.0733;-0.9196;
1221.6000;0.0773;-0.9150;
1221.9000;0.0700;-0.9399;
1222.2000;0.0741;-0.9399;
1222.5000;0.0749;-0.9445;
1222.8000;0.0790;-0.9196;
1223.1000;0.0708;-0.9331;
1223.4000;0.0741;-0.9218;
1223.7000;0.0781;-0.9150;
1224.0000;0.0684;-0.9422;
1224.3000;0.0724;-0.9286;
1224.6000;0.0749;-0.9286;
1224.9000;0.0716;-0.9354;
1225.2000;0.0716;-0.9399;
1225.5000;0.0749;-0.9354;
1225.8000;0.0716;-0.9422;
1226.1000;0.0724;-0.9377;
1226.4000;0.0838;-0.9128;
1226.7000;0.0700;-0.9467;
1227.0000;0.0733;-0.9309;
1227.3000;0.0733;-0.9377;
1227.6000;0.0749;-0.9263;
1227.9000;0.0724;-0.9354;
1228.2000;0.0749;-0.9286;
1228.5000;0.0733;-0.9309;
1228.8000;0.0716;-0.9445;
1229.1000;0.0790;-0.9263;
1229.4000;0.0724;-0.9467;
1229.7000;0.0724;-0.9490;
1230.0000;0.0724;-0.9467;
1230.3000;0.0741;-0.9377;
1230.6000;0.0733;-0.9445;
1230.9000;0.0741;-0.9422;
1231.2000;0.0716;-0.9490;
1231.5000;0.0741;-0.9490;
1231.8000;0.0749;-0.9467;
1232.1000;0.0733;-0.9490;
1232.4000;0.0749;-0.9445;
1232.7000;0.0708;-0.9467;
1233.0000;0.0790;-0.9263;
1233.3000;0.0676;-0.9513;
1233.6000;0.0733;-0.9354;
1233.9000;0.0724;-0.9354;
1234.2000;0.0684;-0.9490;
1234.5000;0.0741;-0.9331;
1234.8000;0.0838;-0.9128;
1235.1000;0.0724;-0.9377;
1235.4000;0.0757;-0.9263;
1235.7000;0.0741;-0.9286;
1236.0000;0.0749;-0.9286;
1236.3000;0.0765;-0.9241;
1236.6000;0.0708;-0.9422;
1236.9000;0.0733;-0.9422;
1237.2000;0.0749;-0.9467;
1237.5000;0.0724;-0.9513;
1237.8000;0.0733;-0.9513;
1238.1000;0.0733;-0.9558;
1238.4000;0.0871;-0.9150;
1238.7000;0.0716;-0.9626;
1239.0000;0.0724;-0.9649;
1239.3000;0.0773;-0.9445;
1239.6000;0.0741;-0.9535;
1239.9000;0.0708;-0.9513;
1240.2000;0.0733;-0.9490;
1240.5000;0.0733;-0.9535;
1240.8000;0.0724;-0.9467;
1241.1000;0.0733;-0.9399;
1241.4000;0.0781;-0.9377;
1241.7000;0.0741;-0.9490;
1242.0000;0.0716;-0.9581;
1242.3000;0.0716;-0.9671;
1242.6000;0.0741;-0.9694;
1242.9000;0.0733;-0.9649;
1243.2000;0.0733;-0.9671;
1243.5000;0.0724;-0.9671;
1243.8000;0.0741;-0.9739;
1244.1000;0.0749;-0.9762;
1244.4000;0.0716;-0.9807;
1244.7000;0.0814;-0.9581;
1245.0000;0.0716;-0.9852;
1245.3000;0.0741;-0.9830;
1245.6000;0.0757;-0.9739;
1245.9000;0.0724;-0.9830;
1246.2000;0.0659;-1.0056;
1246.5000;0.0814;-0.9694;
1246.8000;0.0733;-0.9898;
1247.1000;0.0700;-0.9920;
1247.4000;0.0757;-0.9716;
1247.7000;0.0757;-0.9626;
1248.0000;0.0708;-0.9807;
1248.3000;0.0700;-0.9762;
1248.6000;0.0724;-0.9739;
1248.9000;0.0724;-0.9694;
1249.2000;0.0765;-0.9535;
1249.5000;0.0724;-0.9649;
1249.8000;0.0724;-0.9716;
1250.1000;0.0716;-0.9626;
1250.4000;0.0757;-0.9535;
1250.7000;0.0741;-0.9558;
1251.0000;0.0749;-0.9513;
1251.3000;0.0757;-0.9535;
1251.6000;0.0741;-0.9467;
1251.9000;0.0749;-0.9422;
1252.2000;0.0733;-0.9467;
1252.5000;0.0741;-0.9467;
1252.8000;0.0741;-0.9490;
1253.1000;0.0765;-0.9467;
1253.4000;0.0733;-0.9558;
1253.7000;0.0724;-0.9649;
1254.0000;0.0733;-0.9535;
1254.3000;0.0741;-0.9513;
1254.6000;0.0741;-0.9490;
1254.9000;0.0724;-0.9581;
1255.2000;0.0741;-0.9581;
1255.5000;0.0749;-0.9535;
1255.8000;0.0708;-0.9716;
1256.1000;0.0716;-0.9716;
1256.4000;0.0724;-0.9716;
1256.7000;0.0733;-0.9603;
1257.0000;0.0724;-0.9694;
1257.3000;0.0684;-0.9830;
1257.6000;0.0692;-0.9762;
1257.9000;0.0724;-0.9716;
1258.2000;0.0667;-0.9830;
1258.5000;0.0765;-0.9558;
1258.8000;0.0749;-0.9558;
1259.1000;0.0716;-0.9626;
1259.4000;0.0741;-0.9490;
1259.7000;0.0733;-0.9513;
1260.0000;0.0716;-0.9535;
1260.3000;0.0847;-0.9218;
1260.6000;0.0741;-0.9513;
1260.9000;0.0733;-0.9445;
1261.2000;0.0733;-0.9422;
1261.5000;0.0724;-0.9445;
1261.8000;0.0741;-0.9422;
1262.1000;0.0749;-0.9377;
1262.4000;0.0749;-0.9354;
1262.7000;0.0716;-0.9581;
1263.0000;0.0692;-0.9581;
1263.3000;0.0765;-0.9354;
1263.6000;0.0733;-0.9422;
1263.9000;0.0692;-0.9558;
1264.2000;0.0757;-0.9331;
1264.5000;0.0716;-0.9467;
1264.8000;0.0741;-0.9422;
1265.1000;0.0741;-0.9467;
1265.4000;0.0749;-0.9377;
1265.7000;0.0749;-0.9445;
1266.0000;0.0724;-0.9581;
1266.3000;0.0757;-0.9490;
1266.6000;0.0765;-0.9490;
1266.9000;0.0667;-0.9716;
1267.2000;0.0716;-0.9649;
1267.5000;0.0765;-0.9467;
1267.8000;0.0757;-0.9467;
1268.1000;0.0741;-0.9558;
1268.4000;0.0757;-0.9581;
1268.7000;0.0749;-0.9558;
1269.0000;0.0724;-0.9626;
1269.3000;0.0716;-0.9626;
1269.6000;0.0733;-0.9671;
1269.9000;0.0741;-0.9535;
1270.2000;0.0708;-0.9716;
1270.5000;0.0781;-0.9535;
1270.8000;0.0757;-0.9490;
1271.1000;0.0741;-0.9513;
1271.4000;0.0749;-0.9513;
1271.7000;0.0733;-0.9558;
1272.0000;0.0765;-0.9467;
1272.3000;0.0765;-0.9467;
1272.6000;0.0733;-0.9603;
1272.9000;0.0724;-0.9694;
1273.2000;0.0733;-0.9716;
1273.5000;0.0724;-0.9716;
1273.8000;0.0700;-0.9671;
1274.1000;0.0733;-0.9513;
1274.4000;0.0749;-0.9535;
1274.7000;0.0733;-0.9581;
1275.0000;0.0716;-0.9603;
1275.3000;0.0708;-0.9603;
1275.6000;0.0724;-0.9513;
1275.9000;0.0838;-0.9263;
1276.2000;0.0708;-0.9581;
1276.5000;0.0733;-0.9535;
1276.8000;0.0749;-0.9581;
1277.1000;0.0708;-0.9649;
1277.4000;0.0741;-0.9558;
1277.7000;0.0749;-0.9581;
1278.0000;0.0733;-0.9694;
1278.3000;0.0741;-0.9581;
1278.6000;0.0733;-0.9581;
1278.9000;0.0716;-0.9558;
1279.2000;0.0708;-0.9581;
1279.5000;0.0757;-0.9422;
1279.8000;0.0684;-0.9558;
1280.1000;0.0765;-0.9309;
1280.4000;0.0724;-0.9354;
1280.7000;0.0724;-0.9286;
1281.0000;0.0733;-0.9286;
1281.3000;0.0708;-0.9331;
1281.6000;0.0749;-0.9173;
1281.9000;0.0724;-0.9286;
1282.2000;0.0749;-0.9241;
1282.5000;0.0749;-0.9263;
1282.8000;0.0724;-0.9309;
1283.1000;0.0749;-0.9263;
1283.4000;0.0692;-0.9331;
1283.7000;0.0724;-0.9286;
1284.0000;0.0708;-0.9331;
1284.3000;0.0822;-0.9082;
1284.6000;0.0749;-0.9263;
1284.9000;0.0749;-0.9218;
1285.2000;0.0741;-0.9218;
1285.5000;0.0733;-0.9309;
1285.8000;0.0733;-0.9241;
1286.1000;0.0757;-0.9173;
1286.4000;0.0806;-0.9128;
1286.7000;0.0757;-0.9422;
1287.0000;0.0733;-0.9467;
1287.3000;0.0847;-0.9173;
1287.6000;0.0757;-0.9422;
1287.9000;0.0741;-0.9490;
1288.2000;0.0724;-0.9535;
1288.5000;0.0733;-0.9377;
1288.8000;0.0773;-0.9331;
1289.1000;0.0741;-0.9399;
1289.4000;0.0741;-0.9445;
1289.7000;0.0741;-0.9354;
1290.0000;0.0741;-0.9286;
1290.3000;0.0716;-0.9377;
1290.6000;0.0749;-0.9286;
1290.9000;0.0733;-0.9354;
1291.2000;0.0716;-0.9354;
1291.5000;0.0741;-0.9331;
1291.8000;0.0749;-0.9377;
1292.1000;0.0765;-0.9354;
1292.4000;0.0733;-0.9467;
1292.7000;0.0806;-0.9218;
1293.0000;0.0741;-0.9399;
1293.3000;0.0716;-0.9513;
1293.6000;0.0741;-0.9490;
1293.9000;0.0749;-0.9490;
1294.2000;0.0724;-0.9603;
1294.5000;0.0798;-0.9331;
1294.8000;0.0790;-0.9286;
1295.1000;0.0708;-0.9445;
1295.4000;0.0602;-0.9603;
1295.7000;0.0790;-0.9150;
1296.0000;0.0749;-0.9309;
1296.3000;0.0733;-0.9377;
1296.6000;0.0741;-0.9490;
1296.9000;0.0733;-0.9490;
1297.2000;0.0724;-0.9422;
1297.5000;0.0733;-0.9399;
1297.8000;0.0781;-0.9263;
1298.1000;0.0757;-0.9286;
1298.4000;0.0733;-0.9377;
1298.7000;0.0741;-0.9331;
1299.0000;0.0716;-0.9331;
1299.3000;0.0781;-0.9218;
1299.6000;0.0741;-0.9309;
1299.9000;0.0733;-0.9331;
1300.2000;0.0733;-0.9331;
1300.5000;0.0749;-0.9354;
1300.8000;0.0765;-0.9331;
1301.1000;0.0724;-0.9445;
1301.4000;0.0757;-0.9263;
1301.7000;0.0757;-0.9241;
1302.0000;0.0708;-0.9309;
1302.3000;0.0724;-0.9309;
1302.6000;0.0741;-0.9331;
1302.9000;0.0724;-0.9399;
1303.2000;0.0716;-0.9467;
1303.5000;0.0757;-0.9422;
1303.8000;0.0611;-0.9920;
1304.1000;0.0741;-0.9535;
1304.4000;0.0741;-0.9490;
1304.7000;0.0847;-0.9218;
1305.0000;0.0765;-0.9399;
1305.3000;0.0741;-0.9422;
1305.6000;0.0676;-0.9558;
1305.9000;0.0749;-0.9354;
1306.2000;0.0830;-0.9037;
1306.5000;0.0724;-0.9286;
1306.8000;0.0708;-0.9377;
1307.1000;0.0733;-0.9263;
1307.4000;0.0651;-0.9490;
1307.7000;0.0871;-0.8969;
1308.0000;0.0724;-0.9377;
1308.3000;0.0708;-0.9354;
1308.6000;0.0741;-0.9309;
1308.9000;0.0757;-0.9263;
1309.2000;0.0708;-0.9422;
1309.5000;0.0773;-0.9263;
1309.8000;0.0716;-0.9422;
1310.1000;0.0749;-0.9309;
1310.4000;0.0773;-0.9263;
1310.7000;0.0749;-0.9309;
1311.0000;0.0741;-0.9309;
1311.3000;0.0733;-0.9309;
1311.6000;0.0724;-0.9331;
1311.9000;0.0757;-0.9196;
1312.2000;0.0749;-0.9286;
1312.5000;0.0741;-0.9354;
1312.8000;0.0716;-0.9490;
1313.1000;0.0765;-0.9331;
1313.4000;0.0733;-0.9445;
1313.7000;0.0879;-0.9105;
1314.0000;0.0765;-0.9399;
1314.3000;0.0749;-0.9354;
1314.6000;0.0741;-0.9354;
1314.9000;0.0733;-0.9422;
1315.2000;0.0749;-0.9309;
1315.5000;0.0667;-0.9490;
1315.8000;0.0741;-0.9399;
1316.1000;0.0716;-0.9445;
1316.4000;0.0847;-0.9128;
1316.7000;0.0716;-0.9354;
1317.0000;0.0741;-0.9399;
1317.3000;0.0733;-0.9422;
1317.6000;0.0912;-0.8969;
1317.9000;0.0749;-0.9331;
1318.2000;0.0733;-0.9399;
1318.5000;0.0570;-0.9852;
1318.8000;0.0741;-0.9377;
1319.1000;0.0716;-0.9467;
1319.4000;0.0708;-0.9467;
1319.7000;0.0716;-0.9535;
1320.0000;0.0708;-0.9558;
1320.3000;0.0724;-0.9535;
1320.6000;0.0733;-0.9513;
1320.9000;0.0733;-0.9513;
1321.2000;0.0741;-0.9513;
1321.5000;0.0692;-0.9581;
1321.8000;0.0676;-0.9558;
1322.1000;0.0716;-0.9513;
1322.4000;0.0716;-0.9558;
1322.7000;0.0733;-0.9626;
1323.0000;0.0741;-0.9558;
1323.3000;0.0749;-0.9535;
1323.6000;0.0749;-0.9581;
1323.9000;0.0724;-0.9649;
1324.2000;0.0741;-0.9535;
1324.5000;0.0733;-0.9626;
1324.8000;0.0716;-0.9649;
1325.1000;0.0741;-0.9626;
1325.4000;0.0733;-0.9649;
1325.7000;0.0724;-0.9694;
1326.0000;0.0716;-0.9671;
1326.3000;0.0757;-0.9581;
1326.6000;0.0741;-0.9558;
1326.9000;0.0814;-0.9263;
1327.2000;0.0757;-0.9377;
1327.5000;0.0708;-0.9513;
1327.8000;0.0822;-0.9241;
1328.1000;0.0733;-0.9399;
1328.4000;0.0724;-0.9399;
1328.7000;0.0749;-0.9377;
1329.0000;0.0733;-0.9399;
1329.3000;0.0643;-0.9626;
1329.6000;0.0749;-0.9309;
1329.9000;0.0724;-0.9309;
1330.2000;0.0749;-0.9263;
1330.5000;0.0749;-0.9354;
1330.8000;0.0724;-0.9331;
1331.1000;0.0594;-0.9649;
1331.4000;0.0716;-0.9422;
1331.7000;0.0741;-0.9354;
1332.0000;0.0757;-0.9354;
1332.3000;0.0724;-0.9354;
1332.6000;0.0741;-0.9241;
1332.9000;0.0741;-0.9263;
1333.2000;0.0716;-0.9331;
1333.5000;0.0733;-0.9286;
1333.8000;0.0741;-0.9286;
1334.1000;0.0724;-0.9354;
1334.4000;0.0741;-0.9331;
1334.7000;0.0716;-0.9399;
1335.0000;0.0733;-0.9490;
1335.3000;0.0741;-0.9467;
1335.6000;0.0757;-0.9377;
1335.9000;0.0741;-0.9490;
1336.2000;0.0741;-0.9535;
1336.5000;0.0708;-0.9671;
1336.8000;0.0765;-0.9535;
1337.1000;0.0724;-0.9558;
1337.4000;0.0741;-0.9467;
1337.7000;0.0692;-0.9490;
1338.0000;0.0724;-0.9490;
1338.3000;0.0733;-0.9377;
1338.6000;0.0733;-0.9377;
1338.9000;0.0724;-0.9263;
1339.2000;0.0676;-0.9422;
1339.5000;0.0765;-0.9286;
1339.8000;0.0749;-0.9286;
1340.1000;0.0741;-0.9331;
1340.4000;0.0749;-0.9377;
1340.7000;0.0741;-0.9399;
1341.0000;0.0757;-0.9377;
1341.3000;0.0733;-0.9445;
1341.6000;0.0724;-0.9467;
1341.9000;0.0741;-0.9445;
1342.2000;0.0724;-0.9513;
1342.5000;0.0733;-0.9535;
1342.8000;0.0749;-0.9422;
1343.1000;0.0822;-0.9196;
1343.4000;0.0676;-0.9535;
1343.7000;0.0716;-0.9445;
1344.0000;0.0749;-0.9422;
1344.3000;0.0716;-0.9399;
1344.6000;0.0716;-0.9445;
1344.9000;0.0716;-0.9467;
1345.2000;0.0692;-0.9558;
1345.5000;0.0847;-0.9150;
1345.8000;0.0643;-0.9649;
1346.1000;0.0757;-0.9286;
1346.4000;0.0741;-0.9377;
1346.7000;0.0619;-0.9649;
1347.0000;0.0741;-0.9309;
1347.3000;0.0741;-0.9354;
1347.6000;0.0741;-0.9513;
1347.9000;0.0749;-0.9490;
1348.2000;0.0724;-0.9445;
1348.5000;0.0741;-0.9377;
1348.8000;0.0708;-0.9445;
1349.1000;0.0667;-0.9603;
1349.4000;0.0765;-0.9422;
1349.7000;0.0659;-0.9762;
1350.0000;0.0781;-0.9513;
1350.3000;0.0749;-0.9581;
1350.6000;0.0724;-0.9626;
1350.9000;0.0757;-0.9603;
1351.2000;0.0692;-0.9739;
1351.5000;0.0757;-0.9649;
1351.8000;0.0716;-0.9739;
1352.1000;0.0749;-0.9694;
1352.4000;0.0757;-0.9581;
1352.7000;0.0733;-0.9603;
1353.0000;0.0741;-0.9535;
1353.3000;0.0724;-0.9581;
1353.6000;0.0733;-0.9490;
1353.9000;0.0733;-0.9513;
1354.2000;0.0716;-0.9649;
1354.5000;0.0724;-0.9671;
1354.8000;0.0757;-0.9535;
1355.1000;0.0724;-0.9535;
1355.4000;0.0724;-0.9649;
1355.7000;0.0741;-0.9581;
1356.0000;0.0716;-0.9694;
1356.3000;0.0773;-0.9626;
1356.6000;0.0667;-0.9852;
1356.9000;0.0733;-0.9671;
1357.2000;0.0741;-0.9649;
1357.5000;0.0790;-0.9467;
1357.8000;0.0708;-0.9649;
1358.1000;0.0716;-0.9649;
1358.4000;0.0781;-0.9490;
1358.7000;0.0724;-0.9694;
1359.0000;0.0716;-0.9716;
1359.3000;0.0733;-0.9716;
1359.6000;0.0733;-0.9671;
1359.9000;0.0741;-0.9694;
1360.2000;0.0724;-0.9671;
1360.5000;0.0741;-0.9716;
1360.8000;0.0724;-0.9694;
1361.1000;0.0724;-0.9694;
1361.4000;0.0822;-0.9445;
1361.7000;0.0765;-0.9535;
1362.0000;0.0716;-0.9603;
1362.3000;0.0749;-0.9581;
1362.6000;0.0733;-0.9649;
1362.9000;0.0724;-0.9694;
1363.2000;0.0700;-0.9762;
1363.5000;0.0814;-0.9445;
1363.8000;0.0749;-0.9581;
1364.1000;0.0822;-0.9467;
1364.4000;0.0749;-0.9671;
1364.7000;0.0806;-0.9422;
1365.0000;0.0700;-0.9558;
1365.3000;0.0765;-0.9377;
1365.6000;0.0741;-0.9467;
1365.9000;0.0757;-0.9422;
1366.2000;0.0749;-0.9513;
1366.5000;0.0708;-0.9558;
1366.8000;0.0733;-0.9558;
1367.1000;0.0741;-0.9649;
1367.4000;0.0700;-0.9626;
1367.7000;0.0651;-0.9626;
1368.0000;0.0733;-0.9490;
1368.3000;0.0733;-0.9558;
1368.6000;0.0830;-0.9331;
1368.9000;0.0724;-0.9490;
1369.2000;0.0708;-0.9558;
1369.5000;0.0716;-0.9581;
1369.8000;0.0757;-0.9513;
1370.1000;0.0741;-0.9581;
1370.4000;0.0741;-0.9513;
1370.7000;0.0749;-0.9558;
1371.0000;0.0733;-0.9558;
1371.3000;0.0741;-0.9535;
1371.6000;0.0733;-0.9581;
1371.9000;0.0749;-0.9513;
1372.2000;0.0716;-0.9513;
1372.5000;0.0733;-0.9490;
1372.8000;0.0830;-0.9241;
1373.1000;0.0741;-0.9467;
1373.4000;0.0749;-0.9467;
1373.7000;0.0733;-0.9603;
1374.0000;0.0741;-0.9558;
1374.3000;0.0700;-0.9739;
1374.6000;0.0724;-0.9694;
1374.9000;0.0741;-0.9626;
1375.2000;0.0700;-0.9716;
1375.5000;0.0741;-0.9558;
1375.8000;0.0724;-0.9558;
1376.1000;0.0741;-0.9535;
1376.4000;0.0724;-0.9490;
1376.7000;0.0749;-0.9377;
1377.0000;0.0733;-0.9286;
1377.3000;0.0790;-0.9218;
1377.6000;0.0733;-0.9331;
1377.9000;0.0733;-0.9331;
1378.2000;0.0806;-0.9218;
1378.5000;0.0716;-0.9535;
1378.8000;0.0692;-0.9581;
1379.1000;0.0757;-0.9445;
1379.4000;0.0806;-0.9263;
1379.7000;0.0700;-0.9581;
1380.0000;0.0749;-0.9513;
1380.3000;0.0765;-0.9467;
1380.6000;0.0741;-0.9581;
1380.9000;0.0733;-0.9716;
1381.2000;0.0741;-0.9649;
1381.5000;0.0724;-0.9626;
1381.8000;0.0765;-0.9309;
1382.1000;0.0708;-0.9422;
1382.4000;0.0757;-0.9263;
1382.7000;0.0781;-0.9241;
1383.0000;0.0724;-0.9354;
1383.3000;0.0700;-0.9331;
1383.6000;0.0700;-0.9331;
1383.9000;0.0716;-0.9286;
1384.2000;0.0733;-0.9263;
1384.5000;0.0733;-0.9354;
1384.8000;0.0692;-0.9535;
1385.1000;0.0716;-0.9467;
1385.4000;0.0733;-0.9490;
1385.7000;0.0757;-0.9377;
1386.0000;0.0724;-0.9422;
1386.3000;0.0749;-0.9331;
1386.6000;0.0733;-0.9354;
1386.9000;0.0716;-0.9467;
1387.2000;0.0724;-0.9445;
1387.5000;0.0676;-0.9490;
1387.8000;0.0871;-0.8992;
1388.1000;0.0741;-0.9354;
1388.4000;0.0790;-0.9331;
1388.7000;0.0741;-0.9535;
1389.0000;0.0724;-0.9558;
1389.3000;0.0749;-0.9513;
1389.6000;0.0749;-0.9535;
1389.9000;0.0602;-0.9898;
1390.2000;0.0724;-0.9558;
1390.5000;0.0733;-0.9513;
1390.8000;0.0757;-0.9422;
1391.1000;0.0741;-0.9422;
1391.4000;0.0806;-0.9263;
1391.7000;0.0741;-0.9377;
1392.0000;0.0733;-0.9399;
1392.3000;0.0806;-0.9331;
1392.6000;0.0757;-0.9445;
1392.9000;0.0741;-0.9467;
1393.2000;0.0724;-0.9558;
1393.5000;0.0708;-0.9581;
1393.8000;0.0733;-0.9535;
1394.1000;0.0822;-0.9309;
1394.4000;0.0716;-0.9535;
1394.7000;0.0765;-0.9445;
1395.0000;0.0741;-0.9558;
1395.3000;0.0627;-0.9739;
1395.6000;0.0749;-0.9399;
1395.9000;0.0741;-0.9377;
1396.2000;0.0765;-0.9354;
1396.5000;0.0749;-0.9331;
1396.8000;0.0749;-0.9331;
1397.1000;0.0724;-0.9467;
1397.4000;0.0847;-0.9150;
1397.7000;0.0708;-0.9581;
1398.0000;0.0757;-0.9422;
1398.3000;0.0733;-0.9467;
1398.6000;0.0765;-0.9331;
1398.9000;0.0733;-0.9445;
1399.2000;0.0757;-0.9331;
1399.5000;0.0733;-0.9445;
1399.8000;0.0765;-0.9286;
