time/ms;Fluo/V;P700 deltaI/I x10³;
-199.8000;0.0830;-0.8810;
-199.5000;0.0838;-0.8878;
-199.2000;0.0847;-0.8901;
-198.9000;0.0838;-0.9014;
-198.6000;0.0863;-0.9037;
-198.3000;0.0838;-0.9037;
-198.0000;0.0838;-0.9037;
-197.7000;0.0863;-0.8969;
-197.4000;0.0855;-0.9060;
-197.1000;0.0863;-0.8969;
-196.8000;0.0822;-0.8992;
-196.5000;0.0863;-0.8924;
-196.2000;0.0830;-0.8924;
-195.9000;0.0838;-0.8924;
-195.6000;0.0806;-0.9060;
-195.3000;0.0838;-0.8856;
-195.0000;0.0830;-0.8946;
-194.7000;0.0806;-0.8969;
-194.4000;0.0814;-0.9014;
-194.1000;0.0855;-0.8856;
-193.8000;0.0814;-0.9014;
-193.5000;0.0838;-0.8969;
-193.2000;0.0855;-0.8901;
-192.9000;0.0814;-0.8924;
-192.6000;0.0814;-0.8878;
-192.3000;0.0871;-0.8788;
-192.0000;0.0822;-0.8901;
-191.7000;0.0838;-0.8810;
-191.4000;0.0855;-0.8743;
-191.1000;0.0855;-0.8743;
-190.8000;0.0838;-0.8765;
-190.5000;0.0830;-0.8765;
-190.2000;0.0855;-0.8720;
-189.9000;0.0838;-0.8856;
-189.6000;0.0838;-0.8878;
-189.3000;0.0822;-0.8901;
-189.0000;0.0904;-0.8652;
-188.7000;0.0847;-0.8810;
-188.4000;0.0806;-0.8833;
-188.1000;0.0814;-0.8878;
-187.8000;0.0806;-0.8878;
-187.5000;0.0863;-0.8810;
-187.2000;0.0830;-0.8856;
-186.9000;0.0838;-0.8924;
-186.6000;0.0855;-0.8946;
-186.3000;0.0855;-0.9060;
-186.0000;0.0708;-0.9535;
-185.7000;0.0830;-0.9173;
-185.4000;0.0814;-0.9082;
-185.1000;0.0790;-0.9014;
-184.8000;0.0830;-0.8901;
-184.5000;0.0920;-0.8652;
-184.2000;0.0822;-0.8901;
-183.9000;0.0830;-0.8901;
-183.6000;0.0838;-0.8878;
-183.3000;0.0912;-0.8810;
-183.0000;0.0814;-0.9082;
-182.7000;0.0847;-0.9060;
-182.4000;0.0814;-0.9105;
-182.1000;0.0822;-0.9128;
-181.8000;0.0822;-0.9105;
-181.5000;0.0822;-0.9037;
-181.2000;0.0773;-0.9196;
-180.9000;0.0830;-0.9060;
-180.6000;0.0741;-0.9286;
-180.3000;0.0716;-0.9331;
-180.0000;0.0871;-0.8901;
-179.7000;0.0790;-0.9173;
-179.4000;0.0798;-0.9173;
-179.1000;0.0847;-0.9082;
-178.8000;0.0830;-0.9105;
-178.5000;0.0838;-0.9128;
-178.2000;0.0814;-0.9105;
-177.9000;0.0781;-0.9196;
-177.6000;0.0920;-0.8924;
-177.3000;0.0838;-0.9196;
-177.0000;0.0912;-0.9082;
-176.7000;0.0822;-0.9241;
-176.4000;0.0863;-0.8969;
-176.1000;0.0838;-0.9014;
-175.8000;0.0855;-0.9037;
-175.5000;0.0790;-0.9150;
-175.2000;0.0830;-0.9082;
-174.9000;0.0814;-0.9173;
-174.6000;0.0830;-0.9105;
-174.3000;0.0838;-0.9105;
-174.0000;0.0847;-0.9014;
-173.7000;0.0798;-0.9128;
-173.4000;0.0830;-0.9060;
-173.1000;0.0814;-0.9128;
-172.8000;0.0773;-0.9309;
-172.5000;0.0863;-0.9173;
-172.2000;0.0847;-0.9196;
-171.9000;0.0830;-0.9173;
-171.6000;0.0830;-0.9128;
-171.3000;0.0863;-0.9014;
-171.0000;0.0847;-0.9014;
-170.7000;0.0887;-0.8924;
-170.4000;0.0887;-0.9037;
-170.1000;0.0879;-0.9105;
-169.8000;0.0830;-0.9150;
-169.5000;0.0830;-0.9060;
-169.2000;0.0863;-0.9014;
-168.9000;0.0798;-0.9173;
-168.6000;0.0822;-0.9173;
-168.3000;0.0847;-0.9150;
-168.0000;0.0847;-0.9105;
-167.7000;0.0855;-0.9105;
-167.4000;0.0814;-0.9150;
-167.1000;0.0847;-0.9037;
-166.8000;0.0830;-0.9037;
-166.5000;0.0838;-0.9060;
-166.2000;0.0847;-0.9014;
-165.9000;0.0822;-0.9060;
-165.6000;0.0822;-0.8969;
-165.3000;0.0847;-0.8924;
-165.0000;0.0847;-0.8969;
-164.7000;0.0822;-0.9060;
-164.4000;0.0822;-0.9082;
-164.1000;0.0765;-0.9173;
-163.8000;0.0863;-0.8992;
-163.5000;0.0838;-0.9037;
-163.2000;0.0855;-0.9014;
-162.9000;0.0822;-0.9150;
-162.6000;0.0871;-0.8969;
-162.3000;0.0871;-0.8969;
-162.0000;0.0757;-0.9218;
-161.7000;0.0814;-0.9082;
-161.4000;0.0814;-0.9060;
-161.1000;0.0912;-0.8833;
-160.8000;0.0855;-0.9014;
-160.5000;0.0830;-0.9060;
-160.2000;0.0879;-0.8992;
-159.9000;0.0741;-0.9354;
-159.6000;0.0798;-0.9241;
-159.3000;0.0847;-0.9105;
-159.0000;0.0912;-0.8901;
-158.7000;0.0814;-0.9196;
-158.4000;0.0838;-0.9173;
-158.1000;0.0904;-0.9060;
-157.8000;0.0822;-0.9218;
-157.5000;0.0806;-0.9286;
-157.2000;0.0904;-0.9037;
-156.9000;0.0814;-0.9263;
-156.6000;0.0830;-0.9241;
-156.3000;0.0952;-0.8878;
-156.0000;0.0887;-0.9037;
-155.7000;0.0904;-0.8946;
-155.4000;0.0871;-0.9105;
-155.1000;0.0830;-0.9263;
-154.8000;0.0838;-0.9354;
-154.5000;0.0830;-0.9377;
-154.2000;0.0781;-0.9490;
-153.9000;0.0847;-0.9377;
-153.6000;0.0765;-0.9558;
-153.3000;0.0847;-0.9354;
-153.0000;0.0814;-0.9354;
-152.7000;0.0838;-0.9263;
-152.4000;0.0806;-0.9309;
-152.1000;0.0838;-0.9309;
-151.8000;0.0847;-0.9241;
-151.5000;0.0879;-0.9173;
-151.2000;0.0855;-0.9196;
-150.9000;0.0830;-0.9263;
-150.6000;0.0838;-0.9196;
-150.3000;0.0830;-0.9263;
-150.0000;0.0822;-0.9286;
-149.7000;0.0920;-0.9037;
-149.4000;0.0838;-0.9218;
-149.1000;0.0814;-0.9241;
-148.8000;0.0838;-0.9196;
-148.5000;0.0838;-0.9241;
-148.2000;0.0838;-0.9241;
-147.9000;0.0798;-0.9399;
-147.6000;0.0855;-0.9286;
-147.3000;0.0838;-0.9241;
-147.0000;0.0830;-0.9286;
-146.7000;0.0830;-0.9218;
-146.4000;0.0920;-0.8992;
-146.1000;0.0855;-0.9128;
-145.8000;0.0830;-0.9082;
-145.5000;0.0806;-0.9196;
-145.2000;0.0838;-0.9082;
-144.9000;0.0838;-0.9037;
-144.6000;0.0912;-0.8856;
-144.3000;0.0863;-0.8992;
-144.0000;0.0814;-0.9128;
-143.7000;0.0838;-0.9060;
-143.4000;0.0838;-0.9128;
-143.1000;0.0838;-0.9060;
-142.8000;0.0822;-0.9014;
-142.5000;0.0806;-0.8856;
-142.2000;0.0838;-0.8765;
-141.9000;0.0895;-0.8675;
-141.6000;0.0814;-0.8833;
-141.3000;0.0830;-0.8788;
-141.0000;0.0838;-0.8788;
-140.7000;0.0830;-0.8924;
-140.4000;0.0830;-0.8833;
-140.1000;0.0847;-0.8810;
-139.8000;0.0830;-0.8788;
-139.5000;0.0838;-0.8788;
-139.2000;0.0814;-0.8833;
-138.9000;0.0781;-0.8946;
-138.6000;0.0806;-0.8901;
-138.3000;0.0855;-0.8788;
-138.0000;0.0920;-0.8471;
-137.7000;0.0822;-0.8697;
-137.4000;0.0822;-0.8675;
-137.1000;0.0822;-0.8743;
-136.8000;0.0806;-0.8810;
-136.5000;0.0871;-0.8720;
-136.2000;0.0822;-0.8878;
-135.9000;0.0806;-0.8901;
-135.6000;0.0863;-0.8788;
-135.3000;0.0798;-0.8946;
-135.0000;0.0838;-0.8788;
-134.7000;0.0838;-0.8765;
-134.4000;0.0838;-0.8833;
-134.1000;0.0871;-0.8765;
-133.8000;0.0822;-0.8810;
-133.5000;0.0838;-0.8810;
-133.2000;0.0830;-0.8878;
-132.9000;0.0855;-0.8788;
-132.6000;0.0806;-0.8946;
-132.3000;0.0822;-0.8946;
-132.0000;0.0855;-0.8856;
-131.7000;0.0781;-0.9060;
-131.4000;0.0838;-0.8901;
-131.1000;0.0855;-0.8901;
-130.8000;0.0838;-0.8924;
-130.5000;0.0830;-0.8969;
-130.2000;0.0838;-0.9014;
-129.9000;0.0806;-0.9037;
-129.6000;0.0822;-0.9014;
-129.3000;0.0838;-0.8992;
-129.0000;0.0814;-0.9082;
-128.7000;0.0855;-0.8833;
-128.4000;0.0822;-0.8833;
-128.1000;0.0838;-0.8833;
-127.8000;0.0847;-0.8878;
-127.5000;0.0838;-0.8969;
-127.2000;0.0822;-0.8878;
-126.9000;0.0838;-0.8833;
-126.6000;0.0855;-0.8856;
-126.3000;0.0822;-0.8992;
-126.0000;0.0838;-0.8924;
-125.7000;0.0773;-0.9014;
-125.4000;0.0822;-0.8969;
-125.1000;0.0814;-0.9014;
-124.8000;0.0814;-0.8992;
-124.5000;0.0838;-0.8810;
-124.2000;0.0969;-0.8471;
-123.9000;0.0830;-0.8743;
-123.6000;0.0887;-0.8652;
-123.3000;0.0798;-0.8969;
-123.0000;0.0830;-0.8856;
-122.7000;0.0855;-0.8720;
-122.4000;0.0838;-0.8856;
-122.1000;0.0847;-0.8810;
-121.8000;0.0855;-0.8743;
-121.5000;0.0863;-0.8833;
-121.2000;0.0838;-0.8743;
-120.9000;0.0855;-0.8765;
-120.6000;0.0830;-0.8765;
-120.3000;0.0863;-0.8720;
-120.0000;0.0830;-0.8810;
-119.7000;0.0806;-0.8946;
-119.4000;0.0814;-0.8969;
-119.1000;0.0847;-0.8878;
-118.8000;0.0822;-0.9037;
-118.5000;0.0822;-0.9082;
-118.2000;0.0855;-0.8969;
-117.9000;0.0814;-0.9060;
-117.6000;0.0838;-0.8969;
-117.3000;0.0871;-0.8924;
-117.0000;0.0757;-0.9218;
-116.7000;0.0822;-0.9014;
-116.4000;0.0855;-0.8969;
-116.1000;0.0806;-0.9082;
-115.8000;0.0806;-0.8992;
-115.5000;0.0847;-0.8856;
-115.2000;0.0806;-0.8946;
-114.9000;0.0838;-0.8901;
-114.6000;0.0733;-0.9173;
-114.3000;0.0847;-0.8969;
-114.0000;0.0838;-0.9014;
-113.7000;0.0830;-0.9037;
-113.4000;0.0773;-0.9173;
-113.1000;0.0847;-0.8901;
-112.8000;0.0822;-0.8992;
-112.5000;0.0830;-0.9060;
-112.2000;0.0855;-0.9082;
-111.9000;0.0814;-0.9128;
-111.6000;0.0838;-0.9082;
-111.3000;0.0847;-0.9105;
-111.0000;0.0822;-0.9218;
-110.7000;0.0822;-0.9263;
-110.4000;0.0838;-0.9196;
-110.1000;0.0847;-0.9128;
-109.8000;0.0847;-0.9060;
-109.5000;0.0822;-0.9173;
-109.2000;0.0847;-0.9128;
-108.9000;0.0879;-0.9150;
-108.6000;0.0708;-0.9671;
-108.3000;0.0822;-0.9422;
-108.0000;0.0830;-0.9286;
-107.7000;0.0708;-0.9535;
-107.4000;0.0830;-0.9196;
-107.1000;0.0822;-0.9150;
-106.8000;0.0847;-0.9082;
-106.5000;0.0838;-0.9173;
-106.2000;0.0855;-0.9082;
-105.9000;0.0879;-0.9060;
-105.6000;0.0798;-0.9196;
-105.3000;0.0822;-0.9060;
-105.0000;0.0863;-0.9014;
-104.7000;0.0822;-0.9014;
-104.4000;0.0765;-0.9196;
-104.1000;0.0855;-0.9105;
-103.8000;0.0830;-0.9150;
-103.5000;0.0847;-0.9173;
-103.2000;0.0814;-0.9241;
-102.9000;0.0928;-0.9014;
-102.6000;0.0798;-0.9377;
-102.3000;0.0928;-0.9037;
-102.0000;0.0855;-0.9196;
-101.7000;0.0847;-0.9218;
-101.4000;0.0847;-0.9218;
-101.1000;0.0847;-0.9128;
-100.8000;0.0863;-0.9014;
-100.5000;0.0830;-0.9082;
-100.2000;0.0855;-0.9014;
-99.9000;0.0871;-0.8946;
-99.6000;0.0838;-0.9128;
-99.3000;0.0781;-0.9309;
-99.0000;0.0847;-0.9105;
-98.7000;0.0838;-0.9150;
-98.4000;0.0773;-0.9422;
-98.1000;0.0822;-0.9263;
-97.8000;0.0847;-0.9060;
-97.5000;0.0838;-0.9014;
-97.2000;0.0920;-0.8810;
-96.9000;0.0928;-0.8743;
-96.6000;0.0838;-0.8924;
-96.3000;0.0855;-0.8878;
-96.0000;0.0855;-0.8878;
-95.7000;0.0822;-0.8946;
-95.4000;0.0814;-0.8878;
-95.1000;0.0847;-0.8946;
-94.8000;0.0830;-0.9014;
-94.5000;0.0977;-0.8675;
-94.2000;0.0814;-0.9128;
-93.9000;0.0822;-0.9196;
-93.6000;0.0830;-0.9150;
-93.3000;0.0806;-0.9173;
-93.0000;0.0863;-0.9128;
-92.7000;0.0806;-0.9263;
-92.4000;0.0830;-0.9173;
-92.1000;0.0847;-0.9128;
-91.8000;0.0822;-0.9196;
-91.5000;0.0830;-0.9150;
-91.2000;0.0733;-0.9445;
-90.9000;0.0830;-0.9286;
-90.6000;0.0855;-0.9150;
-90.3000;0.0879;-0.9082;
-90.0000;0.0871;-0.9196;
-89.7000;0.0847;-0.9286;
-89.4000;0.0855;-0.9286;
-89.1000;0.0855;-0.9263;
-88.8000;0.0806;-0.9399;
-88.5000;0.0830;-0.9309;
-88.2000;0.0838;-0.9286;
-87.9000;0.0733;-0.9490;
-87.6000;0.0798;-0.9354;
-87.3000;0.0830;-0.9354;
-87.0000;0.0806;-0.9422;
-86.7000;0.0814;-0.9377;
-86.4000;0.0830;-0.9399;
-86.1000;0.0741;-0.9671;
-85.8000;0.0904;-0.9263;
-85.5000;0.0879;-0.9354;
-85.2000;0.0822;-0.9513;
-84.9000;0.0838;-0.9467;
-84.6000;0.0904;-0.9309;
-84.3000;0.0838;-0.9399;
-84.0000;0.0830;-0.9354;
-83.7000;0.0692;-0.9807;
-83.4000;0.0822;-0.9445;
-83.1000;0.0879;-0.9377;
-82.8000;0.0822;-0.9422;
-82.5000;0.0822;-0.9422;
-82.2000;0.0822;-0.9399;
-81.9000;0.0814;-0.9422;
-81.6000;0.0863;-0.9331;
-81.3000;0.0847;-0.9399;
-81.0000;0.0822;-0.9399;
-80.7000;0.0830;-0.9354;
-80.4000;0.0855;-0.9286;
-80.1000;0.0838;-0.9377;
-79.8000;0.0838;-0.9331;
-79.5000;0.0838;-0.9309;
-79.2000;0.0847;-0.9309;
-78.9000;0.0765;-0.9490;
-78.6000;0.0863;-0.9241;
-78.3000;0.0879;-0.9286;
-78.0000;0.0838;-0.9422;
-77.7000;0.0822;-0.9422;
-77.4000;0.0830;-0.9490;
-77.1000;0.0838;-0.9467;
-76.8000;0.0838;-0.9467;
-76.5000;0.0830;-0.9422;
-76.2000;0.0814;-0.9445;
-75.9000;0.0871;-0.9354;
-75.6000;0.0855;-0.9286;
-75.3000;0.0822;-0.9422;
-75.0000;0.0847;-0.9309;
-74.7000;0.0830;-0.9309;
-74.4000;0.0855;-0.9331;
-74.1000;0.0814;-0.9331;
-73.8000;0.0895;-0.9128;
-73.5000;0.0847;-0.9286;
-73.2000;0.0912;-0.9105;
-72.9000;0.0838;-0.9263;
-72.6000;0.0822;-0.9263;
-72.3000;0.0838;-0.9286;
-72.0000;0.0855;-0.9173;
-71.7000;0.0895;-0.8946;
-71.4000;0.0863;-0.9105;
-71.1000;0.0847;-0.9150;
-70.8000;0.0863;-0.9196;
-70.5000;0.0733;-0.9626;
-70.2000;0.0830;-0.9467;
-69.9000;0.0830;-0.9535;
-69.6000;0.0765;-0.9649;
-69.3000;0.0830;-0.9399;
-69.0000;0.0838;-0.9309;
-68.7000;0.0822;-0.9309;
-68.4000;0.0847;-0.9286;
-68.1000;0.0814;-0.9445;
-67.8000;0.0847;-0.9309;
-67.5000;0.0895;-0.9150;
-67.2000;0.0757;-0.9490;
-66.9000;0.0887;-0.9014;
-66.6000;0.0814;-0.9128;
-66.3000;0.0790;-0.9060;
-66.0000;0.0806;-0.9037;
-65.7000;0.0830;-0.9150;
-65.4000;0.0838;-0.9196;
-65.1000;0.0822;-0.9286;
-64.8000;0.0838;-0.9263;
-64.5000;0.0871;-0.9218;
-64.2000;0.0855;-0.9173;
-63.9000;0.0814;-0.9263;
-63.6000;0.0904;-0.9082;
-63.3000;0.0847;-0.9196;
-63.0000;0.0847;-0.9309;
-62.7000;0.0879;-0.9150;
-62.4000;0.0838;-0.9241;
-62.1000;0.0904;-0.9128;
-61.8000;0.0773;-0.9422;
-61.5000;0.0847;-0.9173;
-61.2000;0.0781;-0.9354;
-60.9000;0.0920;-0.8969;
-60.6000;0.0847;-0.9105;
-60.3000;0.0830;-0.9173;
-60.0000;0.0871;-0.9082;
-59.7000;0.0814;-0.9150;
-59.4000;0.0863;-0.9082;
-59.1000;0.0838;-0.9105;
-58.8000;0.0838;-0.9150;
-58.5000;0.0830;-0.9218;
-58.2000;0.0838;-0.9196;
-57.9000;0.0716;-0.9490;
-57.6000;0.0822;-0.9263;
-57.3000;0.0822;-0.9309;
-57.0000;0.0871;-0.9196;
-56.7000;0.0822;-0.9286;
-56.4000;0.0847;-0.9286;
-56.1000;0.0814;-0.9354;
-55.8000;0.0838;-0.9331;
-55.5000;0.0863;-0.9286;
-55.2000;0.0814;-0.9445;
-54.9000;0.0887;-0.9331;
-54.6000;0.0814;-0.9490;
-54.3000;0.0822;-0.9535;
-54.0000;0.0847;-0.9377;
-53.7000;0.0822;-0.9422;
-53.4000;0.0847;-0.9286;
-53.1000;0.0822;-0.9354;
-52.8000;0.0830;-0.9309;
-52.5000;0.0830;-0.9331;
-52.2000;0.0847;-0.9286;
-51.9000;0.0847;-0.9331;
-51.6000;0.0822;-0.9399;
-51.3000;0.0822;-0.9467;
-51.0000;0.0838;-0.9377;
-50.7000;0.0855;-0.9241;
-50.4000;0.0838;-0.9309;
-50.1000;0.0838;-0.9354;
-49.8000;0.0765;-0.9626;
-49.5000;0.0847;-0.9445;
-49.2000;0.0855;-0.9377;
-48.9000;0.0757;-0.9581;
-48.6000;0.0822;-0.9354;
-48.3000;0.0838;-0.9309;
-48.0000;0.0830;-0.9331;
-47.7000;0.0855;-0.9196;
-47.4000;0.0879;-0.9128;
-47.1000;0.0822;-0.9286;
-46.8000;0.0855;-0.9218;
-46.5000;0.0847;-0.9196;
-46.2000;0.0830;-0.9196;
-45.9000;0.0847;-0.9218;
-45.6000;0.0741;-0.9513;
-45.3000;0.0822;-0.9241;
-45.0000;0.0847;-0.9218;
-44.7000;0.0814;-0.9377;
-44.4000;0.0806;-0.9422;
-44.1000;0.0838;-0.9331;
-43.8000;0.0838;-0.9286;
-43.5000;0.0798;-0.9377;
-43.2000;0.0838;-0.9196;
-42.9000;0.0741;-0.9445;
-42.6000;0.0830;-0.9196;
-42.3000;0.0863;-0.9128;
-42.0000;0.0830;-0.9241;
-41.7000;0.0855;-0.9241;
-41.4000;0.0863;-0.9173;
-41.1000;0.0847;-0.9241;
-40.8000;0.0814;-0.9309;
-40.5000;0.0847;-0.9241;
-40.2000;0.0806;-0.9377;
-39.9000;0.0822;-0.9422;
-39.6000;0.0830;-0.9331;
-39.3000;0.0847;-0.9241;
-39.0000;0.0781;-0.9490;
-38.7000;0.0830;-0.9422;
-38.4000;0.0847;-0.9467;
-38.1000;0.0830;-0.9422;
-37.8000;0.0847;-0.9513;
-37.5000;0.0847;-0.9535;
-37.2000;0.0806;-0.9649;
-36.9000;0.0855;-0.9535;
-36.6000;0.0830;-0.9513;
-36.3000;0.0847;-0.9467;
-36.0000;0.0912;-0.9286;
-35.7000;0.0855;-0.9490;
-35.4000;0.0838;-0.9490;
-35.1000;0.0855;-0.9422;
-34.8000;0.0684;-0.9875;
-34.5000;0.0855;-0.9422;
-34.2000;0.0855;-0.9422;
-33.9000;0.0830;-0.9513;
-33.6000;0.0838;-0.9399;
-33.3000;0.0822;-0.9422;
-33.0000;0.0863;-0.9309;
-32.7000;0.0847;-0.9309;
-32.4000;0.0838;-0.9331;
-32.1000;0.0830;-0.9399;
-31.8000;0.0814;-0.9445;
-31.5000;0.0814;-0.9445;
-31.2000;0.0863;-0.9309;
-30.9000;0.0912;-0.9218;
-30.6000;0.0838;-0.9399;
-30.3000;0.0863;-0.9263;
-30.0000;0.0806;-0.9445;
-29.7000;0.0822;-0.9422;
-29.4000;0.0822;-0.9422;
-29.1000;0.0830;-0.9331;
-28.8000;0.0830;-0.9354;
-28.5000;0.0822;-0.9331;
-28.2000;0.0790;-0.9331;
-27.9000;0.0838;-0.9309;
-27.6000;0.0855;-0.9309;
-27.3000;0.0855;-0.9354;
-27.0000;0.0838;-0.9331;
-26.7000;0.0855;-0.9286;
-26.4000;0.0871;-0.9354;
-26.1000;0.0830;-0.9422;
-25.8000;0.0806;-0.9377;
-25.5000;0.0920;-0.9150;
-25.2000;0.0838;-0.9445;
-24.9000;0.0838;-0.9354;
-24.6000;0.0757;-0.9535;
-24.3000;0.0822;-0.9309;
-24.0000;0.0814;-0.9377;
-23.7000;0.0838;-0.9377;
-23.4000;0.0814;-0.9399;
-23.1000;0.0838;-0.9286;
-22.8000;0.0847;-0.9309;
-22.5000;0.0838;-0.9377;
-22.2000;0.0830;-0.9331;
-21.9000;0.0838;-0.9377;
-21.6000;0.0855;-0.9331;
-21.3000;0.0814;-0.9286;
-21.0000;0.0814;-0.9241;
-20.7000;0.0847;-0.9082;
-20.4000;0.0830;-0.9082;
-20.1000;0.0822;-0.9150;
-19.8000;0.0830;-0.9218;
-19.5000;0.0822;-0.9241;
-19.2000;0.0806;-0.9241;
-18.9000;0.0822;-0.9173;
-18.6000;0.0830;-0.9060;
-18.3000;0.0814;-0.9105;
-18.0000;0.0822;-0.9241;
-17.7000;0.0773;-0.9354;
-17.4000;0.0814;-0.9105;
-17.1000;0.0830;-0.9082;
-16.8000;0.0830;-0.9082;
-16.5000;0.0863;-0.8992;
-16.2000;0.0700;-0.9399;
-15.9000;0.0822;-0.9173;
-15.6000;0.0887;-0.9037;
-15.3000;0.0855;-0.9196;
-15.0000;0.0863;-0.9150;
-14.7000;0.0724;-0.9490;
-14.4000;0.0830;-0.9263;
-14.1000;0.0838;-0.9286;
-13.8000;0.0765;-0.9445;
-13.5000;0.0855;-0.9241;
-13.2000;0.0847;-0.9286;
-12.9000;0.0847;-0.9286;
-12.6000;0.0814;-0.9354;
-12.3000;0.0847;-0.9354;
-12.0000;0.0855;-0.9331;
-11.7000;0.0822;-0.9445;
-11.4000;0.0838;-0.9467;
-11.1000;0.0863;-0.9354;
-10.8000;0.0814;-0.9445;
-10.5000;0.0814;-0.9467;
-10.2000;0.0822;-0.9377;
-9.9000;0.0847;-0.9286;
-9.6000;0.0806;-0.9399;
-9.3000;0.0798;-0.9422;
-9.0000;0.0830;-0.9377;
-8.7000;0.0830;-0.9377;
-8.4000;0.0814;-0.9399;
-8.1000;0.0822;-0.9331;
-7.8000;0.0838;-0.9309;
-7.5000;0.0855;-0.9263;
-7.2000;0.0838;-0.9309;
-6.9000;0.0863;-0.9218;
-6.6000;0.0838;-0.9377;
-6.3000;0.0855;-0.9445;
-6.0000;0.0855;-0.9422;
-5.7000;0.0822;-0.9467;
-5.4000;0.0716;-0.9671;
-5.1000;0.0830;-0.9354;
-4.8000;0.0806;-0.9422;
-4.5000;0.0847;-0.9263;
-4.2000;0.0798;-0.9286;
-3.9000;0.0863;-0.9128;
-3.6000;0.0806;-0.9218;
-3.3000;0.0838;-0.9196;
-3.0000;0.0838;-0.9218;
-2.7000;0.0822;-0.9286;
-2.4000;0.0806;-0.9263;
-2.1000;0.0855;-0.9173;
-1.8000;0.0790;-0.9286;
-1.5000;0.0822;-0.9196;
-1.2000;0.0830;-0.9150;
-0.9000;0.0847;-0.9128;
-0.6000;0.0847;-0.9128;
-0.3000;0.0855;-0.9173;
0.0000;0.0855;-0.9173;
0.3000;0.0912;-0.9014;
0.6000;0.0847;-0.9150;
0.9000;0.0887;-0.9060;
1.2000;0.0798;-0.9150;
1.5000;0.0871;-0.8969;
1.8000;0.0863;-0.8878;
2.1000;0.0863;-0.8720;
2.4000;0.0863;-0.8697;
2.7000;0.0838;-0.8765;
3.0000;0.0912;-0.8584;
3.3000;0.0879;-0.8629;
3.6000;0.0855;-0.8539;
3.9000;0.0928;-0.8290;
4.2000;0.0879;-0.8380;
4.5000;0.0920;-0.8312;
4.8000;0.0887;-0.8380;
5.1000;0.0887;-0.8471;
5.4000;0.0912;-0.8403;
5.7000;0.1001;-0.8154;
6.0000;0.0863;-0.8425;
6.3000;0.0847;-0.8471;
6.6000;0.0895;-0.8267;
6.9000;0.0944;-0.8131;
7.2000;0.0879;-0.8199;
7.5000;0.1026;-0.7859;
7.8000;0.0912;-0.8063;
8.1000;0.0912;-0.8086;
8.4000;0.0944;-0.8018;
8.7000;0.0895;-0.8222;
9.0000;0.0977;-0.7995;
9.3000;0.0838;-0.8312;
9.6000;0.0912;-0.8108;
9.9000;0.0790;-0.8425;
10.2000;0.0847;-0.8358;
10.5000;0.0969;-0.8040;
10.8000;0.0895;-0.8131;
11.1000;0.0912;-0.8086;
11.4000;0.0895;-0.8086;
11.7000;0.0895;-0.8154;
12.0000;0.0904;-0.8131;
12.3000;0.0904;-0.8199;
12.6000;0.0871;-0.8267;
12.9000;0.0944;-0.8154;
13.2000;0.0895;-0.8199;
13.5000;0.0912;-0.8176;
13.8000;0.0863;-0.8244;
14.1000;0.0847;-0.8199;
14.4000;0.0904;-0.8108;
14.7000;0.0871;-0.8131;
15.0000;0.0887;-0.8176;
15.3000;0.0895;-0.8267;
15.6000;0.0961;-0.7972;
15.9000;0.0879;-0.8131;
16.2000;0.0887;-0.8131;
16.5000;0.0895;-0.8063;
16.8000;0.0920;-0.7995;
17.1000;0.0879;-0.8086;
17.4000;0.0887;-0.7995;
17.7000;0.0895;-0.7972;
18.0000;0.0920;-0.7905;
18.3000;0.0920;-0.7905;
18.6000;0.0912;-0.7950;
18.9000;0.0920;-0.7972;
19.2000;0.0887;-0.8108;
19.5000;0.0936;-0.7972;
19.8000;0.0912;-0.7995;
20.1000;0.0936;-0.7950;
20.4000;0.0904;-0.8018;
20.7000;0.0912;-0.8040;
21.0000;0.0887;-0.8086;
21.3000;0.0895;-0.8018;
21.6000;0.0895;-0.8040;
21.9000;0.0920;-0.7972;
22.2000;0.0879;-0.7995;
22.5000;0.0928;-0.7905;
22.8000;0.0895;-0.7927;
23.1000;0.0895;-0.7972;
23.4000;0.0904;-0.7859;
23.7000;0.0887;-0.7927;
24.0000;0.0961;-0.7814;
24.3000;0.0904;-0.7950;
24.6000;0.0985;-0.7837;
24.9000;0.0871;-0.8108;
25.2000;0.0879;-0.8018;
25.5000;0.0920;-0.8040;
25.8000;0.0895;-0.8086;
26.1000;0.0887;-0.8222;
26.4000;0.0879;-0.8267;
26.7000;0.0855;-0.8222;
27.0000;0.0879;-0.8108;
27.3000;0.0912;-0.8176;
27.6000;0.0887;-0.8290;
27.9000;0.0879;-0.8244;
28.2000;0.0904;-0.8176;
28.5000;0.0895;-0.8086;
28.8000;0.0936;-0.7927;
29.1000;0.0904;-0.8040;
29.4000;0.0952;-0.7927;
29.7000;0.0961;-0.7950;
30.0000;0.0855;-0.8176;
30.3000;0.0887;-0.8040;
30.6000;0.0912;-0.8018;
30.9000;0.1026;-0.7769;
31.2000;0.0920;-0.8040;
31.5000;0.0847;-0.8199;
31.8000;0.0863;-0.8222;
32.1000;0.0928;-0.8040;
32.4000;0.0944;-0.7950;
32.7000;0.0912;-0.7995;
33.0000;0.0887;-0.8086;
33.3000;0.0912;-0.8018;
33.6000;0.0920;-0.8018;
33.9000;0.0969;-0.7995;
34.2000;0.0895;-0.8040;
34.5000;0.0847;-0.8154;
34.8000;0.0904;-0.8040;
35.1000;0.0895;-0.8018;
35.4000;0.0944;-0.7927;
35.7000;0.0904;-0.8018;
36.0000;0.0895;-0.7972;
36.3000;0.0920;-0.7950;
36.6000;0.0879;-0.8063;
36.9000;0.0895;-0.8086;
37.2000;0.0904;-0.8086;
37.5000;0.0912;-0.8154;
37.8000;0.0904;-0.8131;
38.1000;0.0928;-0.8018;
38.4000;0.0944;-0.8018;
38.7000;0.0936;-0.8018;
39.0000;0.0904;-0.8108;
39.3000;0.0895;-0.8086;
39.6000;0.0855;-0.8290;
39.9000;0.0912;-0.8131;
40.2000;0.0887;-0.8222;
40.5000;0.0879;-0.8267;
40.8000;0.0904;-0.8131;
41.1000;0.0887;-0.8131;
41.4000;0.0879;-0.8199;
41.7000;0.0879;-0.8199;
42.0000;0.0895;-0.8154;
42.3000;0.0871;-0.8222;
42.6000;0.0904;-0.8222;
42.9000;0.0879;-0.8267;
43.2000;0.0936;-0.8086;
43.5000;0.0904;-0.8222;
43.8000;0.0928;-0.8063;
44.1000;0.0895;-0.8131;
44.4000;0.0912;-0.8063;
44.7000;0.0904;-0.8131;
45.0000;0.0871;-0.8290;
45.3000;0.0912;-0.8244;
45.6000;0.0912;-0.8244;
45.9000;0.0928;-0.8108;
46.2000;0.1001;-0.7950;
46.5000;0.0830;-0.8335;
46.8000;0.0871;-0.8335;
47.1000;0.0895;-0.8222;
47.4000;0.0879;-0.8267;
47.7000;0.0920;-0.8086;
48.0000;0.0928;-0.8063;
48.3000;0.0879;-0.8176;
48.6000;0.0985;-0.7927;
48.9000;0.0863;-0.8131;
49.2000;0.0879;-0.8108;
49.5000;0.0895;-0.8108;
49.8000;0.0936;-0.7995;
50.1000;0.0895;-0.8063;
50.4000;0.0904;-0.8176;
50.7000;0.0895;-0.8267;
51.0000;0.0879;-0.8312;
51.3000;0.0887;-0.8335;
51.6000;0.0879;-0.8403;
51.9000;0.0912;-0.8244;
52.2000;0.0952;-0.8040;
52.5000;0.0936;-0.8086;
52.8000;0.0887;-0.8199;
53.1000;0.0928;-0.8063;
53.4000;0.0887;-0.8176;
53.7000;0.1018;-0.7905;
54.0000;0.0912;-0.8108;
54.3000;0.0928;-0.8131;
54.6000;0.0928;-0.8131;
54.9000;0.1009;-0.7905;
55.2000;0.0895;-0.8131;
55.5000;0.0895;-0.8154;
55.8000;0.0895;-0.8176;
56.1000;0.0904;-0.8176;
56.4000;0.0895;-0.8244;
56.7000;0.0904;-0.8312;
57.0000;0.0814;-0.8493;
57.3000;0.0928;-0.8199;
57.6000;0.0912;-0.8131;
57.9000;0.0912;-0.8131;
58.2000;0.1034;-0.7882;
58.5000;0.0904;-0.8108;
58.8000;0.0928;-0.8063;
59.1000;0.0895;-0.8108;
59.4000;0.0936;-0.8018;
59.7000;0.0936;-0.8040;
60.0000;0.0895;-0.8108;
60.3000;0.0985;-0.7882;
60.6000;0.0887;-0.8086;
60.9000;0.0887;-0.8040;
61.2000;0.0830;-0.8154;
61.5000;0.0920;-0.8018;
61.8000;0.0904;-0.8154;
62.1000;0.0904;-0.8108;
62.4000;0.0887;-0.8176;
62.7000;0.0961;-0.7950;
63.0000;0.0887;-0.8040;
63.3000;0.0928;-0.7882;
63.6000;0.0847;-0.8108;
63.9000;0.0879;-0.8063;
64.2000;0.0895;-0.7972;
64.5000;0.0895;-0.7972;
64.8000;0.0928;-0.7950;
65.1000;0.0863;-0.8108;
65.4000;0.0904;-0.8063;
65.7000;0.0879;-0.8199;
66.0000;0.1018;-0.7814;
66.3000;0.0952;-0.7905;
66.6000;0.0920;-0.8018;
66.9000;0.0895;-0.8086;
67.2000;0.0879;-0.8108;
67.5000;0.0928;-0.8040;
67.8000;0.0863;-0.8154;
68.1000;0.0887;-0.8131;
68.4000;0.0912;-0.8040;
68.7000;0.0912;-0.7995;
69.0000;0.0928;-0.7972;
69.3000;0.0895;-0.8018;
69.6000;0.0904;-0.8040;
69.9000;0.0904;-0.8086;
70.2000;0.0904;-0.8018;
70.5000;0.0895;-0.8086;
70.8000;0.0912;-0.8063;
71.1000;0.0895;-0.7927;
71.4000;0.0806;-0.8176;
71.7000;0.0912;-0.7882;
72.0000;0.0887;-0.7972;
72.3000;0.0847;-0.8018;
72.6000;0.0895;-0.7927;
72.9000;0.0879;-0.7995;
73.2000;0.0887;-0.7950;
73.5000;0.0969;-0.7769;
73.8000;0.0887;-0.7859;
74.1000;0.0912;-0.7746;
74.4000;0.0920;-0.7723;
74.7000;0.0879;-0.7859;
75.0000;0.0830;-0.8063;
75.3000;0.0920;-0.7837;
75.6000;0.0887;-0.7927;
75.9000;0.0920;-0.7837;
76.2000;0.0904;-0.7927;
76.5000;0.0904;-0.7882;
76.8000;0.0895;-0.7927;
77.1000;0.0920;-0.7882;
77.4000;0.0895;-0.7950;
77.7000;0.0928;-0.7927;
78.0000;0.0904;-0.8018;
78.3000;0.0879;-0.8018;
78.6000;0.0912;-0.7905;
78.9000;0.0928;-0.7882;
79.2000;0.0920;-0.7927;
79.5000;0.0920;-0.7927;
79.8000;0.0904;-0.7837;
80.1000;0.0765;-0.8176;
80.4000;0.0928;-0.7837;
80.7000;0.0895;-0.7905;
81.0000;0.0895;-0.7814;
81.3000;0.0871;-0.7950;
81.6000;0.0920;-0.7769;
81.9000;0.0904;-0.7769;
82.2000;0.0912;-0.7746;
82.5000;0.0912;-0.7723;
82.8000;0.0920;-0.7610;
83.1000;0.0904;-0.7610;
83.4000;0.0879;-0.7587;
83.7000;0.0879;-0.7633;
84.0000;0.0895;-0.7701;
84.3000;0.0895;-0.7791;
84.6000;0.0895;-0.7837;
84.9000;0.0904;-0.7814;
85.2000;0.0879;-0.7814;
85.5000;0.0912;-0.7723;
85.8000;0.0879;-0.7746;
86.1000;0.0879;-0.7746;
86.4000;0.0904;-0.7723;
86.7000;0.0977;-0.7587;
87.0000;0.0904;-0.7814;
87.3000;0.0895;-0.7950;
87.6000;0.0847;-0.8018;
87.9000;0.0920;-0.7859;
88.2000;0.0928;-0.7837;
88.5000;0.0904;-0.7859;
88.8000;0.0895;-0.7837;
89.1000;0.0920;-0.7837;
89.4000;0.0928;-0.7723;
89.7000;0.0944;-0.7610;
90.0000;0.0920;-0.7610;
90.3000;0.0920;-0.7633;
90.6000;0.0944;-0.7542;
90.9000;0.0912;-0.7701;
91.2000;0.0879;-0.7769;
91.5000;0.0887;-0.7837;
91.8000;0.0895;-0.7837;
92.1000;0.1066;-0.7406;
92.4000;0.0904;-0.7791;
92.7000;0.0920;-0.7769;
93.0000;0.0904;-0.7837;
93.3000;0.0912;-0.7746;
93.6000;0.0904;-0.7769;
93.9000;0.0887;-0.7791;
94.2000;0.0871;-0.7746;
94.5000;0.0912;-0.7633;
94.8000;0.0912;-0.7542;
95.1000;0.0928;-0.7542;
95.4000;0.0879;-0.7723;
95.7000;0.0912;-0.7701;
96.0000;0.0863;-0.7882;
96.3000;0.0871;-0.7859;
96.6000;0.0895;-0.7859;
96.9000;0.0912;-0.7859;
97.2000;0.0912;-0.7882;
97.5000;0.0904;-0.7972;
97.8000;0.0912;-0.7927;
98.1000;0.1018;-0.7701;
98.4000;0.0936;-0.7905;
98.7000;0.0952;-0.7905;
99.0000;0.0912;-0.7972;
99.3000;0.0928;-0.7905;
99.6000;0.0904;-0.7950;
99.9000;0.0904;-0.7950;
100.2000;0.0936;-0.7882;
100.5000;0.0912;-0.7927;
100.8000;0.0895;-0.7927;
101.1000;0.0936;-0.7837;
101.4000;0.0895;-0.7905;
101.7000;0.0920;-0.7905;
102.0000;0.0887;-0.7882;
102.3000;0.0871;-0.7882;
102.6000;0.0912;-0.7769;
102.9000;0.0912;-0.7791;
103.2000;0.0887;-0.7814;
103.5000;0.0912;-0.7791;
103.8000;0.0912;-0.7814;
104.1000;0.0904;-0.7746;
104.4000;0.0887;-0.7814;
104.7000;0.0904;-0.7814;
105.0000;0.0912;-0.7814;
105.3000;0.0887;-0.7837;
105.6000;0.0920;-0.7814;
105.9000;0.0879;-0.7882;
106.2000;0.0895;-0.7859;
106.5000;0.0904;-0.7791;
106.8000;0.0895;-0.7859;
107.1000;0.0993;-0.7655;
107.4000;0.0904;-0.7814;
107.7000;0.0936;-0.7791;
108.0000;0.0904;-0.7837;
108.3000;0.0920;-0.7814;
108.6000;0.0912;-0.7905;
108.9000;0.0904;-0.7882;
109.2000;0.0895;-0.7882;
109.5000;0.0904;-0.7905;
109.8000;0.0904;-0.7837;
110.1000;0.0887;-0.7859;
110.4000;0.0904;-0.7837;
110.7000;0.0847;-0.7995;
111.0000;0.0912;-0.7814;
111.3000;0.0904;-0.7791;
111.6000;0.0904;-0.7769;
111.9000;0.0912;-0.7791;
112.2000;0.0936;-0.7791;
112.5000;0.0895;-0.7882;
112.8000;0.0904;-0.7905;
113.1000;0.0952;-0.7837;
113.4000;0.0912;-0.7859;
113.7000;0.0928;-0.7814;
114.0000;0.0895;-0.7859;
114.3000;0.0822;-0.8063;
114.6000;0.0920;-0.7791;
114.9000;0.0895;-0.7859;
115.2000;0.0912;-0.7859;
115.5000;0.0912;-0.7859;
115.8000;0.0912;-0.7859;
116.1000;0.0912;-0.7814;
116.4000;0.0895;-0.7882;
116.7000;0.0887;-0.7882;
117.0000;0.0920;-0.7814;
117.3000;0.0928;-0.7701;
117.6000;0.0895;-0.7791;
117.9000;0.0944;-0.7769;
118.2000;0.0977;-0.7723;
118.5000;0.0895;-0.7950;
118.8000;0.0895;-0.7972;
119.1000;0.0814;-0.8199;
119.4000;0.0781;-0.8267;
119.7000;0.0904;-0.7950;
120.0000;0.0895;-0.7927;
120.3000;0.0920;-0.7837;
120.6000;0.0879;-0.7950;
120.9000;0.0814;-0.8108;
121.2000;0.0814;-0.8131;
121.5000;0.0895;-0.7927;
121.8000;0.0887;-0.7882;
122.1000;0.0887;-0.7769;
122.4000;0.0895;-0.7791;
122.7000;0.0887;-0.7905;
123.0000;0.0912;-0.7905;
123.3000;0.0920;-0.7905;
123.6000;0.0920;-0.7905;
123.9000;0.0912;-0.7882;
124.2000;0.0847;-0.8018;
124.5000;0.0904;-0.7905;
124.8000;0.0920;-0.7905;
125.1000;0.0936;-0.7927;
125.4000;0.0904;-0.7972;
125.7000;0.0920;-0.7905;
126.0000;0.0887;-0.7905;
126.3000;0.0904;-0.7905;
126.6000;0.0887;-0.7950;
126.9000;0.0904;-0.7927;
127.2000;0.0912;-0.7927;
127.5000;0.0871;-0.7972;
127.8000;0.0912;-0.7882;
128.1000;0.0879;-0.7950;
128.4000;0.0904;-0.7882;
128.7000;0.0944;-0.7814;
129.0000;0.0912;-0.7905;
129.3000;0.0879;-0.7859;
129.6000;0.0904;-0.7905;
129.9000;0.0912;-0.7927;
130.2000;0.0993;-0.7723;
130.5000;0.0879;-0.7995;
130.8000;0.0879;-0.7995;
131.1000;0.0887;-0.7995;
131.4000;0.0879;-0.8086;
131.7000;0.0912;-0.7995;
132.0000;0.0863;-0.8108;
132.3000;0.0952;-0.7927;
132.6000;0.0855;-0.8131;
132.9000;0.0920;-0.7882;
133.2000;0.0879;-0.7837;
133.5000;0.0895;-0.7859;
133.8000;0.0944;-0.7791;
134.1000;0.0887;-0.7791;
134.4000;0.0847;-0.7950;
134.7000;0.0904;-0.7882;
135.0000;0.0904;-0.7859;
135.3000;0.1042;-0.7429;
135.6000;0.0904;-0.7814;
135.9000;0.0895;-0.7814;
136.2000;0.0879;-0.7791;
136.5000;0.0904;-0.7814;
136.8000;0.0895;-0.7859;
137.1000;0.0912;-0.7814;
137.4000;0.0961;-0.7769;
137.7000;0.0936;-0.7723;
138.0000;0.0879;-0.7905;
138.3000;0.0904;-0.7814;
138.6000;0.0887;-0.7814;
138.9000;0.0904;-0.7814;
139.2000;0.0920;-0.7905;
139.5000;0.0912;-0.7950;
139.8000;0.0904;-0.7950;
140.1000;0.0895;-0.7905;
140.4000;0.0993;-0.7701;
140.7000;0.0871;-0.7995;
141.0000;0.0969;-0.7791;
141.3000;0.0863;-0.8040;
141.6000;0.0920;-0.7905;
141.9000;0.0855;-0.7995;
142.2000;0.0814;-0.8086;
142.5000;0.0928;-0.7837;
142.8000;0.0920;-0.7837;
143.1000;0.0904;-0.7882;
143.4000;0.0912;-0.7814;
143.7000;0.0871;-0.7837;
144.0000;0.0887;-0.7791;
144.3000;0.0887;-0.7882;
144.6000;0.0904;-0.7814;
144.9000;0.0814;-0.8018;
145.2000;0.0838;-0.7972;
145.5000;0.0904;-0.7723;
145.8000;0.0912;-0.7791;
146.1000;0.0936;-0.7769;
146.4000;0.0887;-0.7837;
146.7000;0.0936;-0.7746;
147.0000;0.0887;-0.7837;
147.3000;0.0887;-0.7791;
147.6000;0.0904;-0.7701;
147.9000;0.0969;-0.7542;
148.2000;0.0928;-0.7701;
148.5000;0.0928;-0.7587;
148.8000;0.0928;-0.7565;
149.1000;0.0895;-0.7678;
149.4000;0.0920;-0.7655;
149.7000;0.0912;-0.7678;
150.0000;0.0920;-0.7723;
150.3000;0.0928;-0.7655;
150.6000;0.0887;-0.7769;
150.9000;0.0887;-0.7859;
151.2000;0.0895;-0.7882;
151.5000;0.0912;-0.7837;
151.8000;0.0887;-0.7837;
152.1000;0.0912;-0.7950;
152.4000;0.0895;-0.7905;
152.7000;0.0936;-0.7882;
153.0000;0.0920;-0.7882;
153.3000;0.0952;-0.7723;
153.6000;0.0904;-0.7791;
153.9000;0.0904;-0.7837;
154.2000;0.0920;-0.7814;
154.5000;0.0904;-0.7859;
154.8000;0.0952;-0.7723;
155.1000;0.0912;-0.7769;
155.4000;0.0920;-0.7791;
155.7000;0.0806;-0.8018;
156.0000;0.0928;-0.7791;
156.3000;0.1001;-0.7633;
156.6000;0.0912;-0.7882;
156.9000;0.0895;-0.7972;
157.2000;0.0887;-0.7927;
157.5000;0.0912;-0.7905;
157.8000;0.0912;-0.7927;
158.1000;0.0912;-0.7905;
158.4000;0.0904;-0.7905;
158.7000;0.0814;-0.8108;
159.0000;0.0920;-0.7837;
159.3000;0.0904;-0.7882;
159.6000;0.0838;-0.7950;
159.9000;0.0904;-0.7814;
160.2000;0.0936;-0.7701;
160.5000;0.0912;-0.7791;
160.8000;0.0847;-0.7859;
161.1000;0.0904;-0.7746;
161.4000;0.0936;-0.7701;
161.7000;0.0895;-0.7837;
162.0000;0.0936;-0.7837;
162.3000;0.0912;-0.7950;
162.6000;0.0847;-0.8131;
162.9000;0.0895;-0.7995;
163.2000;0.0863;-0.8108;
163.5000;0.0895;-0.7995;
163.8000;0.0912;-0.7950;
164.1000;0.0863;-0.8018;
164.4000;0.0847;-0.8040;
164.7000;0.0887;-0.7905;
165.0000;0.0895;-0.7905;
165.3000;0.0944;-0.7882;
165.6000;0.0830;-0.8063;
165.9000;0.0912;-0.7859;
166.2000;0.0863;-0.7995;
166.5000;0.0855;-0.8018;
166.8000;0.0920;-0.7791;
167.1000;0.0904;-0.7814;
167.4000;0.0904;-0.7882;
167.7000;0.0895;-0.7859;
168.0000;0.0912;-0.7723;
168.3000;0.0895;-0.7701;
168.6000;0.0895;-0.7746;
168.9000;0.0904;-0.7769;
169.2000;0.0847;-0.7950;
169.5000;0.0928;-0.7723;
169.8000;0.0904;-0.7723;
170.1000;0.0895;-0.7746;
170.4000;0.0895;-0.7746;
170.7000;0.0887;-0.7746;
171.0000;0.0863;-0.7859;
171.3000;0.0936;-0.7723;
171.6000;0.0904;-0.7814;
171.9000;0.0863;-0.7972;
172.2000;0.0895;-0.7859;
172.5000;0.0912;-0.7769;
172.8000;0.0928;-0.7655;
173.1000;0.0928;-0.7633;
173.4000;0.0936;-0.7542;
173.7000;0.0895;-0.7542;
174.0000;0.0904;-0.7542;
174.3000;0.0912;-0.7587;
174.6000;0.0928;-0.7610;
174.9000;0.0895;-0.7837;
175.2000;0.0904;-0.7701;
175.5000;0.0936;-0.7701;
175.8000;0.0920;-0.7769;
176.1000;0.0920;-0.7746;
176.4000;0.0912;-0.7701;
176.7000;0.0928;-0.7565;
177.0000;0.0912;-0.7610;
177.3000;0.0895;-0.7678;
177.6000;0.0863;-0.7678;
177.9000;0.0879;-0.7678;
178.2000;0.0895;-0.7678;
178.5000;0.0912;-0.7587;
178.8000;0.0879;-0.7610;
179.1000;0.0920;-0.7542;
179.4000;0.0952;-0.7429;
179.7000;0.0904;-0.7519;
180.0000;0.0887;-0.7655;
180.3000;0.0887;-0.7610;
180.6000;0.0904;-0.7497;
180.9000;0.0904;-0.7565;
181.2000;0.0936;-0.7497;
181.5000;0.0928;-0.7565;
181.8000;0.0912;-0.7587;
182.1000;0.0904;-0.7610;
182.4000;0.0895;-0.7723;
182.7000;0.0879;-0.7723;
183.0000;0.0920;-0.7723;
183.3000;0.0904;-0.7814;
183.6000;0.0920;-0.7814;
183.9000;0.0855;-0.7995;
184.2000;0.0944;-0.7814;
184.5000;0.0920;-0.7859;
184.8000;0.0895;-0.7905;
185.1000;0.0904;-0.7995;
185.4000;0.0912;-0.7927;
185.7000;0.0920;-0.7927;
186.0000;0.0912;-0.7905;
186.3000;0.0895;-0.7837;
186.6000;0.0895;-0.7950;
186.9000;0.0928;-0.7905;
187.2000;0.0871;-0.7995;
187.5000;0.1050;-0.7655;
187.8000;0.0912;-0.7927;
188.1000;0.0936;-0.7927;
188.4000;0.0855;-0.8154;
188.7000;0.0895;-0.8108;
189.0000;0.0895;-0.8154;
189.3000;0.0912;-0.8108;
189.6000;0.0961;-0.8040;
189.9000;0.0904;-0.8040;
190.2000;0.0912;-0.8018;
190.5000;0.0920;-0.8086;
190.8000;0.0936;-0.8063;
191.1000;0.0912;-0.8131;
191.4000;0.0904;-0.8131;
191.7000;0.0920;-0.7995;
192.0000;0.0871;-0.8063;
192.3000;0.0928;-0.7950;
192.6000;0.0895;-0.8108;
192.9000;0.0920;-0.8063;
193.2000;0.0928;-0.8018;
193.5000;0.0928;-0.8018;
193.8000;0.0912;-0.8063;
194.1000;0.0838;-0.8154;
194.4000;0.0912;-0.7995;
194.7000;0.0944;-0.7927;
195.0000;0.0904;-0.7950;
195.3000;0.0904;-0.7905;
195.6000;0.0887;-0.7882;
195.9000;0.0871;-0.7927;
196.2000;0.0912;-0.7837;
196.5000;0.0912;-0.7769;
196.8000;0.0904;-0.7859;
197.1000;0.0863;-0.7972;
197.4000;0.0871;-0.7950;
197.7000;0.0887;-0.7950;
198.0000;0.0904;-0.7927;
198.3000;0.0936;-0.7882;
198.6000;0.0904;-0.7950;
198.9000;0.0912;-0.7950;
199.2000;0.0904;-0.7927;
199.5000;0.0904;-0.7972;
199.8000;0.0928;-0.7905;
200.1000;0.0838;-0.8086;
200.4000;0.0887;-0.7905;
200.7000;0.0895;-0.7837;
201.0000;0.0920;-0.7791;
201.3000;0.0904;-0.7859;
201.6000;0.0904;-0.7882;
201.9000;0.0879;-0.7972;
202.2000;0.0920;-0.7837;
202.5000;0.0814;-0.8176;
202.8000;0.0887;-0.7927;
203.1000;0.0887;-0.7927;
203.4000;0.0871;-0.7950;
203.7000;0.0944;-0.7814;
204.0000;0.0904;-0.7905;
204.3000;0.0887;-0.7950;
204.6000;0.0838;-0.8018;
204.9000;0.0936;-0.7769;
205.2000;0.0936;-0.7837;
205.5000;0.0895;-0.7950;
205.8000;0.0838;-0.8086;
206.1000;0.0904;-0.7905;
206.4000;0.0863;-0.7995;
206.7000;0.0977;-0.7723;
207.0000;0.0912;-0.7995;
207.3000;0.0912;-0.7972;
207.6000;0.0912;-0.7905;
207.9000;0.0904;-0.7905;
208.2000;0.0895;-0.7905;
208.5000;0.0847;-0.8040;
208.8000;0.0936;-0.7882;
209.1000;0.0912;-0.7927;
209.4000;0.0912;-0.7950;
209.7000;0.0912;-0.7995;
210.0000;0.0887;-0.8018;
210.3000;0.0904;-0.7972;
210.6000;0.0887;-0.7995;
210.9000;0.0895;-0.7950;
211.2000;0.0887;-0.7995;
211.5000;0.0912;-0.7927;
211.8000;0.0879;-0.8018;
212.1000;0.0887;-0.7972;
212.4000;0.0928;-0.7814;
212.7000;0.0936;-0.7769;
213.0000;0.0887;-0.7882;
213.3000;0.0895;-0.7905;
213.6000;0.0887;-0.8018;
213.9000;0.0944;-0.7814;
214.2000;0.0920;-0.7882;
214.5000;0.0912;-0.7859;
214.8000;0.0936;-0.7814;
215.1000;0.0993;-0.7814;
215.4000;0.0904;-0.7995;
215.7000;0.0887;-0.7927;
216.0000;0.0904;-0.7927;
216.3000;0.0912;-0.7859;
216.6000;0.0904;-0.7837;
216.9000;0.0895;-0.7882;
217.2000;0.0895;-0.7859;
217.5000;0.0895;-0.7791;
217.8000;0.0790;-0.8018;
218.1000;0.0928;-0.7723;
218.4000;0.0863;-0.7927;
218.7000;0.0920;-0.7882;
219.0000;0.0895;-0.7859;
219.3000;0.0887;-0.7882;
219.6000;0.0928;-0.7814;
219.9000;0.0920;-0.7791;
220.2000;0.1034;-0.7474;
220.5000;0.0912;-0.7746;
220.8000;0.0904;-0.7791;
221.1000;0.0944;-0.7746;
221.4000;0.0920;-0.7882;
221.7000;0.0904;-0.7927;
222.0000;0.0887;-0.7972;
222.3000;0.0904;-0.7950;
222.6000;0.0912;-0.7905;
222.9000;0.0879;-0.7950;
223.2000;0.0895;-0.7950;
223.5000;0.0887;-0.8018;
223.8000;0.0936;-0.7859;
224.1000;0.0928;-0.7905;
224.4000;0.0887;-0.7972;
224.7000;0.0887;-0.8040;
225.0000;0.0912;-0.7972;
225.3000;0.0912;-0.7950;
225.6000;0.0887;-0.8018;
225.9000;0.0895;-0.7972;
226.2000;0.0920;-0.7882;
226.5000;0.1001;-0.7633;
226.8000;0.0887;-0.7972;
227.1000;0.0838;-0.8086;
227.4000;0.0920;-0.7905;
227.7000;0.0920;-0.7769;
228.0000;0.0920;-0.7791;
228.3000;0.0895;-0.7769;
228.6000;0.0969;-0.7678;
228.9000;0.0912;-0.7905;
229.2000;0.0879;-0.8040;
229.5000;0.0904;-0.7995;
229.8000;0.0855;-0.8131;
230.1000;0.0887;-0.7950;
230.4000;0.0904;-0.7950;
230.7000;0.0895;-0.7972;
231.0000;0.0806;-0.8154;
231.3000;0.0904;-0.7950;
231.6000;0.0871;-0.7995;
231.9000;0.0887;-0.8040;
232.2000;0.0920;-0.7950;
232.5000;0.0895;-0.7950;
232.8000;0.0879;-0.7995;
233.1000;0.0887;-0.7905;
233.4000;0.0887;-0.7905;
233.7000;0.0904;-0.7859;
234.0000;0.0749;-0.8199;
234.3000;0.0895;-0.7859;
234.6000;0.0847;-0.7950;
234.9000;0.0912;-0.7769;
235.2000;0.0928;-0.7723;
235.5000;0.0781;-0.8131;
235.8000;0.0928;-0.7723;
236.1000;0.0920;-0.7746;
236.4000;0.1009;-0.7542;
236.7000;0.0952;-0.7610;
237.0000;0.0895;-0.7769;
237.3000;0.0944;-0.7701;
237.6000;0.0904;-0.7769;
237.9000;0.0952;-0.7814;
238.2000;0.0895;-0.7882;
238.5000;0.0887;-0.7905;
238.8000;0.0871;-0.7950;
239.1000;0.0944;-0.7723;
239.4000;0.0887;-0.7837;
239.7000;0.0952;-0.7678;
240.0000;0.0904;-0.7769;
240.3000;0.0904;-0.7837;
240.6000;0.0895;-0.7859;
240.9000;0.0822;-0.8018;
241.2000;0.0912;-0.7837;
241.5000;0.0895;-0.7882;
241.8000;0.0847;-0.8018;
242.1000;0.0871;-0.7882;
242.4000;0.0904;-0.7814;
242.7000;0.0879;-0.7859;
243.0000;0.0904;-0.7791;
243.3000;0.0879;-0.7814;
243.6000;0.0904;-0.7791;
243.9000;0.0912;-0.7701;
244.2000;0.0928;-0.7655;
244.5000;0.0895;-0.7791;
244.8000;0.0944;-0.7678;
245.1000;0.0920;-0.7701;
245.4000;0.0912;-0.7678;
245.7000;0.0904;-0.7746;
246.0000;0.0904;-0.7723;
246.3000;0.0855;-0.7837;
246.6000;0.0887;-0.7927;
246.9000;0.0912;-0.7905;
247.2000;0.0855;-0.7995;
247.5000;0.0912;-0.7882;
247.8000;0.0912;-0.7905;
248.1000;0.0895;-0.7927;
248.4000;0.0822;-0.8063;
248.7000;0.0879;-0.7927;
249.0000;0.0904;-0.7882;
249.3000;0.0920;-0.7882;
249.6000;0.0887;-0.7791;
249.9000;0.0904;-0.7791;
250.2000;0.0912;-0.7814;
250.5000;0.0895;-0.7837;
250.8000;0.0928;-0.7746;
251.1000;0.0879;-0.7882;
251.4000;0.0895;-0.7882;
251.7000;0.0912;-0.7882;
252.0000;0.1050;-0.7497;
252.3000;0.1001;-0.7542;
252.6000;0.0912;-0.7791;
252.9000;0.0912;-0.7859;
253.2000;0.0887;-0.7882;
253.5000;0.0944;-0.7814;
253.8000;0.0863;-0.8018;
254.1000;0.0920;-0.7927;
254.4000;0.0887;-0.7882;
254.7000;0.0928;-0.7882;
255.0000;0.0879;-0.7950;
255.3000;0.0920;-0.7905;
255.6000;0.0887;-0.8063;
255.9000;0.0863;-0.8063;
256.2000;0.0912;-0.7882;
256.5000;0.1050;-0.7497;
256.8000;0.0887;-0.7859;
257.1000;0.0944;-0.7723;
257.4000;0.0928;-0.7814;
257.7000;0.0904;-0.7837;
258.0000;0.0904;-0.7859;
258.3000;0.0830;-0.8086;
258.6000;0.0895;-0.7837;
258.9000;0.0912;-0.7814;
259.2000;0.0895;-0.7837;
259.5000;0.0920;-0.7814;
259.8000;0.0920;-0.7769;
260.1000;0.0887;-0.7791;
260.4000;0.0936;-0.7655;
260.7000;0.0912;-0.7769;
261.0000;0.0920;-0.7814;
261.3000;0.0928;-0.7723;
261.6000;0.0928;-0.7837;
261.9000;0.0855;-0.8063;
262.2000;0.0895;-0.7950;
262.5000;0.0920;-0.7882;
262.8000;0.0855;-0.7995;
263.1000;0.0920;-0.7859;
263.4000;0.0920;-0.7814;
263.7000;0.0879;-0.7882;
264.0000;0.0904;-0.7882;
264.3000;0.0920;-0.7791;
264.6000;0.0920;-0.7746;
264.9000;0.0912;-0.7791;
265.2000;0.0879;-0.7859;
265.5000;0.0920;-0.7746;
265.8000;0.0912;-0.7859;
266.1000;0.0977;-0.7610;
266.4000;0.0936;-0.7746;
266.7000;0.0928;-0.7655;
267.0000;0.0879;-0.7723;
267.3000;0.0920;-0.7610;
267.6000;0.0895;-0.7769;
267.9000;0.0798;-0.7995;
268.2000;0.0944;-0.7610;
268.5000;0.0912;-0.7746;
268.8000;0.0871;-0.7791;
269.1000;0.0969;-0.7565;
269.4000;0.0904;-0.7791;
269.7000;0.0928;-0.7814;
270.0000;0.0895;-0.7837;
270.3000;0.0887;-0.7859;
270.6000;0.0895;-0.7814;
270.9000;0.0887;-0.7814;
271.2000;0.0928;-0.7769;
271.5000;0.0895;-0.7882;
271.8000;0.0887;-0.7882;
272.1000;0.0936;-0.7859;
272.4000;0.0920;-0.7791;
272.7000;0.0904;-0.7882;
273.0000;0.0904;-0.7927;
273.3000;0.0912;-0.7927;
273.6000;0.0928;-0.7746;
273.9000;0.0863;-0.7791;
274.2000;0.0904;-0.7746;
274.5000;0.0912;-0.7769;
274.8000;0.0773;-0.8131;
275.1000;0.0904;-0.7927;
275.4000;0.0904;-0.7927;
275.7000;0.0838;-0.8086;
276.0000;0.0895;-0.7950;
276.3000;0.0912;-0.7882;
276.6000;0.0904;-0.7859;
276.9000;0.0944;-0.7814;
277.2000;0.0887;-0.7950;
277.5000;0.0895;-0.7905;
277.8000;0.0912;-0.7882;
278.1000;0.0920;-0.7882;
278.4000;0.0863;-0.8018;
278.7000;0.0912;-0.7882;
279.0000;0.0871;-0.7972;
279.3000;0.0912;-0.7927;
279.6000;0.0895;-0.7950;
279.9000;0.1050;-0.7587;
280.2000;0.0863;-0.8040;
280.5000;0.0895;-0.8018;
280.8000;0.0904;-0.7950;
281.1000;0.0887;-0.7972;
281.4000;0.0912;-0.7972;
281.7000;0.0895;-0.7972;
282.0000;0.0895;-0.7950;
282.3000;0.0969;-0.7723;
282.6000;0.0895;-0.7859;
282.9000;0.0904;-0.7859;
283.2000;0.0936;-0.7791;
283.5000;0.0895;-0.7882;
283.8000;0.0912;-0.7859;
284.1000;0.0920;-0.7859;
284.4000;0.0895;-0.7950;
284.7000;0.0920;-0.7972;
285.0000;0.0920;-0.7972;
285.3000;0.0887;-0.7995;
285.6000;0.0904;-0.7950;
285.9000;0.0863;-0.8018;
286.2000;0.0895;-0.7882;
286.5000;0.0887;-0.7927;
286.8000;0.0887;-0.7995;
287.1000;0.0920;-0.7905;
287.4000;0.0912;-0.7882;
287.7000;0.0887;-0.7859;
288.0000;0.0887;-0.7927;
288.3000;0.0904;-0.7927;
288.6000;0.0920;-0.7837;
288.9000;0.0895;-0.7972;
289.2000;0.0895;-0.7950;
289.5000;0.0887;-0.8018;
289.8000;0.0920;-0.7950;
290.1000;0.0920;-0.7972;
290.4000;0.0912;-0.7927;
290.7000;0.0920;-0.7950;
291.0000;0.0887;-0.8108;
291.3000;0.0904;-0.7995;
291.6000;0.0904;-0.7972;
291.9000;0.0912;-0.7995;
292.2000;0.0912;-0.7950;
292.5000;0.0920;-0.7927;
292.8000;0.0912;-0.7950;
293.1000;0.0895;-0.7950;
293.4000;0.0904;-0.7950;
293.7000;0.0895;-0.8018;
294.0000;0.0928;-0.7972;
294.3000;0.0855;-0.8108;
294.6000;0.0887;-0.8063;
294.9000;0.0928;-0.7995;
295.2000;0.0895;-0.8131;
295.5000;0.0912;-0.8018;
295.8000;0.0904;-0.8086;
296.1000;0.0895;-0.8108;
296.4000;0.0798;-0.8199;
296.7000;0.0895;-0.7905;
297.0000;0.0895;-0.7927;
297.3000;0.0952;-0.7791;
297.6000;0.0985;-0.7701;
297.9000;0.0952;-0.7814;
298.2000;0.0912;-0.7882;
298.5000;0.0993;-0.7701;
298.8000;0.0838;-0.8108;
299.1000;0.0871;-0.7995;
299.4000;0.0895;-0.7972;
299.7000;0.0904;-0.7972;
300.0000;0.0904;-0.8018;
300.3000;0.0920;-0.7972;
300.6000;0.1066;-0.7633;
300.9000;0.0895;-0.7927;
301.2000;0.0895;-0.7859;
301.5000;0.0847;-0.8018;
301.8000;0.0879;-0.7859;
302.1000;0.0863;-0.7905;
302.4000;0.0879;-0.7882;
302.7000;0.0920;-0.7791;
303.0000;0.0912;-0.7882;
303.3000;0.0912;-0.7927;
303.6000;0.0912;-0.7905;
303.9000;0.0912;-0.7859;
304.2000;0.0895;-0.7972;
304.5000;0.0920;-0.7882;
304.8000;0.0928;-0.7837;
305.1000;0.0920;-0.7769;
305.4000;0.0887;-0.7746;
305.7000;0.0855;-0.7791;
306.0000;0.0912;-0.7746;
306.3000;0.0895;-0.7837;
306.6000;0.0912;-0.7837;
306.9000;0.0904;-0.7837;
307.2000;0.0879;-0.7972;
307.5000;0.0895;-0.8018;
307.8000;0.0912;-0.8040;
308.1000;0.0863;-0.8086;
308.4000;0.0904;-0.7950;
308.7000;0.0781;-0.8244;
309.0000;0.0936;-0.7882;
309.3000;0.0895;-0.7927;
309.6000;0.0912;-0.7882;
309.9000;0.0895;-0.7859;
310.2000;0.0904;-0.7837;
310.5000;0.0928;-0.7791;
310.8000;0.0879;-0.7905;
311.1000;0.0895;-0.7972;
311.4000;0.0887;-0.7927;
311.7000;0.0879;-0.8018;
312.0000;0.0928;-0.7837;
312.3000;0.0887;-0.7905;
312.6000;0.0904;-0.7905;
312.9000;0.0895;-0.7972;
313.2000;0.0904;-0.7972;
313.5000;0.0895;-0.7972;
313.8000;0.0920;-0.7905;
314.1000;0.0895;-0.7995;
314.4000;0.0904;-0.7972;
314.7000;0.0871;-0.8040;
315.0000;0.0920;-0.7927;
315.3000;0.0912;-0.7950;
315.6000;0.0912;-0.7950;
315.9000;0.0895;-0.7972;
316.2000;0.0879;-0.7995;
316.5000;0.0920;-0.7905;
316.8000;0.0895;-0.7927;
317.1000;0.0985;-0.7723;
317.4000;0.0904;-0.7927;
317.7000;0.0904;-0.7905;
318.0000;0.0912;-0.7927;
318.3000;0.0904;-0.7905;
318.6000;0.0912;-0.7837;
318.9000;0.0912;-0.7791;
319.2000;0.0904;-0.7882;
319.5000;0.0904;-0.7905;
319.8000;0.0904;-0.7927;
320.1000;0.0790;-0.8222;
320.4000;0.0912;-0.7814;
320.7000;0.0895;-0.7814;
321.0000;0.0830;-0.7882;
321.3000;0.0879;-0.7723;
321.6000;0.0887;-0.7633;
321.9000;0.0895;-0.7633;
322.2000;0.0895;-0.7746;
322.5000;0.0912;-0.7701;
322.8000;0.1042;-0.7338;
323.1000;0.0895;-0.7723;
323.4000;0.0936;-0.7633;
323.7000;0.0838;-0.7837;
324.0000;0.0912;-0.7723;
324.3000;0.0928;-0.7678;
324.6000;0.1009;-0.7497;
324.9000;0.0895;-0.7769;
325.2000;0.0912;-0.7723;
325.5000;0.0904;-0.7655;
325.8000;0.0912;-0.7633;
326.1000;0.0822;-0.7859;
326.4000;0.0904;-0.7746;
326.7000;0.0895;-0.7814;
327.0000;0.0904;-0.7837;
327.3000;0.0904;-0.7927;
327.6000;0.0895;-0.7950;
327.9000;0.0895;-0.7950;
328.2000;0.0977;-0.7791;
328.5000;0.0952;-0.7814;
328.8000;0.0952;-0.7837;
329.1000;0.0895;-0.7950;
329.4000;0.0912;-0.7927;
329.7000;0.0855;-0.8018;
330.0000;0.0887;-0.7927;
330.3000;0.0904;-0.7859;
330.6000;0.0904;-0.7859;
330.9000;0.0904;-0.7882;
331.2000;0.0895;-0.7905;
331.5000;0.0871;-0.7905;
331.8000;0.1058;-0.7452;
332.1000;0.0912;-0.7746;
332.4000;0.0904;-0.7746;
332.7000;0.0904;-0.7701;
333.0000;0.0895;-0.7769;
333.3000;0.1009;-0.7565;
333.6000;0.0912;-0.7814;
333.9000;0.0822;-0.8063;
334.2000;0.0912;-0.7746;
334.5000;0.0904;-0.7837;
334.8000;0.0822;-0.7927;
335.1000;0.0912;-0.7746;
335.4000;0.0912;-0.7814;
335.7000;0.0912;-0.7905;
336.0000;0.0920;-0.7950;
336.3000;0.0895;-0.7995;
336.6000;0.0871;-0.8018;
336.9000;0.0920;-0.7950;
337.2000;0.0904;-0.7859;
337.5000;0.0912;-0.7814;
337.8000;0.0887;-0.7859;
338.1000;0.0920;-0.7814;
338.4000;0.0904;-0.7859;
338.7000;0.0887;-0.7859;
339.0000;0.0879;-0.7905;
339.3000;0.0928;-0.7769;
339.6000;0.0936;-0.7678;
339.9000;0.0887;-0.7769;
340.2000;0.0847;-0.7859;
340.5000;0.0830;-0.7950;
340.8000;0.0920;-0.7769;
341.1000;0.0895;-0.7950;
341.4000;0.0895;-0.7859;
341.7000;0.0920;-0.7859;
342.0000;0.0977;-0.7701;
342.3000;0.0855;-0.7882;
342.6000;0.0912;-0.7746;
342.9000;0.0887;-0.7837;
343.2000;0.0904;-0.7859;
343.5000;0.0871;-0.7950;
343.8000;0.0895;-0.7859;
344.1000;0.0920;-0.7859;
344.4000;0.0920;-0.7837;
344.7000;0.0912;-0.7837;
345.0000;0.0912;-0.7859;
345.3000;0.0920;-0.7791;
345.6000;0.0904;-0.7837;
345.9000;0.0895;-0.7905;
346.2000;0.0912;-0.7814;
346.5000;0.0887;-0.7837;
346.8000;0.0912;-0.7814;
347.1000;0.0904;-0.7905;
347.4000;0.0912;-0.7882;
347.7000;0.0936;-0.7814;
348.0000;0.0904;-0.7905;
348.3000;0.0895;-0.7905;
348.6000;0.0961;-0.7633;
348.9000;0.0879;-0.7837;
349.2000;0.0838;-0.7950;
349.5000;0.0904;-0.7746;
349.8000;0.0904;-0.7655;
350.1000;0.0781;-0.7995;
350.4000;0.0716;-0.8267;
350.7000;0.0904;-0.7837;
351.0000;0.0871;-0.7905;
351.3000;0.0863;-0.7882;
351.6000;0.0912;-0.7814;
351.9000;0.0895;-0.7814;
352.2000;0.0936;-0.7769;
352.5000;0.0904;-0.7905;
352.8000;0.0904;-0.7882;
353.1000;0.0904;-0.7837;
353.4000;0.0977;-0.7701;
353.7000;0.0871;-0.7905;
354.0000;0.0871;-0.7837;
354.3000;0.0936;-0.7723;
354.6000;0.0879;-0.7791;
354.9000;0.0847;-0.7882;
355.2000;0.0895;-0.7814;
355.5000;0.0912;-0.7791;
355.8000;0.0985;-0.7610;
356.1000;0.0904;-0.7882;
356.4000;0.0912;-0.7859;
356.7000;0.0920;-0.7837;
357.0000;0.0904;-0.7905;
357.3000;0.1009;-0.7701;
357.6000;0.0895;-0.8063;
357.9000;0.0952;-0.7905;
358.2000;0.0895;-0.7995;
358.5000;0.0904;-0.7950;
358.8000;0.0961;-0.7859;
359.1000;0.0912;-0.7927;
359.4000;0.0895;-0.7927;
359.7000;0.0904;-0.7927;
360.0000;0.0912;-0.7837;
360.3000;0.0912;-0.7905;
360.6000;0.0904;-0.7995;
360.9000;0.0879;-0.8063;
361.2000;0.0912;-0.7950;
361.5000;0.0887;-0.7927;
361.8000;0.0912;-0.7995;
362.1000;0.0904;-0.7972;
362.4000;0.0895;-0.7995;
362.7000;0.0895;-0.8063;
363.0000;0.0781;-0.8380;
363.3000;0.0895;-0.8108;
363.6000;0.0912;-0.8086;
363.9000;0.0912;-0.8063;
364.2000;0.0838;-0.8108;
364.5000;0.0904;-0.7972;
364.8000;0.0920;-0.8040;
365.1000;0.0920;-0.7995;
365.4000;0.0920;-0.7927;
365.7000;0.0912;-0.7859;
366.0000;0.0879;-0.7972;
366.3000;0.0944;-0.7882;
366.6000;0.0822;-0.8267;
366.9000;0.0838;-0.8108;
367.2000;0.0985;-0.7882;
367.5000;0.0790;-0.8358;
367.8000;0.0912;-0.8018;
368.1000;0.0961;-0.7950;
368.4000;0.0944;-0.7882;
368.7000;0.0904;-0.7905;
369.0000;0.0912;-0.7950;
369.3000;0.0969;-0.7723;
369.6000;0.0912;-0.7905;
369.9000;0.0895;-0.7882;
370.2000;0.0912;-0.7972;
370.5000;0.0920;-0.7995;
370.8000;0.0936;-0.7882;
371.1000;0.0895;-0.7995;
371.4000;0.0887;-0.8040;
371.7000;0.0879;-0.8086;
372.0000;0.0871;-0.8086;
372.3000;0.0920;-0.8040;
372.6000;0.0912;-0.7995;
372.9000;0.0920;-0.7972;
373.2000;0.0961;-0.7814;
373.5000;0.0879;-0.7995;
373.8000;0.0904;-0.7905;
374.1000;0.0928;-0.7905;
374.4000;0.0969;-0.7701;
374.7000;0.0912;-0.7837;
375.0000;0.0912;-0.7814;
375.3000;0.0936;-0.7791;
375.6000;0.0895;-0.7837;
375.9000;0.0887;-0.7882;
376.2000;0.0879;-0.7995;
376.5000;0.0887;-0.7950;
376.8000;0.0912;-0.7837;
377.1000;0.0904;-0.7791;
377.4000;0.0928;-0.7678;
377.7000;0.0912;-0.7678;
378.0000;0.0895;-0.7678;
378.3000;0.0904;-0.7746;
378.6000;0.0879;-0.7791;
378.9000;0.0912;-0.7746;
379.2000;0.0928;-0.7723;
379.5000;0.0912;-0.7723;
379.8000;0.0887;-0.7746;
380.1000;0.0920;-0.7678;
380.4000;0.0895;-0.7769;
380.7000;0.0904;-0.7837;
381.0000;0.0912;-0.7859;
381.3000;0.0895;-0.7859;
381.6000;0.0887;-0.7905;
381.9000;0.0904;-0.7859;
382.2000;0.0895;-0.7905;
382.5000;0.0895;-0.7950;
382.8000;0.0904;-0.7905;
383.1000;0.0879;-0.7972;
383.4000;0.0887;-0.7972;
383.7000;0.0887;-0.8018;
384.0000;0.0904;-0.7950;
384.3000;0.0904;-0.7927;
384.6000;0.0895;-0.7905;
384.9000;0.0912;-0.7859;
385.2000;0.0920;-0.7859;
385.5000;0.0912;-0.7859;
385.8000;0.0912;-0.7882;
386.1000;0.0920;-0.7927;
386.4000;0.0912;-0.7905;
386.7000;0.0920;-0.7927;
387.0000;0.0895;-0.7950;
387.3000;0.0912;-0.7927;
387.6000;0.0944;-0.7837;
387.9000;0.0904;-0.7882;
388.2000;0.0920;-0.7882;
388.5000;0.1001;-0.7678;
388.8000;0.0904;-0.7927;
389.1000;0.0936;-0.7905;
389.4000;0.0920;-0.7927;
389.7000;0.0895;-0.7972;
390.0000;0.0895;-0.7972;
390.3000;0.0863;-0.8086;
390.6000;0.0969;-0.7882;
390.9000;0.0887;-0.8086;
391.2000;0.0781;-0.8335;
391.5000;0.1042;-0.7678;
391.8000;0.0814;-0.8267;
392.1000;0.0855;-0.8267;
392.4000;0.0904;-0.8063;
392.7000;0.0879;-0.8063;
393.0000;0.0879;-0.7950;
393.3000;0.0920;-0.7859;
393.6000;0.0863;-0.7995;
393.9000;0.0920;-0.7814;
394.2000;0.0936;-0.7814;
394.5000;0.0936;-0.7905;
394.8000;0.0904;-0.7972;
395.1000;0.0904;-0.7995;
395.4000;0.0928;-0.7950;
395.7000;0.0912;-0.7882;
396.0000;0.0895;-0.7905;
396.3000;0.0904;-0.7950;
396.6000;0.0887;-0.7905;
396.9000;0.0912;-0.7905;
397.2000;0.0879;-0.7972;
397.5000;0.0847;-0.8040;
397.8000;0.0904;-0.7882;
398.1000;0.0871;-0.7950;
398.4000;0.0952;-0.7769;
398.7000;0.0904;-0.7950;
399.0000;0.0904;-0.7905;
399.3000;0.0879;-0.7995;
399.6000;0.0920;-0.7905;
399.9000;0.0895;-0.7927;
400.2000;0.0912;-0.7905;
400.5000;0.0904;-0.7905;
400.8000;0.0887;-0.7905;
401.1000;0.0895;-0.7837;
401.4000;0.0895;-0.7905;
401.7000;0.0895;-0.7972;
402.0000;0.0936;-0.7882;
402.3000;0.0920;-0.7905;
402.6000;0.0879;-0.7995;
402.9000;0.0895;-0.7972;
403.2000;0.0904;-0.7950;
403.5000;0.0920;-0.7972;
403.8000;0.0895;-0.8063;
404.1000;0.0944;-0.8040;
404.4000;0.0936;-0.7972;
404.7000;0.0928;-0.7927;
405.0000;0.0928;-0.7882;
405.3000;0.0887;-0.7905;
405.6000;0.0936;-0.7814;
405.9000;0.0944;-0.7814;
406.2000;0.0863;-0.8018;
406.5000;0.0904;-0.7972;
406.8000;0.0904;-0.7950;
407.1000;0.0912;-0.7927;
407.4000;0.0895;-0.8018;
407.7000;0.0920;-0.7927;
408.0000;0.0879;-0.7972;
408.3000;0.0904;-0.7927;
408.6000;0.0928;-0.7837;
408.9000;0.0912;-0.7927;
409.2000;0.0904;-0.7927;
409.5000;0.0904;-0.7950;
409.8000;0.0871;-0.7995;
410.1000;0.0887;-0.7995;
410.4000;0.0912;-0.7972;
410.7000;0.0912;-0.7995;
411.0000;0.0887;-0.8176;
411.3000;0.0969;-0.7950;
411.6000;0.0904;-0.8154;
411.9000;0.0904;-0.8131;
412.2000;0.0887;-0.8131;
412.5000;0.0895;-0.8086;
412.8000;0.0830;-0.8199;
413.1000;0.0912;-0.8018;
413.4000;0.0912;-0.7972;
413.7000;0.0887;-0.7950;
414.0000;0.0961;-0.7746;
414.3000;0.0920;-0.7927;
414.6000;0.0855;-0.8063;
414.9000;0.0904;-0.7814;
415.2000;0.0806;-0.8018;
415.5000;0.0952;-0.7701;
415.8000;0.0895;-0.7905;
416.1000;0.1009;-0.7610;
416.4000;0.0887;-0.7927;
416.7000;0.0855;-0.8018;
417.0000;0.0912;-0.7905;
417.3000;0.0912;-0.7837;
417.6000;0.0879;-0.7927;
417.9000;0.0895;-0.7995;
418.2000;0.0887;-0.7972;
418.5000;0.0855;-0.8018;
418.8000;0.0912;-0.7927;
419.1000;0.0904;-0.7905;
419.4000;0.0936;-0.7859;
419.7000;0.0920;-0.7927;
420.0000;0.0895;-0.7927;
420.3000;0.0879;-0.7995;
420.6000;0.0871;-0.7972;
420.9000;0.0912;-0.7905;
421.2000;0.0879;-0.7927;
421.5000;0.0952;-0.7723;
421.8000;0.0928;-0.7746;
422.1000;0.0879;-0.7814;
422.4000;0.0977;-0.7542;
422.7000;0.0887;-0.7746;
423.0000;0.0814;-0.8040;
423.3000;0.0928;-0.7814;
423.6000;0.1034;-0.7678;
423.9000;0.0895;-0.7927;
424.2000;0.0895;-0.7927;
424.5000;0.0936;-0.7927;
424.8000;0.0912;-0.7995;
425.1000;0.0904;-0.8063;
425.4000;0.0895;-0.8063;
425.7000;0.0895;-0.8063;
426.0000;0.0855;-0.8154;
426.3000;0.0895;-0.7972;
426.6000;0.0887;-0.7950;
426.9000;0.0904;-0.7905;
427.2000;0.0879;-0.8018;
427.5000;0.0887;-0.7950;
427.8000;0.0879;-0.8040;
428.1000;0.0977;-0.7837;
428.4000;0.0912;-0.8040;
428.7000;0.0895;-0.8018;
429.0000;0.0871;-0.8108;
429.3000;0.0920;-0.7905;
429.6000;0.0879;-0.7905;
429.9000;0.0863;-0.7972;
430.2000;0.0936;-0.7769;
430.5000;0.0904;-0.7950;
430.8000;0.0912;-0.7995;
431.1000;0.0904;-0.7995;
431.4000;0.0895;-0.7995;
431.7000;0.0904;-0.7927;
432.0000;0.1058;-0.7519;
432.3000;0.0912;-0.7837;
432.6000;0.0895;-0.7837;
432.9000;0.0920;-0.7791;
433.2000;0.0895;-0.7859;
433.5000;0.0895;-0.7882;
433.8000;0.0928;-0.7859;
434.1000;0.0895;-0.7995;
434.4000;0.0895;-0.7950;
434.7000;0.0887;-0.8018;
435.0000;0.0871;-0.7995;
435.3000;0.0904;-0.7905;
435.6000;0.0920;-0.7882;
435.9000;0.0912;-0.7882;
436.2000;0.0920;-0.7837;
436.5000;0.0879;-0.7927;
436.8000;0.0871;-0.8063;
437.1000;0.0904;-0.8040;
437.4000;0.0920;-0.8063;
437.7000;0.0961;-0.7950;
438.0000;0.0895;-0.8063;
438.3000;0.0863;-0.8040;
438.6000;0.0912;-0.7882;
438.9000;0.0904;-0.7882;
439.2000;0.0920;-0.7837;
439.5000;0.0895;-0.7995;
439.8000;0.0912;-0.7972;
440.1000;0.1058;-0.7678;
440.4000;0.0912;-0.7972;
440.7000;0.0977;-0.7769;
441.0000;0.0887;-0.7950;
441.3000;0.0863;-0.8018;
441.6000;0.0855;-0.8040;
441.9000;0.0887;-0.7972;
442.2000;0.0887;-0.7972;
442.5000;0.0895;-0.7927;
442.8000;0.0912;-0.7927;
443.1000;0.0912;-0.7972;
443.4000;0.0952;-0.7859;
443.7000;0.0904;-0.7905;
444.0000;0.0895;-0.7859;
444.3000;0.0879;-0.7950;
444.6000;0.0863;-0.8108;
444.9000;0.0920;-0.7972;
445.2000;0.0944;-0.7882;
445.5000;0.0912;-0.7905;
445.8000;0.0887;-0.7950;
446.1000;0.0920;-0.7859;
446.4000;0.0904;-0.7905;
446.7000;0.0904;-0.7927;
447.0000;0.0895;-0.8040;
447.3000;0.0920;-0.7950;
447.6000;0.0912;-0.7927;
447.9000;0.0904;-0.7950;
448.2000;0.0936;-0.7859;
448.5000;0.0895;-0.7859;
448.8000;0.0895;-0.7814;
449.1000;0.0904;-0.7769;
449.4000;0.0895;-0.7905;
449.7000;0.0928;-0.7859;
450.0000;0.0887;-0.7882;
450.3000;0.0904;-0.7859;
450.6000;0.0904;-0.7882;
450.9000;0.0904;-0.7905;
451.2000;0.0904;-0.7995;
451.5000;0.0920;-0.7972;
451.8000;0.0847;-0.8131;
452.1000;0.0855;-0.8086;
452.4000;0.0912;-0.7927;
452.7000;0.0904;-0.7995;
453.0000;0.0912;-0.7927;
453.3000;0.0895;-0.7972;
453.6000;0.0928;-0.7927;
453.9000;0.0920;-0.7859;
454.2000;0.0912;-0.7905;
454.5000;0.0928;-0.7882;
454.8000;0.0912;-0.7950;
455.1000;0.0936;-0.7927;
455.4000;0.0920;-0.8018;
455.7000;0.0904;-0.7995;
456.0000;0.0895;-0.8040;
456.3000;0.0887;-0.7995;
456.6000;0.0887;-0.7972;
456.9000;0.0904;-0.7972;
457.2000;0.0887;-0.7972;
457.5000;0.0904;-0.7972;
457.8000;0.0904;-0.7905;
458.1000;0.0928;-0.7814;
458.4000;0.0920;-0.7837;
458.7000;0.0904;-0.7882;
459.0000;0.0912;-0.7950;
459.3000;0.0912;-0.7972;
459.6000;0.0887;-0.8086;
459.9000;0.0879;-0.7995;
460.2000;0.0928;-0.7950;
460.5000;0.1009;-0.7678;
460.8000;0.0904;-0.7837;
461.1000;0.0912;-0.7927;
461.4000;0.0879;-0.7972;
461.7000;0.0887;-0.7995;
462.0000;0.0928;-0.7927;
462.3000;0.0895;-0.8018;
462.6000;0.0912;-0.7927;
462.9000;0.0904;-0.7927;
463.2000;0.0895;-0.7950;
463.5000;0.0847;-0.8040;
463.8000;0.0904;-0.7972;
464.1000;0.0895;-0.7995;
464.4000;0.0912;-0.8018;
464.7000;0.0952;-0.7972;
465.0000;0.0912;-0.7972;
465.3000;0.0993;-0.7723;
465.6000;0.0912;-0.7837;
465.9000;0.0904;-0.7905;
466.2000;0.0912;-0.7882;
466.5000;0.0879;-0.7950;
466.8000;0.0904;-0.7882;
467.1000;0.0895;-0.7837;
467.4000;0.0904;-0.7859;
467.7000;0.0904;-0.7950;
468.0000;0.0871;-0.8086;
468.3000;0.0904;-0.8018;
468.6000;0.0871;-0.8176;
468.9000;0.0838;-0.8176;
469.2000;0.0904;-0.7995;
469.5000;0.0904;-0.8040;
469.8000;0.0904;-0.8018;
470.1000;0.0904;-0.7972;
470.4000;0.0879;-0.8063;
470.7000;0.0920;-0.8040;
471.0000;0.0863;-0.8199;
471.3000;0.0904;-0.8131;
471.6000;0.0904;-0.8063;
471.9000;0.0944;-0.7882;
472.2000;0.0920;-0.7950;
472.5000;0.0904;-0.7950;
472.8000;0.0912;-0.7950;
473.1000;0.0798;-0.8222;
473.4000;0.0887;-0.7995;
473.7000;0.0912;-0.7927;
474.0000;0.0904;-0.7995;
474.3000;0.0879;-0.8018;
474.6000;0.0904;-0.7905;
474.9000;0.0879;-0.7927;
475.2000;0.0895;-0.7859;
475.5000;0.0936;-0.7837;
475.8000;0.0879;-0.7950;
476.1000;0.0871;-0.7927;
476.4000;0.0920;-0.7791;
476.7000;0.0952;-0.7655;
477.0000;0.0985;-0.7587;
477.3000;0.0887;-0.7791;
477.6000;0.0879;-0.7882;
477.9000;0.0895;-0.7837;
478.2000;0.0895;-0.7791;
478.5000;0.0920;-0.7814;
478.8000;0.0895;-0.7905;
479.1000;0.0912;-0.7837;
479.4000;0.0904;-0.7905;
479.7000;0.0904;-0.7927;
480.0000;0.0879;-0.7972;
480.3000;0.0871;-0.7950;
480.6000;0.0895;-0.7927;
480.9000;0.0904;-0.7882;
481.2000;0.0895;-0.7859;
481.5000;0.0912;-0.7905;
481.8000;0.0912;-0.7927;
482.1000;0.0871;-0.7995;
482.4000;0.0969;-0.7769;
482.7000;0.0920;-0.7950;
483.0000;0.0887;-0.7950;
483.3000;0.0822;-0.8154;
483.6000;0.0936;-0.7859;
483.9000;0.0920;-0.7972;
484.2000;0.0887;-0.8018;
484.5000;0.0920;-0.8018;
484.8000;0.0863;-0.8086;
485.1000;0.0977;-0.7746;
485.4000;0.0904;-0.7882;
485.7000;0.0781;-0.8176;
486.0000;0.0895;-0.7927;
486.3000;0.0969;-0.7769;
486.6000;0.0944;-0.7769;
486.9000;0.0936;-0.7791;
487.2000;0.0895;-0.7837;
487.5000;0.0920;-0.7950;
487.8000;0.0920;-0.7995;
488.1000;0.0904;-0.8063;
488.4000;0.0895;-0.8108;
488.7000;0.0912;-0.7995;
489.0000;0.0904;-0.8086;
489.3000;0.0871;-0.8154;
489.6000;0.0920;-0.7995;
489.9000;0.0920;-0.7972;
490.2000;0.0912;-0.7972;
490.5000;0.0822;-0.8176;
490.8000;0.0855;-0.8086;
491.1000;0.0912;-0.7950;
491.4000;0.0887;-0.7950;
491.7000;0.0912;-0.7950;
492.0000;0.0920;-0.7972;
492.3000;0.0904;-0.7995;
492.6000;0.0879;-0.8176;
492.9000;0.0904;-0.8108;
493.2000;0.0895;-0.8086;
493.5000;0.0912;-0.7995;
493.8000;0.0920;-0.7972;
494.1000;0.0928;-0.8018;
494.4000;0.0895;-0.8040;
494.7000;0.0912;-0.7927;
495.0000;0.0895;-0.7995;
495.3000;0.0895;-0.7950;
495.6000;0.0936;-0.7905;
495.9000;0.0912;-0.7995;
496.2000;0.0912;-0.8063;
496.5000;0.0912;-0.7950;
496.8000;0.0904;-0.8040;
497.1000;0.0904;-0.8063;
497.4000;0.0895;-0.8063;
497.7000;0.0904;-0.8018;
498.0000;0.0904;-0.7950;
498.3000;0.0944;-0.7859;
498.6000;0.0920;-0.7927;
498.9000;0.0904;-0.7972;
499.2000;0.0879;-0.8063;
499.5000;0.0912;-0.7972;
499.8000;0.0838;-0.8108;
500.1000;0.0895;-0.7950;
500.4000;0.0904;-0.7950;
500.7000;0.0895;-0.7905;
501.0000;0.0904;-0.7859;
501.3000;0.0912;-0.7882;
501.6000;0.0912;-0.7905;
501.9000;0.0904;-0.7995;
502.2000;0.0895;-0.7972;
502.5000;0.0879;-0.8018;
502.8000;0.0887;-0.7927;
503.1000;0.0887;-0.7995;
503.4000;0.0879;-0.8108;
503.7000;0.0912;-0.8018;
504.0000;0.0912;-0.7972;
504.3000;0.0887;-0.8063;
504.6000;0.0887;-0.7995;
504.9000;0.0904;-0.7927;
505.2000;0.0838;-0.8063;
505.5000;0.0912;-0.7859;
505.8000;0.0895;-0.7814;
506.1000;0.1066;-0.7406;
506.4000;0.0887;-0.7859;
506.7000;0.0895;-0.7927;
507.0000;0.0871;-0.8040;
507.3000;0.0985;-0.7859;
507.6000;0.0863;-0.8086;
507.9000;0.0895;-0.7995;
508.2000;0.0855;-0.8063;
508.5000;0.0961;-0.7791;
508.8000;0.0928;-0.7859;
509.1000;0.0928;-0.7950;
509.4000;0.0912;-0.8018;
509.7000;0.1001;-0.7859;
510.0000;0.0838;-0.8267;
510.3000;0.0904;-0.8040;
510.6000;0.0936;-0.7995;
510.9000;0.0904;-0.8086;
511.2000;0.0912;-0.8040;
511.5000;0.0961;-0.7950;
511.8000;0.0895;-0.8063;
512.1000;0.0887;-0.8040;
512.4000;0.0887;-0.8086;
512.7000;0.0904;-0.8086;
513.0000;0.0895;-0.8154;
513.3000;0.0912;-0.8131;
513.6000;0.0895;-0.8154;
513.9000;0.0904;-0.8108;
514.2000;0.0920;-0.7995;
514.5000;0.0887;-0.8063;
514.8000;0.0904;-0.8108;
515.1000;0.0928;-0.7950;
515.4000;0.0920;-0.7905;
515.7000;0.0879;-0.7972;
516.0000;0.0952;-0.7837;
516.3000;0.0895;-0.7950;
516.6000;0.0904;-0.7905;
516.9000;0.0904;-0.7927;
517.2000;0.0887;-0.8040;
517.5000;0.0879;-0.8154;
517.8000;0.0904;-0.8063;
518.1000;0.0904;-0.7995;
518.4000;0.0879;-0.8108;
518.7000;0.0936;-0.7905;
519.0000;0.0838;-0.8063;
519.3000;0.0871;-0.7950;
519.6000;0.0920;-0.7859;
519.9000;0.0871;-0.7950;
520.2000;0.0961;-0.7791;
520.5000;0.0912;-0.7927;
520.8000;0.0895;-0.7882;
521.1000;0.0895;-0.7905;
521.4000;0.0920;-0.7905;
521.7000;0.0936;-0.7837;
522.0000;0.0912;-0.7837;
522.3000;0.0838;-0.8086;
522.6000;0.0887;-0.8063;
522.9000;0.0904;-0.8086;
523.2000;0.0798;-0.8290;
523.5000;0.0904;-0.8086;
523.8000;0.0920;-0.8018;
524.1000;0.0904;-0.7950;
524.4000;0.0879;-0.7972;
524.7000;0.0814;-0.8154;
525.0000;0.0912;-0.7837;
525.3000;0.0855;-0.7927;
525.6000;0.0895;-0.7837;
525.9000;0.0879;-0.7905;
526.2000;0.0920;-0.7837;
526.5000;0.0928;-0.7791;
526.8000;0.0928;-0.7882;
527.1000;0.0871;-0.7905;
527.4000;0.0895;-0.7950;
527.7000;0.0928;-0.7905;
528.0000;0.0904;-0.8040;
528.3000;0.0928;-0.8018;
528.6000;0.0920;-0.8086;
528.9000;0.0912;-0.8018;
529.2000;0.0912;-0.7972;
529.5000;0.0895;-0.8018;
529.8000;0.0879;-0.7950;
530.1000;0.0863;-0.8040;
530.4000;0.0904;-0.7837;
530.7000;0.0887;-0.7927;
531.0000;0.0895;-0.7882;
531.3000;0.0912;-0.7837;
531.6000;0.0952;-0.7746;
531.9000;0.1018;-0.7587;
532.2000;0.0904;-0.7950;
532.5000;0.0879;-0.7950;
532.8000;0.0895;-0.7927;
533.1000;0.0912;-0.7950;
533.4000;0.0993;-0.7655;
533.7000;0.0871;-0.8018;
534.0000;0.1001;-0.7769;
534.3000;0.0887;-0.8063;
534.6000;0.0944;-0.7927;
534.9000;0.0952;-0.7859;
535.2000;0.0904;-0.7927;
535.5000;0.0887;-0.7882;
535.8000;0.0928;-0.7837;
536.1000;0.0912;-0.7882;
536.4000;0.0904;-0.7927;
536.7000;0.0895;-0.7927;
537.0000;0.0904;-0.7927;
537.3000;0.0895;-0.7927;
537.6000;0.0985;-0.7723;
537.9000;0.0847;-0.7950;
538.2000;0.0928;-0.7837;
538.5000;0.0838;-0.7972;
538.8000;0.0904;-0.7837;
539.1000;0.0936;-0.7746;
539.4000;0.0912;-0.7814;
539.7000;0.0904;-0.7791;
540.0000;0.0895;-0.7882;
540.3000;0.0895;-0.7905;
540.6000;0.0895;-0.7950;
540.9000;0.0887;-0.7995;
541.2000;0.0912;-0.7882;
541.5000;0.0912;-0.7950;
541.8000;0.0912;-0.7950;
542.1000;0.0904;-0.7927;
542.4000;0.0879;-0.7972;
542.7000;0.0871;-0.7995;
543.0000;0.0993;-0.7723;
543.3000;0.0912;-0.7882;
543.6000;0.0895;-0.7905;
543.9000;0.0920;-0.7791;
544.2000;0.0904;-0.7882;
544.5000;0.0969;-0.7701;
544.8000;0.0838;-0.7950;
545.1000;0.0928;-0.7791;
545.4000;0.0895;-0.7837;
545.7000;0.0985;-0.7610;
546.0000;0.0904;-0.7859;
546.3000;0.0912;-0.7814;
546.6000;0.0920;-0.7859;
546.9000;0.0912;-0.7837;
547.2000;0.0895;-0.7837;
547.5000;0.0895;-0.7791;
547.8000;0.0912;-0.7837;
548.1000;0.0912;-0.7859;
548.4000;0.0887;-0.7927;
548.7000;0.0977;-0.7791;
549.0000;0.0863;-0.8063;
549.3000;0.0912;-0.7882;
549.6000;0.0895;-0.7882;
549.9000;0.0904;-0.7814;
550.2000;0.0879;-0.7905;
550.5000;0.0904;-0.7882;
550.8000;0.0904;-0.7882;
551.1000;0.0904;-0.7837;
551.4000;0.0887;-0.7882;
551.7000;0.0912;-0.7905;
552.0000;0.0904;-0.7905;
552.3000;0.0895;-0.7859;
552.6000;0.0936;-0.7791;
552.9000;0.0904;-0.7927;
553.2000;0.0920;-0.7814;
553.5000;0.0887;-0.7972;
553.8000;0.0904;-0.7927;
554.1000;0.0895;-0.7882;
554.4000;0.0830;-0.7972;
554.7000;0.0895;-0.7791;
555.0000;0.0928;-0.7746;
555.3000;0.0936;-0.7723;
555.6000;0.0912;-0.7814;
555.9000;0.0920;-0.7791;
556.2000;0.0920;-0.7769;
556.5000;0.0912;-0.7905;
556.8000;0.0920;-0.7905;
557.1000;0.0912;-0.7927;
557.4000;0.0912;-0.7859;
557.7000;0.0920;-0.7995;
558.0000;0.0904;-0.8040;
558.3000;0.0920;-0.7972;
558.6000;0.0822;-0.8176;
558.9000;0.0871;-0.7995;
559.2000;0.0920;-0.7837;
559.5000;0.0863;-0.7995;
559.8000;0.0920;-0.7927;
560.1000;0.0879;-0.8063;
560.4000;0.1058;-0.7633;
560.7000;0.0887;-0.7972;
561.0000;0.0912;-0.7927;
561.3000;0.0895;-0.7950;
561.6000;0.0952;-0.7791;
561.9000;0.0904;-0.7950;
562.2000;0.0879;-0.7972;
562.5000;0.1018;-0.7610;
562.8000;0.0904;-0.7950;
563.1000;0.0871;-0.7972;
563.4000;0.1009;-0.7678;
563.7000;0.0895;-0.7882;
564.0000;0.0895;-0.7995;
564.3000;0.0895;-0.8018;
564.6000;0.0830;-0.8244;
564.9000;0.0887;-0.8040;
565.2000;0.0879;-0.8018;
565.5000;0.0928;-0.7995;
565.8000;0.0969;-0.7837;
566.1000;0.0838;-0.8176;
566.4000;0.0887;-0.8063;
566.7000;0.0904;-0.7927;
567.0000;0.0912;-0.7814;
567.3000;0.0936;-0.7633;
567.6000;0.0887;-0.7791;
567.9000;0.0912;-0.7859;
568.2000;0.0887;-0.7859;
568.5000;0.0895;-0.7859;
568.8000;0.0904;-0.7814;
569.1000;0.0904;-0.7814;
569.4000;0.0879;-0.7905;
569.7000;0.0895;-0.7927;
570.0000;0.0961;-0.7791;
570.3000;0.0904;-0.7859;
570.6000;0.0928;-0.7859;
570.9000;0.0912;-0.7905;
571.2000;0.1001;-0.7723;
571.5000;0.0928;-0.7882;
571.8000;0.0895;-0.7927;
572.1000;0.0912;-0.7927;
572.4000;0.0928;-0.7927;
572.7000;0.0936;-0.7905;
573.0000;0.0904;-0.7995;
573.3000;0.0928;-0.7859;
573.6000;0.0895;-0.7882;
573.9000;0.0912;-0.7905;
574.2000;0.0912;-0.7972;
574.5000;0.0928;-0.7972;
574.8000;0.0912;-0.7972;
575.1000;0.0912;-0.7972;
575.4000;0.0961;-0.7905;
575.7000;0.0912;-0.7972;
576.0000;0.0912;-0.7950;
576.3000;0.0969;-0.7723;
576.6000;0.0895;-0.7950;
576.9000;0.0895;-0.7972;
577.2000;0.0928;-0.7927;
577.5000;0.0879;-0.7972;
577.8000;0.0904;-0.7972;
578.1000;0.0912;-0.7972;
578.4000;0.0847;-0.8244;
578.7000;0.0944;-0.8063;
579.0000;0.0912;-0.8131;
579.3000;0.0928;-0.8086;
579.6000;0.0912;-0.8086;
579.9000;0.0887;-0.8108;
580.2000;0.0895;-0.8131;
580.5000;0.0920;-0.8063;
580.8000;0.0887;-0.8086;
581.1000;0.1026;-0.7746;
581.4000;0.0969;-0.7950;
581.7000;0.0887;-0.8199;
582.0000;0.0887;-0.8222;
582.3000;0.0912;-0.8154;
582.6000;0.0912;-0.8131;
582.9000;0.0895;-0.8108;
583.2000;0.0887;-0.8063;
583.5000;0.0904;-0.7972;
583.8000;0.0904;-0.7995;
584.1000;0.0912;-0.7950;
584.4000;0.0961;-0.7905;
584.7000;0.0912;-0.8040;
585.0000;0.0904;-0.8063;
585.3000;0.0879;-0.8040;
585.6000;0.0904;-0.7927;
585.9000;0.0920;-0.7837;
586.2000;0.0912;-0.7791;
586.5000;0.0920;-0.7814;
586.8000;0.0830;-0.8108;
587.1000;0.0920;-0.7859;
587.4000;0.0920;-0.7837;
587.7000;0.0920;-0.7882;
588.0000;0.0895;-0.7972;
588.3000;0.0920;-0.7927;
588.6000;0.0936;-0.7814;
588.9000;0.0887;-0.7905;
589.2000;0.0944;-0.7814;
589.5000;0.0904;-0.7927;
589.8000;0.0936;-0.7837;
590.1000;0.0928;-0.7905;
590.4000;0.0895;-0.7905;
590.7000;0.0928;-0.7859;
591.0000;0.0895;-0.7905;
591.3000;0.0895;-0.7950;
591.6000;0.0912;-0.7905;
591.9000;0.0887;-0.7927;
592.2000;0.0920;-0.7905;
592.5000;0.0928;-0.7905;
592.8000;0.0912;-0.7950;
593.1000;0.0871;-0.8086;
593.4000;0.0912;-0.8063;
593.7000;0.0887;-0.8063;
594.0000;0.0895;-0.7950;
594.3000;0.0904;-0.7972;
594.6000;0.0912;-0.7882;
594.9000;0.0838;-0.8063;
595.2000;0.0985;-0.7701;
595.5000;0.0928;-0.7859;
595.8000;0.0912;-0.7859;
596.1000;0.0912;-0.7905;
596.4000;0.0928;-0.7927;
596.7000;0.0879;-0.8063;
597.0000;0.0830;-0.8267;
597.3000;0.0912;-0.8108;
597.6000;0.0814;-0.8448;
597.9000;0.0895;-0.8335;
598.2000;0.0879;-0.8425;
598.5000;0.0895;-0.8358;
598.8000;0.0895;-0.8312;
599.1000;0.0944;-0.8131;
599.4000;0.0863;-0.8358;
599.7000;0.0993;-0.7927;
600.0000;0.0904;-0.8018;
600.3000;0.0863;-0.8108;
600.6000;0.0904;-0.8063;
600.9000;0.0961;-0.8086;
601.2000;0.0928;-0.8267;
601.5000;0.1001;-0.8040;
601.8000;0.0871;-0.8493;
602.1000;0.0863;-0.8607;
602.4000;0.0879;-0.8743;
602.7000;0.0928;-0.8607;
603.0000;0.0871;-0.8697;
603.3000;0.0871;-0.8720;
603.6000;0.0928;-0.8697;
603.9000;0.0863;-0.8924;
604.2000;0.0863;-0.8969;
604.5000;0.0838;-0.9128;
604.8000;0.0855;-0.8969;
605.1000;0.0904;-0.8878;
605.4000;0.0895;-0.8946;
605.7000;0.0855;-0.9037;
606.0000;0.0855;-0.9128;
606.3000;0.0814;-0.9286;
606.6000;0.0879;-0.9150;
606.9000;0.0838;-0.9377;
607.2000;0.0822;-0.9513;
607.5000;0.0733;-0.9739;
607.8000;0.0822;-0.9513;
608.1000;0.0814;-0.9445;
608.4000;0.0757;-0.9626;
608.7000;0.0822;-0.9331;
609.0000;0.0838;-0.9309;
609.3000;0.0798;-0.9399;
609.6000;0.0806;-0.9422;
609.9000;0.0806;-0.9354;
610.2000;0.0838;-0.9241;
610.5000;0.0814;-0.9331;
610.8000;0.0806;-0.9309;
611.1000;0.0822;-0.9218;
611.4000;0.0806;-0.9354;
611.7000;0.0806;-0.9377;
612.0000;0.0790;-0.9445;
612.3000;0.0798;-0.9445;
612.6000;0.0830;-0.9309;
612.9000;0.0724;-0.9603;
613.2000;0.0781;-0.9422;
613.5000;0.0822;-0.9331;
613.8000;0.0830;-0.9377;
614.1000;0.0790;-0.9490;
614.4000;0.0863;-0.9263;
614.7000;0.0838;-0.9354;
615.0000;0.0814;-0.9490;
615.3000;0.0822;-0.9422;
615.6000;0.0814;-0.9445;
615.9000;0.0936;-0.9150;
616.2000;0.0765;-0.9649;
616.5000;0.0838;-0.9558;
616.8000;0.0790;-0.9649;
617.1000;0.0814;-0.9558;
617.4000;0.0798;-0.9671;
617.7000;0.0822;-0.9694;
618.0000;0.0790;-0.9762;
618.3000;0.0781;-0.9671;
618.6000;0.0781;-0.9694;
618.9000;0.0773;-0.9649;
619.2000;0.0781;-0.9649;
619.5000;0.0798;-0.9558;
619.8000;0.0757;-0.9649;
620.1000;0.0814;-0.9399;
620.4000;0.0781;-0.9309;
620.7000;0.0863;-0.9196;
621.0000;0.0790;-0.9354;
621.3000;0.0790;-0.9422;
621.6000;0.0733;-0.9603;
621.9000;0.0790;-0.9377;
622.2000;0.0798;-0.9377;
622.5000;0.0822;-0.9354;
622.8000;0.0765;-0.9558;
623.1000;0.0773;-0.9490;
623.4000;0.0708;-0.9626;
623.7000;0.0830;-0.9399;
624.0000;0.0781;-0.9535;
624.3000;0.0716;-0.9671;
624.6000;0.0790;-0.9377;
624.9000;0.0773;-0.9399;
625.2000;0.0659;-0.9649;
625.5000;0.0814;-0.9241;
625.8000;0.0790;-0.9218;
626.1000;0.0781;-0.9218;
626.4000;0.0773;-0.9241;
626.7000;0.0741;-0.9331;
627.0000;0.0757;-0.9309;
627.3000;0.0781;-0.9173;
627.6000;0.0676;-0.9490;
627.9000;0.0765;-0.9309;
628.2000;0.0781;-0.9263;
628.5000;0.0798;-0.9196;
628.8000;0.0773;-0.9241;
629.1000;0.0830;-0.9105;
629.4000;0.0781;-0.9263;
629.7000;0.0741;-0.9399;
630.0000;0.0765;-0.9354;
630.3000;0.0790;-0.9309;
630.6000;0.0790;-0.9263;
630.9000;0.0781;-0.9331;
631.2000;0.0765;-0.9354;
631.5000;0.0871;-0.9173;
631.8000;0.0790;-0.9490;
632.1000;0.0765;-0.9558;
632.4000;0.0781;-0.9445;
632.7000;0.0749;-0.9445;
633.0000;0.0806;-0.9286;
633.3000;0.0765;-0.9263;
633.6000;0.0667;-0.9445;
633.9000;0.0781;-0.9241;
634.2000;0.0773;-0.9196;
634.5000;0.0757;-0.9173;
634.8000;0.0749;-0.9218;
635.1000;0.0790;-0.9218;
635.4000;0.0773;-0.9241;
635.7000;0.0757;-0.9331;
636.0000;0.0781;-0.9263;
636.3000;0.0790;-0.9263;
636.6000;0.0790;-0.9331;
636.9000;0.0781;-0.9354;
637.2000;0.0790;-0.9331;
637.5000;0.0781;-0.9309;
637.8000;0.0781;-0.9241;
638.1000;0.0855;-0.9060;
638.4000;0.0765;-0.9309;
638.7000;0.0692;-0.9581;
639.0000;0.0798;-0.9309;
639.3000;0.0765;-0.9377;
639.6000;0.0798;-0.9196;
639.9000;0.0667;-0.9558;
640.2000;0.0757;-0.9377;
640.5000;0.0781;-0.9399;
640.8000;0.0920;-0.9037;
641.1000;0.0879;-0.9173;
641.4000;0.0765;-0.9535;
641.7000;0.0700;-0.9603;
642.0000;0.0773;-0.9558;
642.3000;0.0757;-0.9558;
642.6000;0.0741;-0.9626;
642.9000;0.0781;-0.9490;
643.2000;0.0806;-0.9422;
643.5000;0.0773;-0.9490;
643.8000;0.0790;-0.9513;
644.1000;0.0741;-0.9603;
644.4000;0.0724;-0.9603;
644.7000;0.0773;-0.9513;
645.0000;0.0749;-0.9535;
645.3000;0.0781;-0.9467;
645.6000;0.0757;-0.9558;
645.9000;0.0773;-0.9467;
646.2000;0.0765;-0.9399;
646.5000;0.0773;-0.9467;
646.8000;0.0773;-0.9399;
647.1000;0.0773;-0.9445;
647.4000;0.0757;-0.9399;
647.7000;0.0757;-0.9422;
648.0000;0.0765;-0.9377;
648.3000;0.0773;-0.9241;
648.6000;0.0708;-0.9422;
648.9000;0.0806;-0.9218;
649.2000;0.0757;-0.9354;
649.5000;0.0724;-0.9445;
649.8000;0.0773;-0.9263;
650.1000;0.0749;-0.9377;
650.4000;0.0765;-0.9331;
650.7000;0.0594;-0.9716;
651.0000;0.0781;-0.9263;
651.3000;0.0765;-0.9263;
651.6000;0.0773;-0.9173;
651.9000;0.0773;-0.9196;
652.2000;0.0757;-0.9241;
652.5000;0.0716;-0.9331;
652.8000;0.0765;-0.9196;
653.1000;0.0781;-0.9150;
653.4000;0.0741;-0.9173;
653.7000;0.0757;-0.9150;
654.0000;0.0781;-0.9128;
654.3000;0.0757;-0.9196;
654.6000;0.0619;-0.9581;
654.9000;0.0749;-0.9286;
655.2000;0.0757;-0.9196;
655.5000;0.0773;-0.9196;
655.8000;0.0806;-0.9037;
656.1000;0.0798;-0.9082;
656.4000;0.0871;-0.8901;
656.7000;0.0765;-0.9263;
657.0000;0.0749;-0.9354;
657.3000;0.0773;-0.9286;
657.6000;0.0700;-0.9445;
657.9000;0.0757;-0.9467;
658.2000;0.0757;-0.9535;
658.5000;0.0765;-0.9513;
658.8000;0.0814;-0.9331;
659.1000;0.0724;-0.9490;
659.4000;0.0708;-0.9581;
659.7000;0.0781;-0.9445;
660.0000;0.0749;-0.9558;
660.3000;0.0765;-0.9581;
660.6000;0.0773;-0.9603;
660.9000;0.0781;-0.9445;
661.2000;0.0741;-0.9399;
661.5000;0.0765;-0.9422;
661.8000;0.0724;-0.9467;
662.1000;0.0765;-0.9399;
662.4000;0.0741;-0.9467;
662.7000;0.0749;-0.9490;
663.0000;0.0741;-0.9467;
663.3000;0.0765;-0.9490;
663.6000;0.0741;-0.9467;
663.9000;0.0781;-0.9422;
664.2000;0.0830;-0.9331;
664.5000;0.0765;-0.9535;
664.8000;0.0749;-0.9535;
665.1000;0.0733;-0.9535;
665.4000;0.0651;-0.9716;
665.7000;0.0741;-0.9490;
666.0000;0.0733;-0.9490;
666.3000;0.0757;-0.9467;
666.6000;0.0757;-0.9535;
666.9000;0.0765;-0.9558;
667.2000;0.0724;-0.9626;
667.5000;0.0749;-0.9490;
667.8000;0.0741;-0.9581;
668.1000;0.0724;-0.9558;
668.4000;0.0643;-0.9830;
668.7000;0.0749;-0.9626;
669.0000;0.0749;-0.9694;
669.3000;0.0781;-0.9626;
669.6000;0.0724;-0.9830;
669.9000;0.0765;-0.9762;
670.2000;0.0765;-0.9852;
670.5000;0.0741;-0.9830;
670.8000;0.0749;-0.9807;
671.1000;0.0733;-0.9784;
671.4000;0.0708;-0.9875;
671.7000;0.0749;-0.9739;
672.0000;0.0830;-0.9422;
672.3000;0.0724;-0.9716;
672.6000;0.0765;-0.9603;
672.9000;0.0814;-0.9535;
673.2000;0.0749;-0.9626;
673.5000;0.0684;-0.9807;
673.8000;0.0749;-0.9513;
674.1000;0.0765;-0.9445;
674.4000;0.0749;-0.9603;
674.7000;0.0838;-0.9309;
675.0000;0.0741;-0.9535;
675.3000;0.0749;-0.9535;
675.6000;0.0757;-0.9490;
675.9000;0.0838;-0.9263;
676.2000;0.0724;-0.9581;
676.5000;0.0724;-0.9603;
676.8000;0.0741;-0.9603;
677.1000;0.0741;-0.9626;
677.4000;0.0741;-0.9558;
677.7000;0.0741;-0.9581;
678.0000;0.0765;-0.9467;
678.3000;0.0757;-0.9558;
678.6000;0.0757;-0.9535;
678.9000;0.0733;-0.9558;
679.2000;0.0757;-0.9581;
679.5000;0.0708;-0.9762;
679.8000;0.0757;-0.9694;
680.1000;0.0594;-1.0147;
680.4000;0.0684;-0.9920;
680.7000;0.0741;-0.9875;
681.0000;0.0757;-0.9784;
681.3000;0.0781;-0.9762;
681.6000;0.0757;-0.9784;
681.9000;0.0749;-0.9784;
682.2000;0.0781;-0.9603;
682.5000;0.0765;-0.9581;
682.8000;0.0741;-0.9694;
683.1000;0.0757;-0.9558;
683.4000;0.0741;-0.9581;
683.7000;0.0757;-0.9626;
684.0000;0.0724;-0.9762;
684.3000;0.0741;-0.9626;
684.6000;0.0716;-0.9581;
684.9000;0.0773;-0.9581;
685.2000;0.0749;-0.9581;
685.5000;0.0724;-0.9603;
685.8000;0.0733;-0.9535;
686.1000;0.0757;-0.9445;
686.4000;0.0757;-0.9377;
686.7000;0.0765;-0.9354;
687.0000;0.0724;-0.9445;
687.3000;0.0798;-0.9354;
687.6000;0.0733;-0.9626;
687.9000;0.0741;-0.9581;
688.2000;0.0765;-0.9513;
688.5000;0.0708;-0.9558;
688.8000;0.0741;-0.9513;
689.1000;0.0749;-0.9513;
689.4000;0.0700;-0.9603;
689.7000;0.0692;-0.9739;
690.0000;0.0741;-0.9626;
690.3000;0.0773;-0.9535;
690.6000;0.0749;-0.9603;
690.9000;0.0765;-0.9535;
691.2000;0.0773;-0.9422;
691.5000;0.0773;-0.9399;
691.8000;0.0741;-0.9354;
692.1000;0.0667;-0.9535;
692.4000;0.0716;-0.9377;
692.7000;0.0733;-0.9354;
693.0000;0.0700;-0.9399;
693.3000;0.0757;-0.9377;
693.6000;0.0765;-0.9399;
693.9000;0.0741;-0.9377;
694.2000;0.0830;-0.9105;
694.5000;0.0724;-0.9354;
694.8000;0.0781;-0.9354;
695.1000;0.0830;-0.9128;
695.4000;0.0765;-0.9309;
695.7000;0.0586;-0.9784;
696.0000;0.0733;-0.9377;
696.3000;0.0749;-0.9422;
696.6000;0.0757;-0.9286;
696.9000;0.0765;-0.9331;
697.2000;0.0749;-0.9377;
697.5000;0.0749;-0.9377;
697.8000;0.0667;-0.9558;
698.1000;0.0724;-0.9490;
698.4000;0.0716;-0.9603;
698.7000;0.0847;-0.9241;
699.0000;0.0749;-0.9490;
699.3000;0.0741;-0.9445;
699.6000;0.0733;-0.9558;
699.9000;0.0733;-0.9535;
700.2000;0.0765;-0.9445;
700.5000;0.0749;-0.9331;
700.8000;0.0733;-0.9399;
701.1000;0.0700;-0.9445;
701.4000;0.0871;-0.8992;
701.7000;0.0765;-0.9263;
702.0000;0.0733;-0.9309;
702.3000;0.0733;-0.9377;
702.6000;0.0765;-0.9309;
702.9000;0.0757;-0.9377;
703.2000;0.0741;-0.9331;
703.5000;0.0749;-0.9309;
703.8000;0.0692;-0.9354;
704.1000;0.0619;-0.9558;
704.4000;0.0724;-0.9377;
704.7000;0.0708;-0.9399;
705.0000;0.0749;-0.9399;
705.3000;0.0757;-0.9309;
705.6000;0.0749;-0.9354;
705.9000;0.0724;-0.9399;
706.2000;0.0741;-0.9331;
706.5000;0.0757;-0.9241;
706.8000;0.0708;-0.9399;
707.1000;0.0733;-0.9309;
707.4000;0.0757;-0.9196;
707.7000;0.0741;-0.9263;
708.0000;0.0749;-0.9241;
708.3000;0.0741;-0.9263;
708.6000;0.0700;-0.9286;
708.9000;0.0733;-0.9241;
709.2000;0.0773;-0.9241;
709.5000;0.0765;-0.9218;
709.8000;0.0733;-0.9354;
710.1000;0.0700;-0.9399;
710.4000;0.0757;-0.9286;
710.7000;0.0773;-0.9354;
711.0000;0.0733;-0.9490;
711.3000;0.0765;-0.9558;
711.6000;0.0733;-0.9558;
711.9000;0.0757;-0.9399;
712.2000;0.0741;-0.9331;
712.5000;0.0749;-0.9377;
712.8000;0.0749;-0.9354;
713.1000;0.0684;-0.9626;
713.4000;0.0765;-0.9399;
713.7000;0.0765;-0.9377;
714.0000;0.0741;-0.9331;
714.3000;0.0773;-0.9196;
714.6000;0.0749;-0.9263;
714.9000;0.0741;-0.9354;
715.2000;0.0765;-0.9377;
715.5000;0.0757;-0.9377;
715.8000;0.0757;-0.9354;
716.1000;0.0708;-0.9377;
716.4000;0.0741;-0.9354;
716.7000;0.0749;-0.9309;
717.0000;0.0838;-0.9014;
717.3000;0.0716;-0.9354;
717.6000;0.0708;-0.9331;
717.9000;0.0716;-0.9490;
718.2000;0.0716;-0.9467;
718.5000;0.0676;-0.9490;
718.8000;0.0716;-0.9309;
719.1000;0.0806;-0.9082;
719.4000;0.0724;-0.9377;
719.7000;0.0676;-0.9603;
720.0000;0.0749;-0.9377;
720.3000;0.0733;-0.9377;
720.6000;0.0733;-0.9399;
720.9000;0.0757;-0.9309;
721.2000;0.0765;-0.9286;
721.5000;0.0700;-0.9445;
721.8000;0.0741;-0.9354;
722.1000;0.0790;-0.9173;
722.4000;0.0749;-0.9263;
722.7000;0.0733;-0.9241;
723.0000;0.0733;-0.9150;
723.3000;0.0773;-0.9082;
723.6000;0.0741;-0.9173;
723.9000;0.0765;-0.9150;
724.2000;0.0749;-0.9196;
724.5000;0.0741;-0.9218;
724.8000;0.0749;-0.9286;
725.1000;0.0724;-0.9377;
725.4000;0.0733;-0.9377;
725.7000;0.0749;-0.9286;
726.0000;0.0741;-0.9286;
726.3000;0.0700;-0.9422;
726.6000;0.0724;-0.9354;
726.9000;0.0757;-0.9309;
727.2000;0.0749;-0.9309;
727.5000;0.0724;-0.9331;
727.8000;0.0757;-0.9263;
728.1000;0.0733;-0.9309;
728.4000;0.0724;-0.9286;
728.7000;0.0733;-0.9218;
729.0000;0.0716;-0.9354;
729.3000;0.0733;-0.9377;
729.6000;0.0749;-0.9263;
729.9000;0.0708;-0.9263;
730.2000;0.0765;-0.9241;
730.5000;0.0724;-0.9331;
730.8000;0.0733;-0.9331;
731.1000;0.0757;-0.9309;
731.4000;0.0716;-0.9354;
731.7000;0.0700;-0.9377;
732.0000;0.0659;-0.9558;
732.3000;0.0741;-0.9399;
732.6000;0.0700;-0.9513;
732.9000;0.0749;-0.9422;
733.2000;0.0765;-0.9309;
733.5000;0.0708;-0.9286;
733.8000;0.0733;-0.9196;
734.1000;0.0749;-0.9128;
734.4000;0.0733;-0.9173;
734.7000;0.0757;-0.9105;
735.0000;0.0757;-0.9105;
735.3000;0.0716;-0.9173;
735.6000;0.0724;-0.9241;
735.9000;0.0757;-0.9150;
736.2000;0.0741;-0.9286;
736.5000;0.0749;-0.9218;
736.8000;0.0724;-0.9196;
737.1000;0.0700;-0.9128;
737.4000;0.0741;-0.9105;
737.7000;0.0733;-0.9105;
738.0000;0.0749;-0.9060;
738.3000;0.0733;-0.9060;
738.6000;0.0757;-0.9060;
738.9000;0.0716;-0.9150;
739.2000;0.0741;-0.9082;
739.5000;0.0716;-0.9082;
739.8000;0.0692;-0.9060;
740.1000;0.0749;-0.8924;
740.4000;0.0741;-0.9014;
740.7000;0.0757;-0.8833;
741.0000;0.0757;-0.8765;
741.3000;0.0749;-0.8810;
741.6000;0.0757;-0.8833;
741.9000;0.0749;-0.8743;
742.2000;0.0773;-0.8810;
742.5000;0.0741;-0.8901;
742.8000;0.0733;-0.8810;
743.1000;0.0708;-0.8833;
743.4000;0.0749;-0.8788;
743.7000;0.0724;-0.8788;
744.0000;0.0814;-0.8652;
744.3000;0.0724;-0.8856;
744.6000;0.0749;-0.8833;
744.9000;0.0741;-0.8788;
745.2000;0.0757;-0.8810;
745.5000;0.0716;-0.8856;
745.8000;0.0749;-0.8833;
746.1000;0.0741;-0.8833;
746.4000;0.0741;-0.8833;
746.7000;0.0733;-0.8788;
747.0000;0.0724;-0.8743;
747.3000;0.0724;-0.8697;
747.6000;0.0765;-0.8584;
747.9000;0.0749;-0.8675;
748.2000;0.0749;-0.8675;
748.5000;0.0667;-0.8788;
748.8000;0.0724;-0.8629;
749.1000;0.0765;-0.8584;
749.4000;0.0692;-0.8743;
749.7000;0.0741;-0.8561;
750.0000;0.0749;-0.8652;
750.3000;0.0773;-0.8675;
750.6000;0.0741;-0.8810;
750.9000;0.0749;-0.8833;
751.2000;0.0741;-0.8878;
751.5000;0.0733;-0.9060;
751.8000;0.0724;-0.9037;
752.1000;0.0724;-0.9060;
752.4000;0.0733;-0.9082;
752.7000;0.0716;-0.9060;
753.0000;0.0773;-0.8924;
753.3000;0.0700;-0.9173;
753.6000;0.0716;-0.9014;
753.9000;0.0757;-0.8969;
754.2000;0.0830;-0.8788;
754.5000;0.0741;-0.8992;
754.8000;0.0773;-0.8924;
755.1000;0.0733;-0.8992;
755.4000;0.0741;-0.8969;
755.7000;0.0692;-0.9150;
756.0000;0.0667;-0.9263;
756.3000;0.0716;-0.9105;
756.6000;0.0765;-0.9037;
756.9000;0.0773;-0.8992;
757.2000;0.0749;-0.9037;
757.5000;0.0749;-0.9060;
757.8000;0.0659;-0.9286;
758.1000;0.0708;-0.9128;
758.4000;0.0806;-0.8856;
758.7000;0.0790;-0.8856;
759.0000;0.0733;-0.8946;
759.3000;0.0741;-0.8924;
759.6000;0.0749;-0.8856;
759.9000;0.0757;-0.8924;
760.2000;0.0773;-0.8924;
760.5000;0.0749;-0.8946;
760.8000;0.0741;-0.8856;
761.1000;0.0765;-0.8765;
761.4000;0.0733;-0.8901;
761.7000;0.0724;-0.8924;
762.0000;0.0749;-0.8901;
762.3000;0.0741;-0.8901;
762.6000;0.0765;-0.8924;
762.9000;0.0749;-0.8924;
763.2000;0.0749;-0.8901;
763.5000;0.0855;-0.8652;
763.8000;0.0724;-0.9037;
764.1000;0.0798;-0.8901;
764.4000;0.0692;-0.9128;
764.7000;0.0790;-0.8992;
765.0000;0.0749;-0.9082;
765.3000;0.0749;-0.9014;
765.6000;0.0749;-0.9037;
765.9000;0.0627;-0.9331;
766.2000;0.0790;-0.8901;
766.5000;0.0724;-0.9060;
766.8000;0.0741;-0.8992;
767.1000;0.0733;-0.9060;
767.4000;0.0708;-0.9060;
767.7000;0.0814;-0.8833;
768.0000;0.0741;-0.9037;
768.3000;0.0724;-0.9150;
768.6000;0.0724;-0.9150;
768.9000;0.0741;-0.9128;
769.2000;0.0749;-0.9082;
769.5000;0.0676;-0.9286;
769.8000;0.0659;-0.9286;
770.1000;0.0724;-0.9218;
770.4000;0.0830;-0.8946;
770.7000;0.0749;-0.9060;
771.0000;0.0741;-0.9082;
771.3000;0.0781;-0.9014;
771.6000;0.0822;-0.8878;
771.9000;0.0757;-0.9060;
772.2000;0.0724;-0.9060;
772.5000;0.0733;-0.9082;
772.8000;0.0741;-0.8946;
773.1000;0.0757;-0.8924;
773.4000;0.0741;-0.9037;
773.7000;0.0741;-0.9128;
774.0000;0.0749;-0.9082;
774.3000;0.0765;-0.9037;
774.6000;0.0830;-0.8856;
774.9000;0.0749;-0.9060;
775.2000;0.0749;-0.9037;
775.5000;0.0733;-0.9082;
775.8000;0.0749;-0.9082;
776.1000;0.0749;-0.9105;
776.4000;0.0724;-0.9150;
776.7000;0.0741;-0.9037;
777.0000;0.0757;-0.9037;
777.3000;0.0749;-0.9060;
777.6000;0.0757;-0.9105;
777.9000;0.0741;-0.9128;
778.2000;0.0651;-0.9331;
778.5000;0.0716;-0.9173;
778.8000;0.0781;-0.8992;
779.1000;0.0741;-0.9060;
779.4000;0.0757;-0.9060;
779.7000;0.0749;-0.9128;
780.0000;0.0733;-0.9173;
780.3000;0.0741;-0.9105;
780.6000;0.0733;-0.9082;
780.9000;0.0741;-0.9082;
781.2000;0.0741;-0.9173;
781.5000;0.0757;-0.9173;
781.8000;0.0757;-0.9173;
782.1000;0.0781;-0.9128;
782.4000;0.0716;-0.9196;
782.7000;0.0749;-0.9105;
783.0000;0.0749;-0.9173;
783.3000;0.0749;-0.9218;
783.6000;0.0741;-0.9150;
783.9000;0.0733;-0.9128;
784.2000;0.0757;-0.9014;
784.5000;0.0757;-0.9014;
784.8000;0.0733;-0.9014;
785.1000;0.0798;-0.8788;
785.4000;0.0773;-0.8833;
785.7000;0.0733;-0.8833;
786.0000;0.0724;-0.8856;
786.3000;0.0781;-0.8810;
786.6000;0.0757;-0.8946;
786.9000;0.0757;-0.9014;
787.2000;0.0741;-0.9060;
787.5000;0.0733;-0.9150;
787.8000;0.0757;-0.9082;
788.1000;0.0757;-0.9082;
788.4000;0.0757;-0.9082;
788.7000;0.0716;-0.9150;
789.0000;0.0757;-0.9037;
789.3000;0.0733;-0.9105;
789.6000;0.0741;-0.9128;
789.9000;0.0847;-0.8901;
790.2000;0.0757;-0.9105;
790.5000;0.0757;-0.9150;
790.8000;0.0790;-0.9082;
791.1000;0.0741;-0.9082;
791.4000;0.0724;-0.9128;
791.7000;0.0741;-0.9060;
792.0000;0.0741;-0.9128;
792.3000;0.0765;-0.9060;
792.6000;0.0773;-0.9060;
792.9000;0.0724;-0.9241;
793.2000;0.0757;-0.9150;
793.5000;0.0659;-0.9354;
793.8000;0.0806;-0.9037;
794.1000;0.0749;-0.9150;
794.4000;0.0741;-0.9150;
794.7000;0.0741;-0.9173;
795.0000;0.0733;-0.9263;
795.3000;0.0741;-0.9196;
795.6000;0.0757;-0.9173;
795.9000;0.0773;-0.9218;
796.2000;0.0733;-0.9286;
796.5000;0.0741;-0.9286;
796.8000;0.0716;-0.9263;
797.1000;0.0741;-0.9286;
797.4000;0.0757;-0.9128;
797.7000;0.0741;-0.9196;
798.0000;0.0733;-0.9173;
798.3000;0.0749;-0.9128;
798.6000;0.0716;-0.9196;
798.9000;0.0749;-0.9196;
799.2000;0.0741;-0.9218;
799.5000;0.0741;-0.9150;
799.8000;0.0749;-0.9196;
800.1000;0.0749;-0.9196;
800.4000;0.0749;-0.9218;
800.7000;0.0765;-0.9218;
801.0000;0.0806;-0.9082;
801.3000;0.0733;-0.9173;
801.6000;0.0733;-0.9128;
801.9000;0.0765;-0.9060;
802.2000;0.0798;-0.9037;
802.5000;0.0757;-0.9173;
802.8000;0.0749;-0.9128;
803.1000;0.0741;-0.9082;
803.4000;0.0741;-0.9082;
803.7000;0.0749;-0.9105;
804.0000;0.0749;-0.9037;
804.3000;0.0765;-0.9014;
804.6000;0.0733;-0.9128;
804.9000;0.0651;-0.9331;
805.2000;0.0749;-0.9082;
805.5000;0.0749;-0.9150;
805.8000;0.0676;-0.9331;
806.1000;0.0749;-0.9241;
806.4000;0.0724;-0.9331;
806.7000;0.0716;-0.9354;
807.0000;0.0757;-0.9263;
807.3000;0.0741;-0.9309;
807.6000;0.0757;-0.9309;
807.9000;0.0749;-0.9354;
808.2000;0.0733;-0.9331;
808.5000;0.0724;-0.9422;
808.8000;0.0741;-0.9331;
809.1000;0.0757;-0.9241;
809.4000;0.0716;-0.9377;
809.7000;0.0765;-0.9241;
810.0000;0.0733;-0.9286;
810.3000;0.0838;-0.9082;
810.6000;0.0749;-0.9263;
810.9000;0.0724;-0.9309;
811.2000;0.0741;-0.9354;
811.5000;0.0708;-0.9377;
811.8000;0.0741;-0.9263;
812.1000;0.0798;-0.9105;
812.4000;0.0724;-0.9196;
812.7000;0.0667;-0.9331;
813.0000;0.0741;-0.9082;
813.3000;0.0749;-0.9060;
813.6000;0.0879;-0.8697;
813.9000;0.0716;-0.9128;
814.2000;0.0757;-0.9128;
814.5000;0.0643;-0.9354;
814.8000;0.0733;-0.9150;
815.1000;0.0716;-0.9218;
815.4000;0.0757;-0.9218;
815.7000;0.0749;-0.9196;
816.0000;0.0765;-0.9150;
816.3000;0.0749;-0.9173;
816.6000;0.0741;-0.9286;
816.9000;0.0757;-0.9241;
817.2000;0.0741;-0.9218;
817.5000;0.0724;-0.9263;
817.8000;0.0716;-0.9286;
818.1000;0.0757;-0.9286;
818.4000;0.0733;-0.9309;
818.7000;0.0749;-0.9309;
819.0000;0.0741;-0.9309;
819.3000;0.0724;-0.9422;
819.6000;0.0733;-0.9286;
819.9000;0.0741;-0.9196;
820.2000;0.0765;-0.9196;
820.5000;0.0757;-0.9173;
820.8000;0.0773;-0.9128;
821.1000;0.0749;-0.9173;
821.4000;0.0806;-0.8969;
821.7000;0.0733;-0.9128;
822.0000;0.0724;-0.9105;
822.3000;0.0765;-0.9082;
822.6000;0.0708;-0.9196;
822.9000;0.0724;-0.9218;
823.2000;0.0749;-0.9218;
823.5000;0.0733;-0.9173;
823.8000;0.0741;-0.9173;
824.1000;0.0716;-0.9218;
824.4000;0.0708;-0.9218;
824.7000;0.0822;-0.8833;
825.0000;0.0741;-0.9037;
825.3000;0.0724;-0.9128;
825.6000;0.0757;-0.9105;
825.9000;0.0757;-0.9037;
826.2000;0.0814;-0.8901;
826.5000;0.0741;-0.9037;
826.8000;0.0733;-0.9150;
827.1000;0.0716;-0.9150;
827.4000;0.0741;-0.9128;
827.7000;0.0733;-0.9173;
828.0000;0.0863;-0.8878;
828.3000;0.0749;-0.9060;
828.6000;0.0741;-0.9060;
828.9000;0.0724;-0.9014;
829.2000;0.0602;-0.9399;
829.5000;0.0749;-0.8924;
829.8000;0.0749;-0.8992;
830.1000;0.0773;-0.8969;
830.4000;0.0757;-0.8992;
830.7000;0.0724;-0.9128;
831.0000;0.0749;-0.8992;
831.3000;0.0749;-0.8969;
831.6000;0.0733;-0.9037;
831.9000;0.0733;-0.9060;
832.2000;0.0741;-0.9037;
832.5000;0.0724;-0.9037;
832.8000;0.0757;-0.8901;
833.1000;0.0733;-0.8901;
833.4000;0.0749;-0.8946;
833.7000;0.0733;-0.8924;
834.0000;0.0716;-0.8946;
834.3000;0.0716;-0.8969;
834.6000;0.0765;-0.8924;
834.9000;0.0749;-0.9037;
835.2000;0.0757;-0.9014;
835.5000;0.0749;-0.9105;
835.8000;0.0733;-0.9128;
836.1000;0.0724;-0.9128;
836.4000;0.0757;-0.8992;
836.7000;0.0781;-0.8901;
837.0000;0.0733;-0.9037;
837.3000;0.0757;-0.8992;
837.6000;0.0741;-0.9014;
837.9000;0.0733;-0.9037;
838.2000;0.0757;-0.8969;
838.5000;0.0724;-0.9082;
838.8000;0.0724;-0.9037;
839.1000;0.0724;-0.9014;
839.4000;0.0692;-0.9060;
839.7000;0.0708;-0.9082;
840.0000;0.0724;-0.8901;
840.3000;0.0635;-0.9105;
840.6000;0.0765;-0.8833;
840.9000;0.0741;-0.8856;
841.2000;0.0741;-0.8878;
841.5000;0.0724;-0.8878;
841.8000;0.0716;-0.8969;
842.1000;0.0741;-0.8901;
842.4000;0.0765;-0.8901;
842.7000;0.0741;-0.9037;
843.0000;0.0749;-0.9060;
843.3000;0.0757;-0.9060;
843.6000;0.0611;-0.9445;
843.9000;0.0724;-0.9150;
844.2000;0.0741;-0.9105;
844.5000;0.0724;-0.9082;
844.8000;0.0749;-0.9037;
845.1000;0.0757;-0.9014;
845.4000;0.0724;-0.9014;
845.7000;0.0757;-0.8946;
846.0000;0.0733;-0.9014;
846.3000;0.0773;-0.9014;
846.6000;0.0749;-0.9128;
846.9000;0.0773;-0.9128;
847.2000;0.0724;-0.9218;
847.5000;0.0733;-0.9196;
847.8000;0.0741;-0.9196;
848.1000;0.0684;-0.9309;
848.4000;0.0741;-0.9173;
848.7000;0.0733;-0.9173;
849.0000;0.0757;-0.9082;
849.3000;0.0708;-0.9218;
849.6000;0.0716;-0.9218;
849.9000;0.0757;-0.9105;
850.2000;0.0749;-0.9196;
850.5000;0.0692;-0.9399;
850.8000;0.0757;-0.9331;
851.1000;0.0749;-0.9309;
851.4000;0.0741;-0.9286;
851.7000;0.0741;-0.9263;
852.0000;0.0790;-0.9037;
852.3000;0.0806;-0.9060;
852.6000;0.0757;-0.9218;
852.9000;0.0757;-0.9241;
853.2000;0.0700;-0.9354;
853.5000;0.0733;-0.9331;
853.8000;0.0757;-0.9331;
854.1000;0.0741;-0.9331;
854.4000;0.0724;-0.9309;
854.7000;0.0708;-0.9218;
855.0000;0.0733;-0.9309;
855.3000;0.0765;-0.9196;
855.6000;0.0749;-0.9241;
855.9000;0.0741;-0.9241;
856.2000;0.0749;-0.9331;
856.5000;0.0741;-0.9286;
856.8000;0.0724;-0.9309;
857.1000;0.0708;-0.9354;
857.4000;0.0741;-0.9263;
857.7000;0.0708;-0.9286;
858.0000;0.0708;-0.9286;
858.3000;0.0700;-0.9263;
858.6000;0.0733;-0.9331;
858.9000;0.0733;-0.9331;
859.2000;0.0733;-0.9309;
859.5000;0.0716;-0.9422;
859.8000;0.0806;-0.9309;
860.1000;0.0741;-0.9513;
860.4000;0.0765;-0.9490;
860.7000;0.0790;-0.9331;
861.0000;0.0741;-0.9399;
861.3000;0.0716;-0.9445;
861.6000;0.0757;-0.9286;
861.9000;0.0765;-0.9331;
862.2000;0.0798;-0.9173;
862.5000;0.0749;-0.9173;
862.8000;0.0798;-0.9128;
863.1000;0.0724;-0.9309;
863.4000;0.0781;-0.9060;
863.7000;0.0733;-0.9331;
864.0000;0.0757;-0.9286;
864.3000;0.0749;-0.9241;
864.6000;0.0733;-0.9196;
864.9000;0.0741;-0.9128;
865.2000;0.0733;-0.9218;
865.5000;0.0757;-0.9150;
865.8000;0.0749;-0.9150;
866.1000;0.0741;-0.9196;
866.4000;0.0749;-0.9173;
866.7000;0.0749;-0.9196;
867.0000;0.0773;-0.9150;
867.3000;0.0847;-0.8946;
867.6000;0.0708;-0.9331;
867.9000;0.0741;-0.9331;
868.2000;0.0765;-0.9173;
868.5000;0.0716;-0.9331;
868.8000;0.0724;-0.9241;
869.1000;0.0757;-0.9128;
869.4000;0.0724;-0.9196;
869.7000;0.0757;-0.9105;
870.0000;0.0684;-0.9263;
870.3000;0.0757;-0.9173;
870.6000;0.0757;-0.9105;
870.9000;0.0733;-0.9128;
871.2000;0.0830;-0.8856;
871.5000;0.0724;-0.9173;
871.8000;0.0757;-0.9173;
872.1000;0.0749;-0.9241;
872.4000;0.0676;-0.9535;
872.7000;0.0741;-0.9331;
873.0000;0.0741;-0.9286;
873.3000;0.0749;-0.9286;
873.6000;0.0741;-0.9354;
873.9000;0.0733;-0.9399;
874.2000;0.0798;-0.9196;
874.5000;0.0741;-0.9354;
874.8000;0.0724;-0.9377;
875.1000;0.0716;-0.9377;
875.4000;0.0676;-0.9445;
875.7000;0.0757;-0.9286;
876.0000;0.0692;-0.9377;
876.3000;0.0733;-0.9354;
876.6000;0.0749;-0.9286;
876.9000;0.0733;-0.9241;
877.2000;0.0586;-0.9581;
877.5000;0.0708;-0.9354;
877.8000;0.0716;-0.9331;
878.1000;0.0765;-0.9241;
878.4000;0.0684;-0.9331;
878.7000;0.0716;-0.9354;
879.0000;0.0716;-0.9286;
879.3000;0.0708;-0.9331;
879.6000;0.0733;-0.9263;
879.9000;0.0692;-0.9377;
880.2000;0.0741;-0.9218;
880.5000;0.0757;-0.9173;
880.8000;0.0765;-0.9196;
881.1000;0.0781;-0.9150;
881.4000;0.0757;-0.9263;
881.7000;0.0749;-0.9286;
882.0000;0.0684;-0.9513;
882.3000;0.0741;-0.9422;
882.6000;0.0741;-0.9422;
882.9000;0.0749;-0.9377;
883.2000;0.0716;-0.9445;
883.5000;0.0741;-0.9399;
883.8000;0.0733;-0.9399;
884.1000;0.0676;-0.9558;
884.4000;0.0733;-0.9422;
884.7000;0.0733;-0.9422;
885.0000;0.0741;-0.9399;
885.3000;0.0749;-0.9399;
885.6000;0.0724;-0.9467;
885.9000;0.0749;-0.9377;
886.2000;0.0806;-0.9218;
886.5000;0.0757;-0.9377;
886.8000;0.0749;-0.9377;
887.1000;0.0733;-0.9377;
887.4000;0.0822;-0.9105;
887.7000;0.0757;-0.9286;
888.0000;0.0708;-0.9445;
888.3000;0.0733;-0.9331;
888.6000;0.0659;-0.9558;
888.9000;0.0733;-0.9377;
889.2000;0.0724;-0.9399;
889.5000;0.0749;-0.9309;
889.8000;0.0724;-0.9286;
890.1000;0.0733;-0.9309;
890.4000;0.0716;-0.9354;
890.7000;0.0757;-0.9263;
891.0000;0.0741;-0.9309;
891.3000;0.0757;-0.9173;
891.6000;0.0741;-0.9196;
891.9000;0.0749;-0.9150;
892.2000;0.0700;-0.9263;
892.5000;0.0724;-0.9241;
892.8000;0.0733;-0.9263;
893.1000;0.0651;-0.9331;
893.4000;0.0749;-0.9128;
893.7000;0.0749;-0.9128;
894.0000;0.0733;-0.9150;
894.3000;0.0757;-0.9150;
894.6000;0.0749;-0.9128;
894.9000;0.0733;-0.9173;
895.2000;0.0741;-0.9150;
895.5000;0.0765;-0.9060;
895.8000;0.0757;-0.9082;
896.1000;0.0757;-0.8969;
896.4000;0.0741;-0.9082;
896.7000;0.0879;-0.8697;
897.0000;0.0741;-0.9037;
897.3000;0.0700;-0.9037;
897.6000;0.0741;-0.9014;
897.9000;0.0700;-0.9173;
898.2000;0.0716;-0.9196;
898.5000;0.0716;-0.9173;
898.8000;0.0733;-0.9196;
899.1000;0.0724;-0.9241;
899.4000;0.0708;-0.9218;
899.7000;0.0749;-0.9196;
900.0000;0.0724;-0.9286;
900.3000;0.0724;-0.9196;
900.6000;0.0781;-0.9037;
900.9000;0.0733;-0.9082;
901.2000;0.0602;-0.9399;
901.5000;0.0757;-0.9082;
901.8000;0.0733;-0.9196;
902.1000;0.0724;-0.9128;
902.4000;0.0659;-0.9218;
902.7000;0.0733;-0.8992;
903.0000;0.0692;-0.9105;
903.3000;0.0724;-0.9037;
903.6000;0.0741;-0.9150;
903.9000;0.0708;-0.9173;
904.2000;0.0733;-0.9060;
904.5000;0.0724;-0.9128;
904.8000;0.0724;-0.9263;
905.1000;0.0733;-0.9196;
905.4000;0.0724;-0.9286;
905.7000;0.0733;-0.9331;
906.0000;0.0741;-0.9286;
906.3000;0.0724;-0.9377;
906.6000;0.0855;-0.9060;
906.9000;0.0741;-0.9399;
907.2000;0.0724;-0.9331;
907.5000;0.0741;-0.9445;
907.8000;0.0814;-0.9286;
908.1000;0.0651;-0.9581;
908.4000;0.0773;-0.9241;
908.7000;0.0733;-0.9286;
909.0000;0.0757;-0.9196;
909.3000;0.0724;-0.9309;
909.6000;0.0749;-0.9286;
909.9000;0.0749;-0.9173;
910.2000;0.0741;-0.9218;
910.5000;0.0741;-0.9196;
910.8000;0.0749;-0.9173;
911.1000;0.0749;-0.9105;
911.4000;0.0781;-0.9014;
911.7000;0.0749;-0.9105;
912.0000;0.0700;-0.9218;
912.3000;0.0781;-0.9128;
912.6000;0.0733;-0.9241;
912.9000;0.0741;-0.9241;
913.2000;0.0716;-0.9218;
913.5000;0.0790;-0.8992;
913.8000;0.0724;-0.9173;
914.1000;0.0749;-0.9150;
914.4000;0.0733;-0.9173;
914.7000;0.0724;-0.9105;
915.0000;0.0749;-0.9128;
915.3000;0.0708;-0.9286;
915.6000;0.0757;-0.9263;
915.9000;0.0757;-0.9263;
916.2000;0.0749;-0.9241;
916.5000;0.0741;-0.9331;
916.8000;0.0733;-0.9309;
917.1000;0.0741;-0.9218;
917.4000;0.0773;-0.9037;
917.7000;0.0716;-0.9196;
918.0000;0.0684;-0.9263;
918.3000;0.0741;-0.9082;
918.6000;0.0724;-0.9218;
918.9000;0.0733;-0.9218;
919.2000;0.0724;-0.9196;
919.5000;0.0700;-0.9286;
919.8000;0.0757;-0.9150;
920.1000;0.0765;-0.9173;
920.4000;0.0749;-0.9218;
920.7000;0.0700;-0.9331;
921.0000;0.0676;-0.9422;
921.3000;0.0806;-0.9037;
921.6000;0.0733;-0.9218;
921.9000;0.0724;-0.9241;
922.2000;0.0724;-0.9286;
922.5000;0.0757;-0.9196;
922.8000;0.0765;-0.9128;
923.1000;0.0700;-0.9218;
923.4000;0.0716;-0.9196;
923.7000;0.0700;-0.9218;
924.0000;0.0765;-0.9150;
924.3000;0.0724;-0.9128;
924.6000;0.0733;-0.9037;
924.9000;0.0741;-0.9037;
925.2000;0.0814;-0.8924;
925.5000;0.0716;-0.9173;
925.8000;0.0692;-0.9173;
926.1000;0.0749;-0.9060;
926.4000;0.0733;-0.9173;
926.7000;0.0708;-0.9263;
927.0000;0.0741;-0.9241;
927.3000;0.0749;-0.9196;
927.6000;0.0765;-0.9150;
927.9000;0.0724;-0.9150;
928.2000;0.0724;-0.9082;
928.5000;0.0773;-0.9105;
928.8000;0.0749;-0.9128;
929.1000;0.0741;-0.9060;
929.4000;0.0733;-0.9060;
929.7000;0.0708;-0.9105;
930.0000;0.0814;-0.8833;
930.3000;0.0741;-0.8992;
930.6000;0.0765;-0.9037;
930.9000;0.0724;-0.9128;
931.2000;0.0724;-0.9173;
931.5000;0.0676;-0.9218;
931.8000;0.0741;-0.8992;
932.1000;0.0790;-0.8833;
932.4000;0.0724;-0.9037;
932.7000;0.0781;-0.8946;
933.0000;0.0716;-0.9173;
933.3000;0.0741;-0.9105;
933.6000;0.0749;-0.9128;
933.9000;0.0724;-0.9082;
934.2000;0.0733;-0.9060;
934.5000;0.0798;-0.8924;
934.8000;0.0724;-0.9150;
935.1000;0.0733;-0.9128;
935.4000;0.0733;-0.9173;
935.7000;0.0724;-0.9150;
936.0000;0.0716;-0.9196;
936.3000;0.0847;-0.8946;
936.6000;0.0700;-0.9218;
936.9000;0.0749;-0.8992;
937.2000;0.0741;-0.9105;
937.5000;0.0741;-0.9014;
937.8000;0.0733;-0.9150;
938.1000;0.0716;-0.9241;
938.4000;0.0749;-0.9241;
938.7000;0.0716;-0.9241;
939.0000;0.0700;-0.9173;
939.3000;0.0741;-0.8992;
939.6000;0.0733;-0.8946;
939.9000;0.0847;-0.8697;
940.2000;0.0733;-0.9060;
940.5000;0.0790;-0.8992;
940.8000;0.0749;-0.9037;
941.1000;0.0781;-0.8946;
941.4000;0.0741;-0.9082;
941.7000;0.0724;-0.9196;
942.0000;0.0724;-0.9218;
942.3000;0.0716;-0.9196;
942.6000;0.0708;-0.9173;
942.9000;0.0757;-0.9128;
943.2000;0.0667;-0.9331;
943.5000;0.0724;-0.9105;
943.8000;0.0749;-0.8924;
944.1000;0.0781;-0.8765;
944.4000;0.0700;-0.9082;
944.7000;0.0724;-0.8924;
945.0000;0.0765;-0.8833;
945.3000;0.0773;-0.8788;
945.6000;0.0773;-0.8697;
945.9000;0.0733;-0.8901;
946.2000;0.0749;-0.8946;
946.5000;0.0757;-0.8924;
946.8000;0.0749;-0.8992;
947.1000;0.0741;-0.8992;
947.4000;0.0741;-0.9014;
947.7000;0.0749;-0.9037;
948.0000;0.0716;-0.9150;
948.3000;0.0716;-0.9037;
948.6000;0.0733;-0.8992;
948.9000;0.0741;-0.8946;
949.2000;0.0667;-0.9014;
949.5000;0.0749;-0.8833;
949.8000;0.0716;-0.8878;
950.1000;0.0716;-0.8878;
950.4000;0.0741;-0.8810;
950.7000;0.0741;-0.8765;
951.0000;0.0708;-0.8856;
951.3000;0.0724;-0.8810;
951.6000;0.0724;-0.8901;
951.9000;0.0757;-0.8878;
952.2000;0.0741;-0.8833;
952.5000;0.0773;-0.8833;
952.8000;0.0757;-0.8878;
953.1000;0.0733;-0.8901;
953.4000;0.0757;-0.8833;
953.7000;0.0724;-0.8969;
954.0000;0.0659;-0.9150;
954.3000;0.0781;-0.8924;
954.6000;0.0773;-0.8992;
954.9000;0.0692;-0.9150;
955.2000;0.0676;-0.9150;
955.5000;0.0659;-0.9196;
955.8000;0.0757;-0.8924;
956.1000;0.0692;-0.8992;
956.4000;0.0724;-0.8924;
956.7000;0.0724;-0.8992;
957.0000;0.0773;-0.8833;
957.3000;0.0724;-0.8969;
957.6000;0.0684;-0.9060;
957.9000;0.0733;-0.9037;
958.2000;0.0781;-0.8833;
958.5000;0.0716;-0.8878;
958.8000;0.0806;-0.8652;
959.1000;0.0830;-0.8652;
959.4000;0.0733;-0.8924;
959.7000;0.0741;-0.8946;
960.0000;0.0749;-0.8924;
960.3000;0.0749;-0.8901;
960.6000;0.0749;-0.8969;
960.9000;0.0724;-0.8992;
961.2000;0.0757;-0.8878;
961.5000;0.0749;-0.8924;
961.8000;0.0757;-0.8924;
962.1000;0.0741;-0.8992;
962.4000;0.0733;-0.8992;
962.7000;0.0741;-0.8992;
963.0000;0.0716;-0.9060;
963.3000;0.0749;-0.8969;
963.6000;0.0765;-0.8946;
963.9000;0.0741;-0.9060;
964.2000;0.0700;-0.9060;
964.5000;0.0781;-0.8788;
964.8000;0.0757;-0.8833;
965.1000;0.0749;-0.8788;
965.4000;0.0733;-0.8765;
965.7000;0.0741;-0.8810;
966.0000;0.0749;-0.8765;
966.3000;0.0790;-0.8607;
966.6000;0.0741;-0.8675;
966.9000;0.0733;-0.8720;
967.2000;0.0741;-0.8675;
967.5000;0.0733;-0.8765;
967.8000;0.0733;-0.8833;
968.1000;0.0741;-0.8924;
968.4000;0.0741;-0.8992;
968.7000;0.0749;-0.9014;
969.0000;0.0716;-0.9060;
969.3000;0.0716;-0.9014;
969.6000;0.0757;-0.8924;
969.9000;0.0741;-0.9014;
970.2000;0.0708;-0.8946;
970.5000;0.0757;-0.8833;
970.8000;0.0749;-0.8878;
971.1000;0.0741;-0.8901;
971.4000;0.0733;-0.9037;
971.7000;0.0749;-0.9037;
972.0000;0.0724;-0.9150;
972.3000;0.0724;-0.9105;
972.6000;0.0733;-0.9037;
972.9000;0.0741;-0.9014;
973.2000;0.0692;-0.9105;
973.5000;0.0716;-0.9082;
973.8000;0.0741;-0.8969;
974.1000;0.0741;-0.8901;
974.4000;0.0724;-0.8833;
974.7000;0.0733;-0.8810;
975.0000;0.0708;-0.8924;
975.3000;0.0757;-0.8901;
975.6000;0.0749;-0.8810;
975.9000;0.0716;-0.8901;
976.2000;0.0741;-0.8878;
976.5000;0.0733;-0.8810;
976.8000;0.0724;-0.8788;
977.1000;0.0741;-0.8765;
977.4000;0.0684;-0.8992;
977.7000;0.0733;-0.8946;
978.0000;0.0692;-0.9037;
978.3000;0.0765;-0.8878;
978.6000;0.0749;-0.8856;
978.9000;0.0733;-0.8810;
979.2000;0.0724;-0.8810;
979.5000;0.0773;-0.8720;
979.8000;0.0749;-0.8652;
980.1000;0.0790;-0.8561;
980.4000;0.0733;-0.8629;
980.7000;0.0708;-0.8652;
981.0000;0.0765;-0.8471;
981.3000;0.0749;-0.8584;
981.6000;0.0749;-0.8652;
981.9000;0.0741;-0.8720;
982.2000;0.0757;-0.8652;
982.5000;0.0765;-0.8629;
982.8000;0.0741;-0.8743;
983.1000;0.0643;-0.9082;
983.4000;0.0863;-0.8629;
983.7000;0.0749;-0.8901;
984.0000;0.0708;-0.8992;
984.3000;0.0724;-0.8856;
984.6000;0.0708;-0.8924;
984.9000;0.0724;-0.8788;
985.2000;0.0773;-0.8561;
985.5000;0.0765;-0.8629;
985.8000;0.0724;-0.8788;
986.1000;0.0716;-0.8856;
986.4000;0.0757;-0.8833;
986.7000;0.0708;-0.8969;
987.0000;0.0724;-0.8946;
987.3000;0.0741;-0.8946;
987.6000;0.0700;-0.9060;
987.9000;0.0724;-0.8992;
988.2000;0.0716;-0.9014;
988.5000;0.0757;-0.8924;
988.8000;0.0765;-0.8969;
989.1000;0.0749;-0.9014;
989.4000;0.0716;-0.9060;
989.7000;0.0749;-0.9014;
990.0000;0.0733;-0.9082;
990.3000;0.0806;-0.8924;
990.6000;0.0757;-0.9014;
990.9000;0.0733;-0.9082;
991.2000;0.0749;-0.9037;
991.5000;0.0757;-0.9128;
991.8000;0.0724;-0.9128;
992.1000;0.0708;-0.9173;
992.4000;0.0741;-0.9037;
992.7000;0.0733;-0.8969;
993.0000;0.0733;-0.8992;
993.3000;0.0749;-0.8992;
993.6000;0.0757;-0.8992;
993.9000;0.0716;-0.9105;
994.2000;0.0765;-0.9014;
994.5000;0.0716;-0.9060;
994.8000;0.0716;-0.9128;
995.1000;0.0708;-0.9173;
995.4000;0.0716;-0.9082;
995.7000;0.0741;-0.9060;
996.0000;0.0863;-0.8810;
996.3000;0.0781;-0.8946;
996.6000;0.0749;-0.9105;
996.9000;0.0757;-0.9150;
997.2000;0.0741;-0.9173;
997.5000;0.0773;-0.9150;
997.8000;0.0733;-0.9173;
998.1000;0.0708;-0.9263;
998.4000;0.0659;-0.9354;
998.7000;0.0733;-0.9128;
999.0000;0.0757;-0.9014;
999.3000;0.0749;-0.8969;
999.6000;0.0708;-0.8992;
999.9000;0.0708;-0.9037;
1000.2000;0.0741;-0.8946;
1000.5000;0.0741;-0.8856;
1000.8000;0.0733;-0.8946;
1001.1000;0.0879;-0.8584;
1001.4000;0.0814;-0.8743;
1001.7000;0.0733;-0.8856;
1002.0000;0.0692;-0.9037;
1002.3000;0.0741;-0.8946;
1002.6000;0.0716;-0.9037;
1002.9000;0.0741;-0.8969;
1003.2000;0.0700;-0.9105;
1003.5000;0.0798;-0.8765;
1003.8000;0.0741;-0.8946;
1004.1000;0.0822;-0.8810;
1004.4000;0.0773;-0.8946;
1004.7000;0.0733;-0.8992;
1005.0000;0.0741;-0.8992;
1005.3000;0.0700;-0.9150;
1005.6000;0.0741;-0.9128;
1005.9000;0.0757;-0.8992;
1006.2000;0.0741;-0.9082;
1006.5000;0.0741;-0.8992;
1006.8000;0.0749;-0.8969;
1007.1000;0.0741;-0.8901;
1007.4000;0.0798;-0.8901;
1007.7000;0.0741;-0.9150;
1008.0000;0.0741;-0.9196;
1008.3000;0.0724;-0.9241;
1008.6000;0.0716;-0.9196;
1008.9000;0.0741;-0.9128;
1009.2000;0.0741;-0.9082;
1009.5000;0.0749;-0.9105;
1009.8000;0.0773;-0.8992;
1010.1000;0.0749;-0.9060;
1010.4000;0.0749;-0.9060;
1010.7000;0.0733;-0.9060;
1011.0000;0.0733;-0.9150;
1011.3000;0.0733;-0.9150;
1011.6000;0.0741;-0.9150;
1011.9000;0.0724;-0.9105;
1012.2000;0.0790;-0.8924;
1012.5000;0.0749;-0.9037;
1012.8000;0.0586;-0.9399;
1013.1000;0.0700;-0.9105;
1013.4000;0.0724;-0.9082;
1013.7000;0.0733;-0.9037;
1014.0000;0.0733;-0.9037;
1014.3000;0.0627;-0.9241;
1014.6000;0.0733;-0.9105;
1014.9000;0.0724;-0.9060;
1015.2000;0.0749;-0.9014;
1015.5000;0.0765;-0.8946;
1015.8000;0.0716;-0.9128;
1016.1000;0.0741;-0.9037;
1016.4000;0.0765;-0.9060;
1016.7000;0.0749;-0.9060;
1017.0000;0.0602;-0.9354;
1017.3000;0.0716;-0.9150;
1017.6000;0.0733;-0.9014;
1017.9000;0.0773;-0.8901;
1018.2000;0.0733;-0.8992;
1018.5000;0.0724;-0.9082;
1018.8000;0.0724;-0.9037;
1019.1000;0.0871;-0.8743;
1019.4000;0.0749;-0.9128;
1019.7000;0.0741;-0.9173;
1020.0000;0.0765;-0.9060;
1020.3000;0.0692;-0.9241;
1020.6000;0.0724;-0.9196;
1020.9000;0.0733;-0.9173;
1021.2000;0.0749;-0.9173;
1021.5000;0.0749;-0.9014;
1021.8000;0.0733;-0.9060;
1022.1000;0.0757;-0.8946;
1022.4000;0.0724;-0.9060;
1022.7000;0.0651;-0.9263;
1023.0000;0.0741;-0.8992;
1023.3000;0.0765;-0.8946;
1023.6000;0.0773;-0.9014;
1023.9000;0.0627;-0.9422;
1024.2000;0.0741;-0.9060;
1024.5000;0.0708;-0.9105;
1024.8000;0.0733;-0.9105;
1025.1000;0.0765;-0.8992;
1025.4000;0.0733;-0.9082;
1025.7000;0.0741;-0.8992;
1026.0000;0.0781;-0.8924;
1026.3000;0.0741;-0.9060;
1026.6000;0.0757;-0.9014;
1026.9000;0.0757;-0.8992;
1027.2000;0.0724;-0.9128;
1027.5000;0.0741;-0.8969;
1027.8000;0.0741;-0.8969;
1028.1000;0.0676;-0.9082;
1028.4000;0.0741;-0.8924;
1028.7000;0.0733;-0.8992;
1029.0000;0.0724;-0.9014;
1029.3000;0.0724;-0.9014;
1029.6000;0.0741;-0.9037;
1029.9000;0.0741;-0.9014;
1030.2000;0.0733;-0.9037;
1030.5000;0.0765;-0.8992;
1030.8000;0.0733;-0.9060;
1031.1000;0.0741;-0.9060;
1031.4000;0.0757;-0.9105;
1031.7000;0.0757;-0.9150;
1032.0000;0.0724;-0.9218;
1032.3000;0.0765;-0.9128;
1032.6000;0.0708;-0.9331;
1032.9000;0.0733;-0.9263;
1033.2000;0.0733;-0.9331;
1033.5000;0.0716;-0.9445;
1033.8000;0.0724;-0.9399;
1034.1000;0.0724;-0.9354;
1034.4000;0.0708;-0.9354;
1034.7000;0.0741;-0.9218;
1035.0000;0.0822;-0.9014;
1035.3000;0.0724;-0.9263;
1035.6000;0.0724;-0.9218;
1035.9000;0.0773;-0.9060;
1036.2000;0.0635;-0.9309;
1036.5000;0.0749;-0.8992;
1036.8000;0.0757;-0.8946;
1037.1000;0.0741;-0.8969;
1037.4000;0.0765;-0.8924;
1037.7000;0.0741;-0.8946;
1038.0000;0.0716;-0.9037;
1038.3000;0.0700;-0.9105;
1038.6000;0.0757;-0.9014;
1038.9000;0.0708;-0.9150;
1039.2000;0.0708;-0.9150;
1039.5000;0.0733;-0.9105;
1039.8000;0.0708;-0.9128;
1040.1000;0.0684;-0.9082;
1040.4000;0.0765;-0.8992;
1040.7000;0.0741;-0.8946;
1041.0000;0.0724;-0.8878;
1041.3000;0.0749;-0.8924;
1041.6000;0.0733;-0.8856;
1041.9000;0.0749;-0.8765;
1042.2000;0.0716;-0.8946;
1042.5000;0.0724;-0.9014;
1042.8000;0.0741;-0.8969;
1043.1000;0.0724;-0.8992;
1043.4000;0.0741;-0.8969;
1043.7000;0.0716;-0.9037;
1044.0000;0.0741;-0.8946;
1044.3000;0.0806;-0.8765;
1044.6000;0.0724;-0.8788;
1044.9000;0.0773;-0.8629;
1045.2000;0.0749;-0.8607;
1045.5000;0.0765;-0.8539;
1045.8000;0.0741;-0.8629;
1046.1000;0.0733;-0.8856;
1046.4000;0.0741;-0.8878;
1046.7000;0.0627;-0.9105;
1047.0000;0.0692;-0.8992;
1047.3000;0.0757;-0.8878;
1047.6000;0.0692;-0.9037;
1047.9000;0.0724;-0.8969;
1048.2000;0.0708;-0.9060;
1048.5000;0.0716;-0.9105;
1048.8000;0.0749;-0.8992;
1049.1000;0.0733;-0.9037;
1049.4000;0.0635;-0.9263;
1049.7000;0.0806;-0.8810;
1050.0000;0.0692;-0.9060;
1050.3000;0.0724;-0.8946;
1050.6000;0.0814;-0.8720;
1050.9000;0.0627;-0.9150;
1051.2000;0.0806;-0.8788;
1051.5000;0.0749;-0.8878;
1051.8000;0.0724;-0.8924;
1052.1000;0.0806;-0.8743;
1052.4000;0.0749;-0.8924;
1052.7000;0.0733;-0.9014;
1053.0000;0.0749;-0.8969;
1053.3000;0.0830;-0.8720;
1053.6000;0.0741;-0.8946;
1053.9000;0.0757;-0.8924;
1054.2000;0.0733;-0.8901;
1054.5000;0.0716;-0.9037;
1054.8000;0.0741;-0.9037;
1055.1000;0.0733;-0.9128;
1055.4000;0.0741;-0.9060;
1055.7000;0.0716;-0.9037;
1056.0000;0.0700;-0.9014;
1056.3000;0.0757;-0.8901;
1056.6000;0.0724;-0.9014;
1056.9000;0.0667;-0.9218;
1057.2000;0.0724;-0.9037;
1057.5000;0.0733;-0.9128;
1057.8000;0.0741;-0.9105;
1058.1000;0.0708;-0.9128;
1058.4000;0.0692;-0.9128;
1058.7000;0.0757;-0.8924;
1059.0000;0.0757;-0.8788;
1059.3000;0.0749;-0.8878;
1059.6000;0.0733;-0.8924;
1059.9000;0.0716;-0.8901;
1060.2000;0.0765;-0.8856;
1060.5000;0.0733;-0.8992;
1060.8000;0.0716;-0.8992;
1061.1000;0.0716;-0.9014;
1061.4000;0.0733;-0.8969;
1061.7000;0.0733;-0.8992;
1062.0000;0.0684;-0.9173;
1062.3000;0.0741;-0.8924;
1062.6000;0.0757;-0.8901;
1062.9000;0.0741;-0.9014;
1063.2000;0.0749;-0.8969;
1063.5000;0.0724;-0.9105;
1063.8000;0.0749;-0.9014;
1064.1000;0.0716;-0.9060;
1064.4000;0.0733;-0.9128;
1064.7000;0.0733;-0.9150;
1065.0000;0.0757;-0.9082;
1065.3000;0.0749;-0.9218;
1065.6000;0.0733;-0.9286;
1065.9000;0.0724;-0.9309;
1066.2000;0.0749;-0.9263;
1066.5000;0.0692;-0.9354;
1066.8000;0.0757;-0.9286;
1067.1000;0.0757;-0.9309;
1067.4000;0.0790;-0.9173;
1067.7000;0.0781;-0.9241;
1068.0000;0.0733;-0.9399;
1068.3000;0.0643;-0.9649;
1068.6000;0.0741;-0.9422;
1068.9000;0.0659;-0.9649;
1069.2000;0.0749;-0.9377;
1069.5000;0.0741;-0.9445;
1069.8000;0.0749;-0.9331;
1070.1000;0.0724;-0.9422;
1070.4000;0.0724;-0.9399;
1070.7000;0.0757;-0.9399;
1071.0000;0.0741;-0.9422;
1071.3000;0.0749;-0.9309;
1071.6000;0.0724;-0.9399;
1071.9000;0.0757;-0.9399;
1072.2000;0.0757;-0.9422;
1072.5000;0.0757;-0.9513;
1072.8000;0.0733;-0.9558;
1073.1000;0.0757;-0.9422;
1073.4000;0.0765;-0.9331;
1073.7000;0.0716;-0.9399;
1074.0000;0.0651;-0.9603;
1074.3000;0.0627;-0.9581;
1074.6000;0.0611;-0.9626;
1074.9000;0.0724;-0.9263;
1075.2000;0.0733;-0.9150;
1075.5000;0.0716;-0.9105;
1075.8000;0.0724;-0.9105;
1076.1000;0.0594;-0.9490;
1076.4000;0.0724;-0.9263;
1076.7000;0.0741;-0.9196;
1077.0000;0.0733;-0.9241;
1077.3000;0.0798;-0.9037;
1077.6000;0.0667;-0.9422;
1077.9000;0.0741;-0.9173;
1078.2000;0.0757;-0.9105;
1078.5000;0.0692;-0.9354;
1078.8000;0.0708;-0.9331;
1079.1000;0.0708;-0.9196;
1079.4000;0.0741;-0.9241;
1079.7000;0.0757;-0.9218;
1080.0000;0.0741;-0.9263;
1080.3000;0.0757;-0.9218;
1080.6000;0.0733;-0.9173;
1080.9000;0.0724;-0.9218;
1081.2000;0.0676;-0.9354;
1081.5000;0.0724;-0.9241;
1081.8000;0.0676;-0.9513;
1082.1000;0.0724;-0.9309;
1082.4000;0.0643;-0.9558;
1082.7000;0.0733;-0.9241;
1083.0000;0.0733;-0.9173;
1083.3000;0.0733;-0.9060;
1083.6000;0.0716;-0.9105;
1083.9000;0.0773;-0.8992;
1084.2000;0.0724;-0.9128;
1084.5000;0.0741;-0.9150;
1084.8000;0.0733;-0.9150;
1085.1000;0.0724;-0.9037;
1085.4000;0.0741;-0.9014;
1085.7000;0.0741;-0.8992;
1086.0000;0.0741;-0.9082;
1086.3000;0.0757;-0.9128;
1086.6000;0.0733;-0.9241;
1086.9000;0.0733;-0.9263;
1087.2000;0.0733;-0.9309;
1087.5000;0.0749;-0.9286;
1087.8000;0.0733;-0.9286;
1088.1000;0.0708;-0.9354;
1088.4000;0.0724;-0.9331;
1088.7000;0.0749;-0.9263;
1089.0000;0.0757;-0.9218;
1089.3000;0.0724;-0.9286;
1089.6000;0.0724;-0.9286;
1089.9000;0.0716;-0.9331;
1090.2000;0.0741;-0.9331;
1090.5000;0.0757;-0.9263;
1090.8000;0.0749;-0.9286;
1091.1000;0.0749;-0.9309;
1091.4000;0.0749;-0.9377;
1091.7000;0.0741;-0.9286;
1092.0000;0.0741;-0.9218;
1092.3000;0.0757;-0.9196;
1092.6000;0.0716;-0.9354;
1092.9000;0.0659;-0.9467;
1093.2000;0.0757;-0.9309;
1093.5000;0.0724;-0.9331;
1093.8000;0.0716;-0.9422;
1094.1000;0.0749;-0.9331;
1094.4000;0.0724;-0.9399;
1094.7000;0.0733;-0.9377;
1095.0000;0.0667;-0.9467;
1095.3000;0.0749;-0.9354;
1095.6000;0.0749;-0.9354;
1095.9000;0.0749;-0.9354;
1096.2000;0.0741;-0.9286;
1096.5000;0.0773;-0.9263;
1096.8000;0.0773;-0.9263;
1097.1000;0.0765;-0.9263;
1097.4000;0.0724;-0.9354;
1097.7000;0.0749;-0.9354;
1098.0000;0.0724;-0.9354;
1098.3000;0.0855;-0.8992;
1098.6000;0.0692;-0.9263;
1098.9000;0.0724;-0.9173;
1099.2000;0.0741;-0.9128;
1099.5000;0.0741;-0.9128;
1099.8000;0.0733;-0.9150;
1100.1000;0.0602;-0.9490;
1100.4000;0.0733;-0.9196;
1100.7000;0.0765;-0.9128;
1101.0000;0.0724;-0.9173;
1101.3000;0.0733;-0.9173;
1101.6000;0.0741;-0.9173;
1101.9000;0.0733;-0.9218;
1102.2000;0.0733;-0.9150;
1102.5000;0.0741;-0.9105;
1102.8000;0.0733;-0.9150;
1103.1000;0.0733;-0.9173;
1103.4000;0.0749;-0.9128;
1103.7000;0.0724;-0.9263;
1104.0000;0.0708;-0.9286;
1104.3000;0.0749;-0.9173;
1104.6000;0.0733;-0.9173;
1104.9000;0.0716;-0.9128;
1105.2000;0.0749;-0.9014;
1105.5000;0.0741;-0.9128;
1105.8000;0.0724;-0.9196;
1106.1000;0.0724;-0.9082;
1106.4000;0.0749;-0.9082;
1106.7000;0.0733;-0.9150;
1107.0000;0.0749;-0.9082;
1107.3000;0.0749;-0.9060;
1107.6000;0.0724;-0.9105;
1107.9000;0.0749;-0.9060;
1108.2000;0.0619;-0.9490;
1108.5000;0.0724;-0.9218;
1108.8000;0.0741;-0.9218;
1109.1000;0.0724;-0.9173;
1109.4000;0.0773;-0.9037;
1109.7000;0.0733;-0.9196;
1110.0000;0.0692;-0.9286;
1110.3000;0.0724;-0.9218;
1110.6000;0.0749;-0.9196;
1110.9000;0.0749;-0.9173;
1111.2000;0.0708;-0.9286;
1111.5000;0.0749;-0.9150;
1111.8000;0.0716;-0.9218;
1112.1000;0.0741;-0.9082;
1112.4000;0.0667;-0.9286;
1112.7000;0.0749;-0.9105;
1113.0000;0.0749;-0.9105;
1113.3000;0.0749;-0.9128;
1113.6000;0.0733;-0.9128;
1113.9000;0.0741;-0.9150;
1114.2000;0.0716;-0.9218;
1114.5000;0.0781;-0.9060;
1114.8000;0.0733;-0.9196;
1115.1000;0.0733;-0.9173;
1115.4000;0.0602;-0.9445;
1115.7000;0.0733;-0.9037;
1116.0000;0.0733;-0.9128;
1116.3000;0.0741;-0.9173;
1116.6000;0.0741;-0.9173;
1116.9000;0.0684;-0.9241;
1117.2000;0.0749;-0.9060;
1117.5000;0.0741;-0.9060;
1117.8000;0.0733;-0.9037;
1118.1000;0.0749;-0.8992;
1118.4000;0.0724;-0.9014;
1118.7000;0.0741;-0.8992;
1119.0000;0.0733;-0.8946;
1119.3000;0.0724;-0.8969;
1119.6000;0.0733;-0.9014;
1119.9000;0.0757;-0.8946;
1120.2000;0.0724;-0.8992;
1120.5000;0.0684;-0.9105;
1120.8000;0.0733;-0.8969;
1121.1000;0.0741;-0.8924;
1121.4000;0.0741;-0.8924;
1121.7000;0.0733;-0.8969;
1122.0000;0.0741;-0.8946;
1122.3000;0.0741;-0.8946;
1122.6000;0.0757;-0.8856;
1122.9000;0.0765;-0.8810;
1123.2000;0.0749;-0.8788;
1123.5000;0.0684;-0.9037;
1123.8000;0.0733;-0.8969;
1124.1000;0.0708;-0.9014;
1124.4000;0.0716;-0.8969;
1124.7000;0.0749;-0.8856;
1125.0000;0.0814;-0.8697;
1125.3000;0.0724;-0.8901;
1125.6000;0.0757;-0.8833;
1125.9000;0.0765;-0.8743;
1126.2000;0.0757;-0.8788;
1126.5000;0.0733;-0.8856;
1126.8000;0.0667;-0.8992;
1127.1000;0.0757;-0.8833;
1127.4000;0.0716;-0.8924;
1127.7000;0.0741;-0.8856;
1128.0000;0.0749;-0.8924;
1128.3000;0.0798;-0.8810;
1128.6000;0.0741;-0.8992;
1128.9000;0.0749;-0.9037;
1129.2000;0.0716;-0.9128;
1129.5000;0.0733;-0.9128;
1129.8000;0.0733;-0.9150;
1130.1000;0.0781;-0.9060;
1130.4000;0.0757;-0.9037;
1130.7000;0.0741;-0.9128;
1131.0000;0.0733;-0.9150;
1131.3000;0.0676;-0.9241;
1131.6000;0.0741;-0.9014;
1131.9000;0.0773;-0.8901;
1132.2000;0.0733;-0.8992;
1132.5000;0.0716;-0.9014;
1132.8000;0.0724;-0.8924;
1133.1000;0.0749;-0.8901;
1133.4000;0.0733;-0.8992;
1133.7000;0.0741;-0.9037;
1134.0000;0.0741;-0.9037;
1134.3000;0.0700;-0.9060;
1134.6000;0.0716;-0.8878;
1134.9000;0.0741;-0.8856;
1135.2000;0.0716;-0.9014;
1135.5000;0.0627;-0.9309;
1135.8000;0.0733;-0.9082;
1136.1000;0.0676;-0.9196;
1136.4000;0.0741;-0.9060;
1136.7000;0.0741;-0.9060;
1137.0000;0.0847;-0.8788;
1137.3000;0.0733;-0.9037;
1137.6000;0.0871;-0.8675;
1137.9000;0.0708;-0.9037;
1138.2000;0.0749;-0.9082;
1138.5000;0.0700;-0.9196;
1138.8000;0.0733;-0.9128;
1139.1000;0.0733;-0.9082;
1139.4000;0.0741;-0.8992;
1139.7000;0.0741;-0.9037;
1140.0000;0.0741;-0.8924;
1140.3000;0.0724;-0.8946;
1140.6000;0.0733;-0.8810;
1140.9000;0.0814;-0.8629;
1141.2000;0.0602;-0.9196;
1141.5000;0.0733;-0.8856;
1141.8000;0.0611;-0.9105;
1142.1000;0.0773;-0.8584;
1142.4000;0.0765;-0.8652;
1142.7000;0.0733;-0.8743;
1143.0000;0.0733;-0.8697;
1143.3000;0.0749;-0.8720;
1143.6000;0.0741;-0.8743;
1143.9000;0.0733;-0.8720;
1144.2000;0.0798;-0.8584;
1144.5000;0.0684;-0.8833;
1144.8000;0.0733;-0.8810;
1145.1000;0.0716;-0.8856;
1145.4000;0.0855;-0.8516;
1145.7000;0.0724;-0.8810;
1146.0000;0.0749;-0.8765;
1146.3000;0.0733;-0.8901;
1146.6000;0.0749;-0.8788;
1146.9000;0.0749;-0.8856;
1147.2000;0.0855;-0.8584;
1147.5000;0.0733;-0.8788;
1147.8000;0.0838;-0.8539;
1148.1000;0.0863;-0.8539;
1148.4000;0.0724;-0.8901;
1148.7000;0.0724;-0.8946;
1149.0000;0.0798;-0.8675;
1149.3000;0.0724;-0.8810;
1149.6000;0.0733;-0.8697;
1149.9000;0.0757;-0.8652;
1150.2000;0.0733;-0.8856;
1150.5000;0.0733;-0.8969;
1150.8000;0.0659;-0.9150;
1151.1000;0.0749;-0.8992;
1151.4000;0.0765;-0.8946;
1151.7000;0.0749;-0.8969;
1152.0000;0.0724;-0.9014;
1152.3000;0.0790;-0.8856;
1152.6000;0.0757;-0.8946;
1152.9000;0.0749;-0.8992;
1153.2000;0.0708;-0.9037;
1153.5000;0.0733;-0.9082;
1153.8000;0.0773;-0.9014;
1154.1000;0.0708;-0.9150;
1154.4000;0.0667;-0.9173;
1154.7000;0.0741;-0.9082;
1155.0000;0.0733;-0.8969;
1155.3000;0.0749;-0.8992;
1155.6000;0.0716;-0.9082;
1155.9000;0.0733;-0.9037;
1156.2000;0.0741;-0.9014;
1156.5000;0.0733;-0.8969;
1156.8000;0.0716;-0.9060;
1157.1000;0.0724;-0.8969;
1157.4000;0.0676;-0.9037;
1157.7000;0.0757;-0.8833;
1158.0000;0.0773;-0.8765;
1158.3000;0.0773;-0.8788;
1158.6000;0.0855;-0.8584;
1158.9000;0.0798;-0.8878;
1159.2000;0.0741;-0.9060;
1159.5000;0.0733;-0.9105;
1159.8000;0.0700;-0.9241;
1160.1000;0.0741;-0.9105;
1160.4000;0.0733;-0.9105;
1160.7000;0.0724;-0.9150;
1161.0000;0.0724;-0.9060;
1161.3000;0.0757;-0.9014;
1161.6000;0.0741;-0.9014;
1161.9000;0.0757;-0.8969;
1162.2000;0.0684;-0.9218;
1162.5000;0.0733;-0.9037;
1162.8000;0.0684;-0.9150;
1163.1000;0.0733;-0.8924;
1163.4000;0.0708;-0.8969;
1163.7000;0.0708;-0.8969;
1164.0000;0.0741;-0.8856;
1164.3000;0.0757;-0.8810;
1164.6000;0.0708;-0.8946;
1164.9000;0.0700;-0.9060;
1165.2000;0.0781;-0.8901;
1165.5000;0.0724;-0.8969;
1165.8000;0.0692;-0.9037;
1166.1000;0.0708;-0.8878;
1166.4000;0.0724;-0.8833;
1166.7000;0.0733;-0.8833;
1167.0000;0.0643;-0.9037;
1167.3000;0.0716;-0.9014;
1167.6000;0.0733;-0.8924;
1167.9000;0.0765;-0.8878;
1168.2000;0.0676;-0.8992;
1168.5000;0.0594;-0.9218;
1168.8000;0.0700;-0.8901;
1169.1000;0.0765;-0.8652;
1169.4000;0.0651;-0.9082;
1169.7000;0.0724;-0.8969;
1170.0000;0.0643;-0.9150;
1170.3000;0.0724;-0.9037;
1170.6000;0.0724;-0.8969;
1170.9000;0.0773;-0.8765;
1171.2000;0.0757;-0.8788;
1171.5000;0.0741;-0.8788;
1171.8000;0.0733;-0.8810;
1172.1000;0.0733;-0.8810;
1172.4000;0.0716;-0.8946;
1172.7000;0.0741;-0.8924;
1173.0000;0.0667;-0.9150;
1173.3000;0.0798;-0.8788;
1173.6000;0.0757;-0.8878;
1173.9000;0.0684;-0.9082;
1174.2000;0.0692;-0.9060;
1174.5000;0.0749;-0.8878;
1174.8000;0.0708;-0.8969;
1175.1000;0.0724;-0.8924;
1175.4000;0.0733;-0.9014;
1175.7000;0.0724;-0.9037;
1176.0000;0.0724;-0.9060;
1176.3000;0.0749;-0.9037;
1176.6000;0.0765;-0.9014;
1176.9000;0.0749;-0.9105;
1177.2000;0.0700;-0.9173;
1177.5000;0.0708;-0.9173;
1177.8000;0.0733;-0.9105;
1178.1000;0.0790;-0.8992;
1178.4000;0.0684;-0.9218;
1178.7000;0.0733;-0.9128;
1179.0000;0.0773;-0.9037;
1179.3000;0.0724;-0.9105;
1179.6000;0.0724;-0.9173;
1179.9000;0.0757;-0.9037;
1180.2000;0.0741;-0.9082;
1180.5000;0.0749;-0.9014;
1180.8000;0.0733;-0.8946;
1181.1000;0.0708;-0.9014;
1181.4000;0.0724;-0.8901;
1181.7000;0.0749;-0.8856;
1182.0000;0.0741;-0.8833;
1182.3000;0.0781;-0.8697;
1182.6000;0.0806;-0.8697;
1182.9000;0.0724;-0.8833;
1183.2000;0.0692;-0.8946;
1183.5000;0.0667;-0.9037;
1183.8000;0.0757;-0.8833;
1184.1000;0.0741;-0.8856;
1184.4000;0.0741;-0.8924;
1184.7000;0.0773;-0.8856;
1185.0000;0.0708;-0.8969;
1185.3000;0.0724;-0.8856;
1185.6000;0.0684;-0.9014;
1185.9000;0.0781;-0.8856;
1186.2000;0.0627;-0.9218;
1186.5000;0.0765;-0.8992;
1186.8000;0.0749;-0.8992;
1187.1000;0.0733;-0.9014;
1187.4000;0.0757;-0.8901;
1187.7000;0.0741;-0.8992;
1188.0000;0.0733;-0.9060;
1188.3000;0.0757;-0.9014;
1188.6000;0.0700;-0.9173;
1188.9000;0.0741;-0.9060;
1189.2000;0.0733;-0.9082;
1189.5000;0.0741;-0.9037;
1189.8000;0.0700;-0.9173;
1190.1000;0.0757;-0.9082;
1190.4000;0.0733;-0.9105;
1190.7000;0.0708;-0.9173;
1191.0000;0.0611;-0.9422;
1191.3000;0.0855;-0.8743;
1191.6000;0.0749;-0.8992;
1191.9000;0.0684;-0.9082;
1192.2000;0.0757;-0.8946;
1192.5000;0.0667;-0.9241;
1192.8000;0.0716;-0.9105;
1193.1000;0.0733;-0.8992;
1193.4000;0.0708;-0.8969;
1193.7000;0.0741;-0.8743;
1194.0000;0.0879;-0.8516;
1194.3000;0.0757;-0.8810;
1194.6000;0.0733;-0.8969;
1194.9000;0.0773;-0.8901;
1195.2000;0.0741;-0.8946;
1195.5000;0.0708;-0.9014;
1195.8000;0.0716;-0.8992;
1196.1000;0.0716;-0.8992;
1196.4000;0.0765;-0.8924;
1196.7000;0.0757;-0.8969;
1197.0000;0.0749;-0.9060;
1197.3000;0.0667;-0.9263;
1197.6000;0.0741;-0.9150;
1197.9000;0.0741;-0.9082;
1198.2000;0.0724;-0.9150;
1198.5000;0.0757;-0.9173;
1198.8000;0.0765;-0.9128;
1199.1000;0.0741;-0.9173;
1199.4000;0.0741;-0.9173;
1199.7000;0.0716;-0.9196;
1200.0000;0.0733;-0.9150;
1200.3000;0.0733;-0.9150;
1200.6000;0.0741;-0.9196;
1200.9000;0.0765;-0.9105;
1201.2000;0.0716;-0.9218;
1201.5000;0.0741;-0.9105;
1201.8000;0.0757;-0.9105;
1202.1000;0.0773;-0.9105;
1202.4000;0.0733;-0.9241;
1202.7000;0.0741;-0.9196;
1203.0000;0.0733;-0.9218;
1203.3000;0.0757;-0.9082;
1203.6000;0.0724;-0.9105;
1203.9000;0.0733;-0.9060;
1204.2000;0.0765;-0.8992;
1204.5000;0.0749;-0.8992;
1204.8000;0.0741;-0.8969;
1205.1000;0.0749;-0.8901;
1205.4000;0.0749;-0.8901;
1205.7000;0.0724;-0.9014;
1206.0000;0.0741;-0.8969;
1206.3000;0.0733;-0.9060;
1206.6000;0.0724;-0.9037;
1206.9000;0.0749;-0.9037;
1207.2000;0.0716;-0.9014;
1207.5000;0.0895;-0.8493;
1207.8000;0.0716;-0.8992;
1208.1000;0.0716;-0.9105;
1208.4000;0.0733;-0.9060;
1208.7000;0.0773;-0.9128;
1209.0000;0.0749;-0.9241;
1209.3000;0.0716;-0.9263;
1209.6000;0.0716;-0.9331;
1209.9000;0.0749;-0.9173;
1210.2000;0.0749;-0.9173;
1210.5000;0.0741;-0.9196;
1210.8000;0.0749;-0.9196;
1211.1000;0.0773;-0.9173;
1211.4000;0.0716;-0.9286;
1211.7000;0.0733;-0.9218;
1212.0000;0.0741;-0.9128;
1212.3000;0.0765;-0.9037;
1212.6000;0.0733;-0.9037;
1212.9000;0.0749;-0.8992;
1213.2000;0.0708;-0.9060;
1213.5000;0.0741;-0.8969;
1213.8000;0.0733;-0.9014;
1214.1000;0.0716;-0.9128;
1214.4000;0.0733;-0.8992;
1214.7000;0.0724;-0.8969;
1215.0000;0.0757;-0.8924;
1215.3000;0.0741;-0.9037;
1215.6000;0.0651;-0.9196;
1215.9000;0.0749;-0.8946;
1216.2000;0.0765;-0.8856;
1216.5000;0.0741;-0.8878;
1216.8000;0.0757;-0.8901;
1217.1000;0.0741;-0.8878;
1217.4000;0.0733;-0.8878;
1217.7000;0.0765;-0.8833;
1218.0000;0.0724;-0.9014;
1218.3000;0.0741;-0.9037;
1218.6000;0.0724;-0.9128;
1218.9000;0.0765;-0.8969;
1219.2000;0.0724;-0.9037;
1219.5000;0.0724;-0.8924;
1219.8000;0.0700;-0.8901;
1220.1000;0.0716;-0.8924;
1220.4000;0.0741;-0.8856;
1220.7000;0.0724;-0.8969;
1221.0000;0.0749;-0.8878;
1221.3000;0.0741;-0.8924;
1221.6000;0.0741;-0.9014;
1221.9000;0.0684;-0.9218;
1222.2000;0.0741;-0.9128;
1222.5000;0.0733;-0.9218;
1222.8000;0.0733;-0.9263;
1223.1000;0.0716;-0.9422;
1223.4000;0.0741;-0.9399;
1223.7000;0.0724;-0.9377;
1224.0000;0.0708;-0.9422;
1224.3000;0.0822;-0.9196;
1224.6000;0.0757;-0.9354;
1224.9000;0.0757;-0.9309;
1225.2000;0.0619;-0.9603;
1225.5000;0.0724;-0.9286;
1225.8000;0.0651;-0.9377;
1226.1000;0.0757;-0.9014;
1226.4000;0.0757;-0.9105;
1226.7000;0.0749;-0.9196;
1227.0000;0.0708;-0.9241;
1227.3000;0.0757;-0.9173;
1227.6000;0.0741;-0.9196;
1227.9000;0.0716;-0.9196;
1228.2000;0.0798;-0.9105;
1228.5000;0.0741;-0.9128;
1228.8000;0.0741;-0.9105;
1229.1000;0.0724;-0.9128;
1229.4000;0.0741;-0.9150;
1229.7000;0.0724;-0.9128;
1230.0000;0.0659;-0.9241;
1230.3000;0.0733;-0.9105;
1230.6000;0.0757;-0.9037;
1230.9000;0.0700;-0.9218;
1231.2000;0.0741;-0.9173;
1231.5000;0.0684;-0.9286;
1231.8000;0.0716;-0.9082;
1232.1000;0.0700;-0.9173;
1232.4000;0.0700;-0.9150;
1232.7000;0.0757;-0.8946;
1233.0000;0.0765;-0.8878;
1233.3000;0.0741;-0.8946;
1233.6000;0.0733;-0.9082;
1233.9000;0.0757;-0.9014;
1234.2000;0.0724;-0.9060;
1234.5000;0.0814;-0.8833;
1234.8000;0.0716;-0.8992;
1235.1000;0.0757;-0.8878;
1235.4000;0.0733;-0.9060;
1235.7000;0.0741;-0.8969;
1236.0000;0.0716;-0.8946;
1236.3000;0.0749;-0.8924;
1236.6000;0.0733;-0.8946;
1236.9000;0.0749;-0.8924;
1237.2000;0.0716;-0.8969;
1237.5000;0.0724;-0.8969;
1237.8000;0.0724;-0.8924;
1238.1000;0.0733;-0.8946;
1238.4000;0.0724;-0.8924;
1238.7000;0.0733;-0.8992;
1239.0000;0.0724;-0.9014;
1239.3000;0.0749;-0.8969;
1239.6000;0.0724;-0.8992;
1239.9000;0.0724;-0.9014;
1240.2000;0.0667;-0.9037;
1240.5000;0.0741;-0.8946;
1240.8000;0.0724;-0.8924;
1241.1000;0.0700;-0.9060;
1241.4000;0.0757;-0.8946;
1241.7000;0.0724;-0.8992;
1242.0000;0.0749;-0.8969;
1242.3000;0.0724;-0.9014;
1242.6000;0.0741;-0.8946;
1242.9000;0.0765;-0.8901;
1243.2000;0.0708;-0.9014;
1243.5000;0.0757;-0.8924;
1243.8000;0.0733;-0.8969;
1244.1000;0.0724;-0.8924;
1244.4000;0.0790;-0.8901;
1244.7000;0.0741;-0.8992;
1245.0000;0.0741;-0.8969;
1245.3000;0.0733;-0.8946;
1245.6000;0.0741;-0.8992;
1245.9000;0.0733;-0.8969;
1246.2000;0.0741;-0.8946;
1246.5000;0.0749;-0.8924;
1246.8000;0.0692;-0.9082;
1247.1000;0.0724;-0.8924;
1247.4000;0.0757;-0.8878;
1247.7000;0.0733;-0.9037;
1248.0000;0.0692;-0.9150;
1248.3000;0.0757;-0.9082;
1248.6000;0.0724;-0.9128;
1248.9000;0.0733;-0.9196;
1249.2000;0.0676;-0.9218;
1249.5000;0.0749;-0.9105;
1249.8000;0.0708;-0.9241;
1250.1000;0.0700;-0.9241;
1250.4000;0.0708;-0.9241;
1250.7000;0.0716;-0.9241;
1251.0000;0.0749;-0.9263;
1251.3000;0.0749;-0.9241;
1251.6000;0.0733;-0.9263;
1251.9000;0.0724;-0.9286;
1252.2000;0.0741;-0.9173;
1252.5000;0.0611;-0.9490;
1252.8000;0.0724;-0.9150;
1253.1000;0.0741;-0.9128;
1253.4000;0.0700;-0.9196;
1253.7000;0.0619;-0.9445;
1254.0000;0.0594;-0.9377;
1254.3000;0.0733;-0.9150;
1254.6000;0.0733;-0.9196;
1254.9000;0.0667;-0.9309;
1255.2000;0.0724;-0.9150;
1255.5000;0.0643;-0.9354;
1255.8000;0.0741;-0.9082;
1256.1000;0.0716;-0.9105;
1256.4000;0.0757;-0.8969;
1256.7000;0.0741;-0.8992;
1257.0000;0.0733;-0.9014;
1257.3000;0.0733;-0.8992;
1257.6000;0.0733;-0.8946;
1257.9000;0.0733;-0.8946;
1258.2000;0.0822;-0.8788;
1258.5000;0.0757;-0.8946;
1258.8000;0.0733;-0.9014;
1259.1000;0.0716;-0.9014;
1259.4000;0.0708;-0.9060;
1259.7000;0.0724;-0.8946;
1260.0000;0.0716;-0.8992;
1260.3000;0.0733;-0.8924;
1260.6000;0.0781;-0.8901;
1260.9000;0.0724;-0.9014;
1261.2000;0.0724;-0.8969;
1261.5000;0.0708;-0.8992;
1261.8000;0.0733;-0.9014;
1262.1000;0.0830;-0.8901;
1262.4000;0.0765;-0.9037;
1262.7000;0.0586;-0.9535;
1263.0000;0.0733;-0.9014;
1263.3000;0.0659;-0.9241;
1263.6000;0.0733;-0.9196;
1263.9000;0.0602;-0.9513;
1264.2000;0.0871;-0.8788;
1264.5000;0.0716;-0.9105;
1264.8000;0.0733;-0.9082;
1265.1000;0.0676;-0.9241;
1265.4000;0.0643;-0.9399;
1265.7000;0.0749;-0.9173;
1266.0000;0.0757;-0.9173;
1266.3000;0.0749;-0.9105;
1266.6000;0.0733;-0.9105;
1266.9000;0.0716;-0.9173;
1267.2000;0.0724;-0.9150;
1267.5000;0.0741;-0.9196;
1267.8000;0.0733;-0.9196;
1268.1000;0.0724;-0.9105;
1268.4000;0.0733;-0.9105;
1268.7000;0.0757;-0.9128;
1269.0000;0.0708;-0.9354;
1269.3000;0.0716;-0.9354;
1269.6000;0.0724;-0.9309;
1269.9000;0.0741;-0.9286;
1270.2000;0.0749;-0.9422;
1270.5000;0.0733;-0.9513;
1270.8000;0.0724;-0.9490;
1271.1000;0.0733;-0.9377;
1271.4000;0.0781;-0.9241;
1271.7000;0.0781;-0.9263;
1272.0000;0.0692;-0.9399;
1272.3000;0.0749;-0.9196;
1272.6000;0.0724;-0.9286;
1272.9000;0.0724;-0.9286;
1273.2000;0.0733;-0.9263;
1273.5000;0.0757;-0.9173;
1273.8000;0.0749;-0.9150;
1274.1000;0.0716;-0.9105;
1274.4000;0.0749;-0.9060;
1274.7000;0.0765;-0.9060;
1275.0000;0.0716;-0.9105;
1275.3000;0.0724;-0.9060;
1275.6000;0.0733;-0.9150;
1275.9000;0.0724;-0.9128;
1276.2000;0.0700;-0.9173;
1276.5000;0.0790;-0.9082;
1276.8000;0.0741;-0.9150;
1277.1000;0.0749;-0.9037;
1277.4000;0.0790;-0.8969;
1277.7000;0.0733;-0.9060;
1278.0000;0.0749;-0.9105;
1278.3000;0.0716;-0.9218;
1278.6000;0.0749;-0.9082;
1278.9000;0.0757;-0.9060;
1279.2000;0.0708;-0.9082;
1279.5000;0.0749;-0.8969;
1279.8000;0.0790;-0.8833;
1280.1000;0.0733;-0.8946;
1280.4000;0.0733;-0.8969;
1280.7000;0.0757;-0.8924;
1281.0000;0.0684;-0.9173;
1281.3000;0.0659;-0.9263;
1281.6000;0.0724;-0.9105;
1281.9000;0.0749;-0.9128;
1282.2000;0.0765;-0.9082;
1282.5000;0.0749;-0.9150;
1282.8000;0.0749;-0.9196;
1283.1000;0.0749;-0.9286;
1283.4000;0.0773;-0.9150;
1283.7000;0.0749;-0.9241;
1284.0000;0.0692;-0.9354;
1284.3000;0.0790;-0.9082;
1284.6000;0.0822;-0.8969;
1284.9000;0.0708;-0.9263;
1285.2000;0.0765;-0.9196;
1285.5000;0.0733;-0.9218;
1285.8000;0.0716;-0.9241;
1286.1000;0.0798;-0.9037;
1286.4000;0.0733;-0.9150;
1286.7000;0.0676;-0.9241;
1287.0000;0.0733;-0.9150;
1287.3000;0.0724;-0.9150;
1287.6000;0.0838;-0.8878;
1287.9000;0.0863;-0.8901;
1288.2000;0.0716;-0.9286;
1288.5000;0.0814;-0.9173;
1288.8000;0.0733;-0.9331;
1289.1000;0.0773;-0.9150;
1289.4000;0.0741;-0.9241;
1289.7000;0.0749;-0.9218;
1290.0000;0.0757;-0.9196;
1290.3000;0.0757;-0.9173;
1290.6000;0.0765;-0.9128;
1290.9000;0.0733;-0.9150;
1291.2000;0.0741;-0.9105;
1291.5000;0.0733;-0.9128;
1291.8000;0.0716;-0.9196;
1292.1000;0.0749;-0.9218;
1292.4000;0.0741;-0.9218;
1292.7000;0.0724;-0.9196;
1293.0000;0.0765;-0.9014;
1293.3000;0.0749;-0.9105;
1293.6000;0.0757;-0.9128;
1293.9000;0.0765;-0.9128;
1294.2000;0.0757;-0.9082;
1294.5000;0.0700;-0.9196;
1294.8000;0.0733;-0.9082;
1295.1000;0.0700;-0.9128;
1295.4000;0.0741;-0.9037;
1295.7000;0.0749;-0.9037;
1296.0000;0.0757;-0.9060;
1296.3000;0.0708;-0.9105;
1296.6000;0.0724;-0.9082;
1296.9000;0.0724;-0.9150;
1297.2000;0.0733;-0.9173;
1297.5000;0.0708;-0.9218;
1297.8000;0.0741;-0.9105;
1298.1000;0.0724;-0.9218;
1298.4000;0.0741;-0.9196;
1298.7000;0.0749;-0.9218;
1299.0000;0.0733;-0.9309;
1299.3000;0.0822;-0.9150;
1299.6000;0.0716;-0.9263;
1299.9000;0.0749;-0.9218;
1300.2000;0.0741;-0.9150;
1300.5000;0.0798;-0.9082;
1300.8000;0.0757;-0.9196;
1301.1000;0.0716;-0.9286;
1301.4000;0.0741;-0.9309;
1301.7000;0.0733;-0.9309;
1302.0000;0.0838;-0.9037;
1302.3000;0.0749;-0.9241;
1302.6000;0.0757;-0.9105;
1302.9000;0.0724;-0.9082;
1303.2000;0.0814;-0.8856;
1303.5000;0.0765;-0.8901;
1303.8000;0.0676;-0.9173;
1304.1000;0.0765;-0.8946;
1304.4000;0.0733;-0.9060;
1304.7000;0.0692;-0.9173;
1305.0000;0.0651;-0.9241;
1305.3000;0.0741;-0.8946;
1305.6000;0.0733;-0.8924;
1305.9000;0.0676;-0.9105;
1306.2000;0.0773;-0.8856;
1306.5000;0.0708;-0.8946;
1306.8000;0.0724;-0.8969;
1307.1000;0.0798;-0.8810;
1307.4000;0.0790;-0.8878;
1307.7000;0.0749;-0.8946;
1308.0000;0.0692;-0.9060;
1308.3000;0.0806;-0.8901;
1308.6000;0.0659;-0.9354;
1308.9000;0.0733;-0.9196;
1309.2000;0.0741;-0.9241;
1309.5000;0.0741;-0.9128;
1309.8000;0.0847;-0.8856;
1310.1000;0.0806;-0.9014;
1310.4000;0.0741;-0.9105;
1310.7000;0.0700;-0.9128;
1311.0000;0.0806;-0.8901;
1311.3000;0.0749;-0.9082;
1311.6000;0.0749;-0.9060;
1311.9000;0.0733;-0.9128;
1312.2000;0.0749;-0.9082;
1312.5000;0.0733;-0.9037;
1312.8000;0.0749;-0.9037;
1313.1000;0.0733;-0.9082;
1313.4000;0.0741;-0.9060;
1313.7000;0.0700;-0.9173;
1314.0000;0.0757;-0.9128;
1314.3000;0.0733;-0.9196;
1314.6000;0.0700;-0.9196;
1314.9000;0.0733;-0.9173;
1315.2000;0.0741;-0.9218;
1315.5000;0.0733;-0.9150;
1315.8000;0.0741;-0.9128;
1316.1000;0.0733;-0.9173;
1316.4000;0.0733;-0.9196;
1316.7000;0.0733;-0.9173;
1317.0000;0.0716;-0.9173;
1317.3000;0.0741;-0.8969;
1317.6000;0.0741;-0.8992;
1317.9000;0.0765;-0.8924;
1318.2000;0.0765;-0.8901;
1318.5000;0.0757;-0.8856;
1318.8000;0.0724;-0.8969;
1319.1000;0.0765;-0.8969;
1319.4000;0.0765;-0.8946;
1319.7000;0.0724;-0.9037;
1320.0000;0.0733;-0.8969;
1320.3000;0.0716;-0.8969;
1320.6000;0.0733;-0.9014;
1320.9000;0.0724;-0.9037;
1321.2000;0.0716;-0.9105;
1321.5000;0.0749;-0.9037;
1321.8000;0.0724;-0.9060;
1322.1000;0.0684;-0.9196;
1322.4000;0.0749;-0.9014;
1322.7000;0.0716;-0.9173;
1323.0000;0.0741;-0.9082;
1323.3000;0.0716;-0.9196;
1323.6000;0.0724;-0.9128;
1323.9000;0.0733;-0.9060;
1324.2000;0.0724;-0.9014;
1324.5000;0.0708;-0.9060;
1324.8000;0.0724;-0.9060;
1325.1000;0.0724;-0.9082;
1325.4000;0.0749;-0.8969;
1325.7000;0.0749;-0.8992;
1326.0000;0.0855;-0.8788;
1326.3000;0.0749;-0.8969;
1326.6000;0.0741;-0.8992;
1326.9000;0.0733;-0.8946;
1327.2000;0.0724;-0.9014;
1327.5000;0.0822;-0.8969;
1327.8000;0.0790;-0.8969;
1328.1000;0.0757;-0.9060;
1328.4000;0.0757;-0.8901;
1328.7000;0.0741;-0.8924;
1329.0000;0.0749;-0.8878;
1329.3000;0.0765;-0.8901;
1329.6000;0.0741;-0.8969;
1329.9000;0.0749;-0.8992;
1330.2000;0.0692;-0.9105;
1330.5000;0.0741;-0.9082;
1330.8000;0.0822;-0.8992;
1331.1000;0.0716;-0.9309;
1331.4000;0.0757;-0.9196;
1331.7000;0.0692;-0.9173;
1332.0000;0.0749;-0.9014;
1332.3000;0.0765;-0.9037;
1332.6000;0.0741;-0.9128;
1332.9000;0.0741;-0.9150;
1333.2000;0.0692;-0.9218;
1333.5000;0.0724;-0.9196;
1333.8000;0.0708;-0.9241;
1334.1000;0.0741;-0.9173;
1334.4000;0.0724;-0.9196;
1334.7000;0.0643;-0.9422;
1335.0000;0.0708;-0.9218;
1335.3000;0.0749;-0.9150;
1335.6000;0.0724;-0.9218;
1335.9000;0.0700;-0.9241;
1336.2000;0.0741;-0.9150;
1336.5000;0.0765;-0.9105;
1336.8000;0.0773;-0.8992;
1337.1000;0.0749;-0.9082;
1337.4000;0.0749;-0.9082;
1337.7000;0.0741;-0.9105;
1338.0000;0.0749;-0.9173;
1338.3000;0.0733;-0.9218;
1338.6000;0.0733;-0.9331;
1338.9000;0.0708;-0.9399;
1339.2000;0.0716;-0.9309;
1339.5000;0.0749;-0.9150;
1339.8000;0.0716;-0.9286;
1340.1000;0.0733;-0.9263;
1340.4000;0.0757;-0.9263;
1340.7000;0.0765;-0.9196;
1341.0000;0.0741;-0.9082;
1341.3000;0.0716;-0.9082;
1341.6000;0.0733;-0.9037;
1341.9000;0.0733;-0.8992;
1342.2000;0.0733;-0.8969;
1342.5000;0.0749;-0.8992;
1342.8000;0.0733;-0.9173;
1343.1000;0.0643;-0.9445;
1343.4000;0.0741;-0.9173;
1343.7000;0.0733;-0.9218;
1344.0000;0.0733;-0.9218;
1344.3000;0.0741;-0.9196;
1344.6000;0.0724;-0.9173;
1344.9000;0.0724;-0.9218;
1345.2000;0.0733;-0.9241;
1345.5000;0.0733;-0.9241;
1345.8000;0.0716;-0.9241;
1346.1000;0.0676;-0.9263;
1346.4000;0.0749;-0.9060;
1346.7000;0.0733;-0.9128;
1347.0000;0.0716;-0.9196;
1347.3000;0.0692;-0.9241;
1347.6000;0.0733;-0.9082;
1347.9000;0.0749;-0.8992;
1348.2000;0.0724;-0.8992;
1348.5000;0.0733;-0.8946;
1348.8000;0.0716;-0.9037;
1349.1000;0.0733;-0.8992;
1349.4000;0.0716;-0.9014;
1349.7000;0.0733;-0.8969;
1350.0000;0.0749;-0.8992;
1350.3000;0.0790;-0.8946;
1350.6000;0.0798;-0.8833;
1350.9000;0.0724;-0.9128;
1351.2000;0.0708;-0.9218;
1351.5000;0.0733;-0.9150;
1351.8000;0.0741;-0.9150;
1352.1000;0.0708;-0.9241;
1352.4000;0.0708;-0.9241;
1352.7000;0.0733;-0.9173;
1353.0000;0.0684;-0.9309;
1353.3000;0.0757;-0.9082;
1353.6000;0.0733;-0.9082;
1353.9000;0.0765;-0.8969;
1354.2000;0.0724;-0.9037;
1354.5000;0.0749;-0.8969;
1354.8000;0.0741;-0.8969;
1355.1000;0.0684;-0.9128;
1355.4000;0.0749;-0.8992;
1355.7000;0.0724;-0.8969;
1356.0000;0.0716;-0.9014;
1356.3000;0.0757;-0.9082;
1356.6000;0.0741;-0.9150;
1356.9000;0.0790;-0.9037;
1357.2000;0.0765;-0.9196;
1357.5000;0.0627;-0.9535;
1357.8000;0.0724;-0.9241;
1358.1000;0.0741;-0.9150;
1358.4000;0.0724;-0.9105;
1358.7000;0.0757;-0.9105;
1359.0000;0.0741;-0.9218;
1359.3000;0.0765;-0.9196;
1359.6000;0.0741;-0.9218;
1359.9000;0.0733;-0.9309;
1360.2000;0.0765;-0.9218;
1360.5000;0.0765;-0.9150;
1360.8000;0.0708;-0.9263;
1361.1000;0.0765;-0.9082;
1361.4000;0.0716;-0.9150;
1361.7000;0.0790;-0.8946;
1362.0000;0.0733;-0.9060;
1362.3000;0.0733;-0.8969;
1362.6000;0.0741;-0.8946;
1362.9000;0.0741;-0.8946;
1363.2000;0.0765;-0.8901;
1363.5000;0.0733;-0.9037;
1363.8000;0.0765;-0.8992;
1364.1000;0.0724;-0.9128;
1364.4000;0.0741;-0.9196;
1364.7000;0.0741;-0.9150;
1365.0000;0.0724;-0.9173;
1365.3000;0.0757;-0.9196;
1365.6000;0.0733;-0.9331;
1365.9000;0.0749;-0.9173;
1366.2000;0.0765;-0.9060;
1366.5000;0.0741;-0.9082;
1366.8000;0.0708;-0.9263;
1367.1000;0.0733;-0.9082;
1367.4000;0.0781;-0.8969;
1367.7000;0.0749;-0.8969;
1368.0000;0.0757;-0.8969;
1368.3000;0.0724;-0.9105;
1368.6000;0.0741;-0.9014;
1368.9000;0.0749;-0.9014;
1369.2000;0.0741;-0.9014;
1369.5000;0.0733;-0.9173;
1369.8000;0.0749;-0.9196;
1370.1000;0.0676;-0.9535;
1370.4000;0.0733;-0.9286;
1370.7000;0.0700;-0.9354;
1371.0000;0.0667;-0.9445;
1371.3000;0.0724;-0.9105;
1371.6000;0.0733;-0.9014;
1371.9000;0.0855;-0.8629;
1372.2000;0.0757;-0.8833;
1372.5000;0.0863;-0.8561;
1372.8000;0.0708;-0.8992;
1373.1000;0.0749;-0.8946;
1373.4000;0.0757;-0.8856;
1373.7000;0.0749;-0.8833;
1374.0000;0.0733;-0.8901;
1374.3000;0.0749;-0.8856;
1374.6000;0.0741;-0.8856;
1374.9000;0.0757;-0.8901;
1375.2000;0.0781;-0.8878;
1375.5000;0.0741;-0.8924;
1375.8000;0.0741;-0.9014;
1376.1000;0.0773;-0.8969;
1376.4000;0.0741;-0.9082;
1376.7000;0.0724;-0.9150;
1377.0000;0.0749;-0.9105;
1377.3000;0.0741;-0.9150;
1377.6000;0.0724;-0.9241;
1377.9000;0.0765;-0.9082;
1378.2000;0.0676;-0.9263;
1378.5000;0.0741;-0.9082;
1378.8000;0.0757;-0.9014;
1379.1000;0.0822;-0.8878;
1379.4000;0.0741;-0.9060;
1379.7000;0.0716;-0.9105;
1380.0000;0.0692;-0.9105;
1380.3000;0.0781;-0.8833;
1380.6000;0.0773;-0.8856;
1380.9000;0.0708;-0.9060;
1381.2000;0.0798;-0.8856;
1381.5000;0.0749;-0.8969;
1381.8000;0.0708;-0.8969;
1382.1000;0.0708;-0.8992;
1382.4000;0.0741;-0.8946;
1382.7000;0.0741;-0.8924;
1383.0000;0.0733;-0.9082;
1383.3000;0.0724;-0.9173;
1383.6000;0.0733;-0.9150;
1383.9000;0.0749;-0.8992;
1384.2000;0.0724;-0.8969;
1384.5000;0.0724;-0.9014;
1384.8000;0.0765;-0.8969;
1385.1000;0.0814;-0.8856;
1385.4000;0.0724;-0.9037;
1385.7000;0.0716;-0.9105;
1386.0000;0.0724;-0.9105;
1386.3000;0.0733;-0.9060;
1386.6000;0.0741;-0.9128;
1386.9000;0.0741;-0.9082;
1387.2000;0.0757;-0.8992;
1387.5000;0.0790;-0.8856;
1387.8000;0.0749;-0.8946;
1388.1000;0.0700;-0.9014;
1388.4000;0.0724;-0.8969;
1388.7000;0.0749;-0.8992;
1389.0000;0.0781;-0.8924;
1389.3000;0.0716;-0.9105;
1389.6000;0.0773;-0.8946;
1389.9000;0.0757;-0.8878;
1390.2000;0.0700;-0.8946;
1390.5000;0.0765;-0.8810;
1390.8000;0.0716;-0.8901;
1391.1000;0.0716;-0.8924;
1391.4000;0.0733;-0.8878;
1391.7000;0.0733;-0.8833;
1392.0000;0.0757;-0.8856;
1392.3000;0.0749;-0.8992;
1392.6000;0.0749;-0.8901;
1392.9000;0.0627;-0.9218;
1393.2000;0.0733;-0.8969;
1393.5000;0.0741;-0.8969;
1393.8000;0.0692;-0.9128;
1394.1000;0.0749;-0.8924;
1394.4000;0.0659;-0.9173;
1394.7000;0.0757;-0.8992;
1395.0000;0.0716;-0.9150;
1395.3000;0.0749;-0.9082;
1395.6000;0.0676;-0.9173;
1395.9000;0.0765;-0.8969;
1396.2000;0.0716;-0.9082;
1396.5000;0.0822;-0.8833;
1396.8000;0.0757;-0.8992;
1397.1000;0.0716;-0.9082;
1397.4000;0.0757;-0.9014;
1397.7000;0.0749;-0.9014;
1398.0000;0.0733;-0.9037;
1398.3000;0.0733;-0.8992;
1398.6000;0.0676;-0.9128;
1398.9000;0.0757;-0.8856;
1399.2000;0.0733;-0.8969;
1399.5000;0.0724;-0.9014;
1399.8000;0.0847;-0.8856;
