time/ms;Fluo/V;P700 deltaI/I x10³;
-199.8000;0.0741;-1.0079;
-199.5000;0.0708;-1.0147;
-199.2000;0.0733;-1.0101;
-198.9000;0.0757;-1.0011;
-198.6000;0.0765;-1.0011;
-198.3000;0.0692;-1.0169;
-198.0000;0.0708;-1.0101;
-197.7000;0.0724;-1.0034;
-197.4000;0.0757;-0.9943;
-197.1000;0.0773;-0.9943;
-196.8000;0.0716;-0.9966;
-196.5000;0.0741;-0.9852;
-196.2000;0.0749;-0.9784;
-195.9000;0.0757;-0.9807;
-195.6000;0.0708;-0.9898;
-195.3000;0.0659;-1.0011;
-195.0000;0.0741;-0.9898;
-194.7000;0.0741;-0.9920;
-194.4000;0.0749;-0.9943;
-194.1000;0.0733;-0.9988;
-193.8000;0.0733;-0.9920;
-193.5000;0.0741;-0.9875;
-193.2000;0.0700;-0.9920;
-192.9000;0.0733;-0.9807;
-192.6000;0.0765;-0.9716;
-192.3000;0.0741;-0.9671;
-192.0000;0.0741;-0.9784;
-191.7000;0.0724;-0.9875;
-191.4000;0.0749;-0.9830;
-191.1000;0.0855;-0.9649;
-190.8000;0.0692;-0.9943;
-190.5000;0.0749;-0.9852;
-190.2000;0.0700;-0.9966;
-189.9000;0.0733;-0.9988;
-189.6000;0.0733;-0.9988;
-189.3000;0.0716;-1.0056;
-189.0000;0.0724;-0.9920;
-188.7000;0.0765;-0.9784;
-188.4000;0.0757;-0.9807;
-188.1000;0.0749;-0.9875;
-187.8000;0.0716;-0.9966;
-187.5000;0.0838;-0.9649;
-187.2000;0.0716;-0.9875;
-186.9000;0.0627;-1.0147;
-186.6000;0.0741;-0.9852;
-186.3000;0.0749;-0.9784;
-186.0000;0.0741;-0.9739;
-185.7000;0.0716;-0.9716;
-185.4000;0.0700;-0.9739;
-185.1000;0.0708;-0.9716;
-184.8000;0.0733;-0.9626;
-184.5000;0.0749;-0.9626;
-184.2000;0.0757;-0.9649;
-183.9000;0.0708;-0.9739;
-183.6000;0.0757;-0.9694;
-183.3000;0.0611;-1.0011;
-183.0000;0.0716;-0.9671;
-182.7000;0.0757;-0.9535;
-182.4000;0.0741;-0.9581;
-182.1000;0.0822;-0.9445;
-181.8000;0.0757;-0.9581;
-181.5000;0.0741;-0.9649;
-181.2000;0.0773;-0.9513;
-180.9000;0.0741;-0.9694;
-180.6000;0.0773;-0.9626;
-180.3000;0.0708;-0.9739;
-180.0000;0.0733;-0.9694;
-179.7000;0.0757;-0.9626;
-179.4000;0.0716;-0.9807;
-179.1000;0.0733;-0.9807;
-178.8000;0.0676;-0.9920;
-178.5000;0.0651;-1.0011;
-178.2000;0.0619;-1.0056;
-177.9000;0.0741;-0.9671;
-177.6000;0.0700;-0.9852;
-177.3000;0.0749;-0.9739;
-177.0000;0.0749;-0.9716;
-176.7000;0.0716;-0.9694;
-176.4000;0.0749;-0.9581;
-176.1000;0.0741;-0.9649;
-175.8000;0.0716;-0.9739;
-175.5000;0.0749;-0.9649;
-175.2000;0.0741;-0.9716;
-174.9000;0.0741;-0.9649;
-174.6000;0.0716;-0.9716;
-174.3000;0.0733;-0.9716;
-174.0000;0.0741;-0.9671;
-173.7000;0.0806;-0.9467;
-173.4000;0.0716;-0.9603;
-173.1000;0.0676;-0.9671;
-172.8000;0.0741;-0.9513;
-172.5000;0.0676;-0.9716;
-172.2000;0.0611;-0.9966;
-171.9000;0.0724;-0.9762;
-171.6000;0.0716;-0.9762;
-171.3000;0.0724;-0.9694;
-171.0000;0.0733;-0.9626;
-170.7000;0.0741;-0.9694;
-170.4000;0.0724;-0.9716;
-170.1000;0.0798;-0.9581;
-169.8000;0.0733;-0.9716;
-169.5000;0.0757;-0.9649;
-169.2000;0.0790;-0.9490;
-168.9000;0.0716;-0.9694;
-168.6000;0.0708;-0.9784;
-168.3000;0.0733;-0.9716;
-168.0000;0.0741;-0.9694;
-167.7000;0.0724;-0.9739;
-167.4000;0.0724;-0.9739;
-167.1000;0.0724;-0.9649;
-166.8000;0.0741;-0.9513;
-166.5000;0.0814;-0.9377;
-166.2000;0.0700;-0.9762;
-165.9000;0.0724;-0.9784;
-165.6000;0.0741;-0.9694;
-165.3000;0.0765;-0.9694;
-165.0000;0.0708;-0.9852;
-164.7000;0.0724;-0.9716;
-164.4000;0.0611;-0.9966;
-164.1000;0.0741;-0.9694;
-163.8000;0.0757;-0.9716;
-163.5000;0.0741;-0.9739;
-163.2000;0.0749;-0.9807;
-162.9000;0.0749;-0.9830;
-162.6000;0.0716;-0.9784;
-162.3000;0.0716;-0.9830;
-162.0000;0.0741;-0.9716;
-161.7000;0.0716;-0.9875;
-161.4000;0.0741;-0.9807;
-161.1000;0.0700;-0.9898;
-160.8000;0.0684;-0.9943;
-160.5000;0.0716;-0.9920;
-160.2000;0.0708;-0.9807;
-159.9000;0.0724;-0.9694;
-159.6000;0.0708;-0.9671;
-159.3000;0.0757;-0.9445;
-159.0000;0.0724;-0.9581;
-158.7000;0.0724;-0.9649;
-158.4000;0.0716;-0.9603;
-158.1000;0.0741;-0.9716;
-157.8000;0.0757;-0.9649;
-157.5000;0.0700;-0.9807;
-157.2000;0.0757;-0.9626;
-156.9000;0.0749;-0.9649;
-156.6000;0.0724;-0.9694;
-156.3000;0.0741;-0.9649;
-156.0000;0.0724;-0.9716;
-155.7000;0.0790;-0.9558;
-155.4000;0.0733;-0.9762;
-155.1000;0.0733;-0.9852;
-154.8000;0.0741;-0.9852;
-154.5000;0.0733;-0.9830;
-154.2000;0.0708;-0.9966;
-153.9000;0.0741;-0.9898;
-153.6000;0.0757;-0.9852;
-153.3000;0.0741;-0.9852;
-153.0000;0.0724;-0.9875;
-152.7000;0.0781;-0.9626;
-152.4000;0.0733;-0.9694;
-152.1000;0.0724;-0.9830;
-151.8000;0.0708;-1.0011;
-151.5000;0.0684;-1.0011;
-151.2000;0.0700;-0.9898;
-150.9000;0.0716;-0.9762;
-150.6000;0.0749;-0.9694;
-150.3000;0.0724;-0.9649;
-150.0000;0.0643;-0.9898;
-149.7000;0.0749;-0.9671;
-149.4000;0.0659;-1.0034;
-149.1000;0.0741;-0.9739;
-148.8000;0.0708;-0.9784;
-148.5000;0.0586;-1.0169;
-148.2000;0.0700;-0.9943;
-147.9000;0.0773;-0.9762;
-147.6000;0.0700;-0.9852;
-147.3000;0.0708;-0.9898;
-147.0000;0.0781;-0.9671;
-146.7000;0.0684;-0.9830;
-146.4000;0.0757;-0.9626;
-146.1000;0.0724;-0.9739;
-145.8000;0.0741;-0.9671;
-145.5000;0.0724;-0.9694;
-145.2000;0.0716;-0.9784;
-144.9000;0.0757;-0.9694;
-144.6000;0.0716;-0.9875;
-144.3000;0.0781;-0.9716;
-144.0000;0.0749;-0.9739;
-143.7000;0.0716;-0.9716;
-143.4000;0.0741;-0.9626;
-143.1000;0.0765;-0.9626;
-142.8000;0.0773;-0.9626;
-142.5000;0.0741;-0.9716;
-142.2000;0.0741;-0.9739;
-141.9000;0.0724;-0.9739;
-141.6000;0.0773;-0.9535;
-141.3000;0.0757;-0.9581;
-141.0000;0.0814;-0.9399;
-140.7000;0.0724;-0.9716;
-140.4000;0.0765;-0.9694;
-140.1000;0.0773;-0.9671;
-139.8000;0.0790;-0.9649;
-139.5000;0.0757;-0.9716;
-139.2000;0.0733;-0.9807;
-138.9000;0.0676;-1.0011;
-138.6000;0.0733;-0.9830;
-138.3000;0.0757;-0.9852;
-138.0000;0.0741;-0.9875;
-137.7000;0.0676;-0.9966;
-137.4000;0.0773;-0.9807;
-137.1000;0.0716;-0.9943;
-136.8000;0.0724;-0.9875;
-136.5000;0.0741;-0.9716;
-136.2000;0.0830;-0.9467;
-135.9000;0.0741;-0.9716;
-135.6000;0.0741;-0.9716;
-135.3000;0.0716;-0.9807;
-135.0000;0.0749;-0.9762;
-134.7000;0.0733;-0.9784;
-134.4000;0.0716;-0.9852;
-134.1000;0.0781;-0.9716;
-133.8000;0.0708;-0.9920;
-133.5000;0.0830;-0.9581;
-133.2000;0.0627;-1.0192;
-132.9000;0.0765;-0.9830;
-132.6000;0.0741;-0.9852;
-132.3000;0.0741;-0.9762;
-132.0000;0.0749;-0.9671;
-131.7000;0.0773;-0.9535;
-131.4000;0.0749;-0.9649;
-131.1000;0.0830;-0.9377;
-130.8000;0.0659;-0.9852;
-130.5000;0.0749;-0.9694;
-130.2000;0.0733;-0.9807;
-129.9000;0.0741;-0.9762;
-129.6000;0.0724;-0.9739;
-129.3000;0.0749;-0.9716;
-129.0000;0.0814;-0.9535;
-128.7000;0.0757;-0.9626;
-128.4000;0.0676;-0.9739;
-128.1000;0.0798;-0.9399;
-127.8000;0.0757;-0.9467;
-127.5000;0.0733;-0.9422;
-127.2000;0.0749;-0.9490;
-126.9000;0.0692;-0.9513;
-126.6000;0.0749;-0.9354;
-126.3000;0.0781;-0.9331;
-126.0000;0.0733;-0.9490;
-125.7000;0.0741;-0.9513;
-125.4000;0.0765;-0.9558;
-125.1000;0.0733;-0.9626;
-124.8000;0.0724;-0.9626;
-124.5000;0.0724;-0.9649;
-124.2000;0.0741;-0.9626;
-123.9000;0.0765;-0.9626;
-123.6000;0.0741;-0.9626;
-123.3000;0.0757;-0.9558;
-123.0000;0.0749;-0.9490;
-122.7000;0.0602;-0.9852;
-122.4000;0.0749;-0.9558;
-122.1000;0.0765;-0.9558;
-121.8000;0.0724;-0.9694;
-121.5000;0.0741;-0.9649;
-121.2000;0.0733;-0.9671;
-120.9000;0.0757;-0.9513;
-120.6000;0.0733;-0.9603;
-120.3000;0.0749;-0.9581;
-120.0000;0.0594;-0.9943;
-119.7000;0.0700;-0.9649;
-119.4000;0.0733;-0.9581;
-119.1000;0.0765;-0.9535;
-118.8000;0.0741;-0.9535;
-118.5000;0.0733;-0.9535;
-118.2000;0.0733;-0.9513;
-117.9000;0.0716;-0.9513;
-117.6000;0.0741;-0.9535;
-117.3000;0.0692;-0.9649;
-117.0000;0.0716;-0.9603;
-116.7000;0.0741;-0.9513;
-116.4000;0.0741;-0.9581;
-116.1000;0.0716;-0.9581;
-115.8000;0.0773;-0.9558;
-115.5000;0.0724;-0.9671;
-115.2000;0.0724;-0.9694;
-114.9000;0.0749;-0.9603;
-114.6000;0.0733;-0.9716;
-114.3000;0.0724;-0.9830;
-114.0000;0.0700;-0.9830;
-113.7000;0.0757;-0.9626;
-113.4000;0.0724;-0.9626;
-113.1000;0.0757;-0.9467;
-112.8000;0.0757;-0.9558;
-112.5000;0.0757;-0.9535;
-112.2000;0.0724;-0.9490;
-111.9000;0.0716;-0.9535;
-111.6000;0.0724;-0.9513;
-111.3000;0.0733;-0.9467;
-111.0000;0.0724;-0.9399;
-110.7000;0.0749;-0.9399;
-110.4000;0.0708;-0.9513;
-110.1000;0.0749;-0.9422;
-109.8000;0.0724;-0.9490;
-109.5000;0.0814;-0.9286;
-109.2000;0.0724;-0.9490;
-108.9000;0.0724;-0.9558;
-108.6000;0.0749;-0.9467;
-108.3000;0.0716;-0.9535;
-108.0000;0.0724;-0.9603;
-107.7000;0.0781;-0.9581;
-107.4000;0.0724;-0.9626;
-107.1000;0.0765;-0.9445;
-106.8000;0.0733;-0.9558;
-106.5000;0.0741;-0.9581;
-106.2000;0.0757;-0.9558;
-105.9000;0.0741;-0.9581;
-105.6000;0.0749;-0.9649;
-105.3000;0.0716;-0.9784;
-105.0000;0.0749;-0.9694;
-104.7000;0.0830;-0.9422;
-104.4000;0.0708;-0.9626;
-104.1000;0.0765;-0.9513;
-103.8000;0.0659;-0.9739;
-103.5000;0.0765;-0.9467;
-103.2000;0.0741;-0.9513;
-102.9000;0.0724;-0.9513;
-102.6000;0.0692;-0.9581;
-102.3000;0.0659;-0.9807;
-102.0000;0.0814;-0.9513;
-101.7000;0.0790;-0.9513;
-101.4000;0.0733;-0.9671;
-101.1000;0.0749;-0.9671;
-100.8000;0.0749;-0.9649;
-100.5000;0.0716;-0.9716;
-100.2000;0.0928;-0.9218;
-99.9000;0.0765;-0.9762;
-99.6000;0.0765;-0.9784;
-99.3000;0.0790;-0.9784;
-99.0000;0.0708;-0.9898;
-98.7000;0.0667;-0.9898;
-98.4000;0.0716;-0.9694;
-98.1000;0.0684;-0.9671;
-97.8000;0.0749;-0.9490;
-97.5000;0.0700;-0.9603;
-97.2000;0.0733;-0.9467;
-96.9000;0.0692;-0.9626;
-96.6000;0.0724;-0.9603;
-96.3000;0.0692;-0.9762;
-96.0000;0.0741;-0.9558;
-95.7000;0.0749;-0.9558;
-95.4000;0.0724;-0.9649;
-95.1000;0.0716;-0.9671;
-94.8000;0.0733;-0.9535;
-94.5000;0.0619;-0.9875;
-94.2000;0.0757;-0.9513;
-93.9000;0.0741;-0.9558;
-93.6000;0.0749;-0.9467;
-93.3000;0.0741;-0.9467;
-93.0000;0.0757;-0.9490;
-92.7000;0.0749;-0.9490;
-92.4000;0.0749;-0.9558;
-92.1000;0.0773;-0.9490;
-91.8000;0.0741;-0.9626;
-91.5000;0.0749;-0.9626;
-91.2000;0.0700;-0.9830;
-90.9000;0.0724;-0.9739;
-90.6000;0.0724;-0.9716;
-90.3000;0.0724;-0.9694;
-90.0000;0.0757;-0.9671;
-89.7000;0.0692;-0.9875;
-89.4000;0.0733;-0.9694;
-89.1000;0.0741;-0.9535;
-88.8000;0.0733;-0.9490;
-88.5000;0.0676;-0.9581;
-88.2000;0.0773;-0.9422;
-87.9000;0.0741;-0.9445;
-87.6000;0.0667;-0.9626;
-87.3000;0.0757;-0.9490;
-87.0000;0.0822;-0.9445;
-86.7000;0.0757;-0.9762;
-86.4000;0.0724;-0.9852;
-86.1000;0.0700;-0.9966;
-85.8000;0.0733;-0.9943;
-85.5000;0.0741;-0.9807;
-85.2000;0.0749;-0.9694;
-84.9000;0.0716;-0.9626;
-84.6000;0.0700;-0.9739;
-84.3000;0.0724;-0.9626;
-84.0000;0.0749;-0.9649;
-83.7000;0.0773;-0.9626;
-83.4000;0.0749;-0.9581;
-83.1000;0.0749;-0.9581;
-82.8000;0.0757;-0.9558;
-82.5000;0.0790;-0.9558;
-82.2000;0.0749;-0.9671;
-81.9000;0.0733;-0.9694;
-81.6000;0.0716;-0.9716;
-81.3000;0.0724;-0.9694;
-81.0000;0.0716;-0.9716;
-80.7000;0.0684;-0.9784;
-80.4000;0.0798;-0.9490;
-80.1000;0.0741;-0.9626;
-79.8000;0.0659;-0.9898;
-79.5000;0.0692;-0.9852;
-79.2000;0.0741;-0.9671;
-78.9000;0.0773;-0.9558;
-78.6000;0.0716;-0.9694;
-78.3000;0.0651;-0.9762;
-78.0000;0.0684;-0.9762;
-77.7000;0.0806;-0.9490;
-77.4000;0.0724;-0.9739;
-77.1000;0.0757;-0.9784;
-76.8000;0.0716;-0.9875;
-76.5000;0.0749;-0.9898;
-76.2000;0.0757;-0.9807;
-75.9000;0.0724;-0.9830;
-75.6000;0.0741;-0.9784;
-75.3000;0.0716;-0.9807;
-75.0000;0.0724;-0.9875;
-74.7000;0.0741;-0.9852;
-74.4000;0.0724;-0.9898;
-74.1000;0.0749;-0.9852;
-73.8000;0.0765;-0.9807;
-73.5000;0.0749;-0.9807;
-73.2000;0.0741;-0.9898;
-72.9000;0.0741;-0.9830;
-72.6000;0.0724;-0.9875;
-72.3000;0.0716;-0.9852;
-72.0000;0.0724;-0.9739;
-71.7000;0.0749;-0.9762;
-71.4000;0.0716;-0.9898;
-71.1000;0.0749;-0.9920;
-70.8000;0.0814;-0.9807;
-70.5000;0.0708;-0.9966;
-70.2000;0.0724;-0.9988;
-69.9000;0.0749;-0.9898;
-69.6000;0.0765;-0.9807;
-69.3000;0.0749;-1.0011;
-69.0000;0.0700;-1.0147;
-68.7000;0.0733;-1.0034;
-68.4000;0.0749;-0.9988;
-68.1000;0.0749;-0.9988;
-67.8000;0.0741;-1.0056;
-67.5000;0.0749;-0.9943;
-67.2000;0.0765;-0.9898;
-66.9000;0.0724;-0.9988;
-66.6000;0.0724;-1.0011;
-66.3000;0.0692;-1.0079;
-66.0000;0.0724;-1.0056;
-65.7000;0.0700;-1.0079;
-65.4000;0.0765;-0.9988;
-65.1000;0.0741;-0.9988;
-64.8000;0.0716;-1.0056;
-64.5000;0.0733;-0.9920;
-64.2000;0.0765;-0.9852;
-63.9000;0.0765;-0.9784;
-63.6000;0.0708;-0.9920;
-63.3000;0.0724;-0.9875;
-63.0000;0.0749;-0.9784;
-62.7000;0.0611;-1.0101;
-62.4000;0.0700;-0.9830;
-62.1000;0.0716;-0.9762;
-61.8000;0.0684;-0.9852;
-61.5000;0.0733;-0.9739;
-61.2000;0.0716;-0.9830;
-60.9000;0.0716;-0.9898;
-60.6000;0.0733;-0.9852;
-60.3000;0.0749;-0.9830;
-60.0000;0.0757;-0.9875;
-59.7000;0.0724;-0.9898;
-59.4000;0.0741;-0.9830;
-59.1000;0.0757;-0.9830;
-58.8000;0.0741;-0.9920;
-58.5000;0.0716;-1.0011;
-58.2000;0.0724;-1.0034;
-57.9000;0.0757;-0.9943;
-57.6000;0.0757;-0.9966;
-57.3000;0.0716;-0.9988;
-57.0000;0.0733;-1.0034;
-56.7000;0.0716;-1.0056;
-56.4000;0.0708;-1.0056;
-56.1000;0.0733;-1.0056;
-55.8000;0.0765;-0.9988;
-55.5000;0.0814;-0.9875;
-55.2000;0.0741;-1.0011;
-54.9000;0.0733;-1.0011;
-54.6000;0.0741;-1.0056;
-54.3000;0.0733;-1.0034;
-54.0000;0.0749;-0.9943;
-53.7000;0.0757;-0.9920;
-53.4000;0.0749;-0.9807;
-53.1000;0.0724;-0.9807;
-52.8000;0.0749;-0.9784;
-52.5000;0.0749;-0.9852;
-52.2000;0.0822;-0.9716;
-51.9000;0.0741;-0.9852;
-51.6000;0.0700;-0.9875;
-51.3000;0.0741;-0.9694;
-51.0000;0.0716;-0.9830;
-50.7000;0.0749;-0.9830;
-50.4000;0.0586;-1.0215;
-50.1000;0.0741;-0.9784;
-49.8000;0.0733;-0.9830;
-49.5000;0.0790;-0.9694;
-49.2000;0.0741;-0.9784;
-48.9000;0.0773;-0.9694;
-48.6000;0.0741;-0.9807;
-48.3000;0.0700;-0.9875;
-48.0000;0.0724;-0.9784;
-47.7000;0.0733;-0.9671;
-47.4000;0.0733;-0.9671;
-47.1000;0.0724;-0.9762;
-46.8000;0.0749;-0.9694;
-46.5000;0.0741;-0.9716;
-46.2000;0.0716;-0.9762;
-45.9000;0.0741;-0.9716;
-45.6000;0.0741;-0.9739;
-45.3000;0.0741;-0.9716;
-45.0000;0.0708;-0.9762;
-44.7000;0.0708;-0.9784;
-44.4000;0.0733;-0.9762;
-44.1000;0.0733;-0.9762;
-43.8000;0.0733;-0.9716;
-43.5000;0.0765;-0.9694;
-43.2000;0.0765;-0.9649;
-42.9000;0.0741;-0.9739;
-42.6000;0.0741;-0.9626;
-42.3000;0.0700;-0.9875;
-42.0000;0.0733;-0.9784;
-41.7000;0.0733;-0.9898;
-41.4000;0.0724;-0.9920;
-41.1000;0.0798;-0.9739;
-40.8000;0.0733;-0.9898;
-40.5000;0.0619;-1.0056;
-40.2000;0.0708;-0.9920;
-39.9000;0.0700;-0.9966;
-39.6000;0.0781;-0.9762;
-39.3000;0.0757;-0.9739;
-39.0000;0.0741;-0.9716;
-38.7000;0.0741;-0.9739;
-38.4000;0.0749;-0.9694;
-38.1000;0.0708;-0.9739;
-37.8000;0.0708;-0.9784;
-37.5000;0.0733;-0.9716;
-37.2000;0.0733;-0.9716;
-36.9000;0.0724;-0.9739;
-36.6000;0.0724;-0.9649;
-36.3000;0.0724;-0.9626;
-36.0000;0.0724;-0.9649;
-35.7000;0.0741;-0.9603;
-35.4000;0.0724;-0.9649;
-35.1000;0.0757;-0.9581;
-34.8000;0.0733;-0.9490;
-34.5000;0.0708;-0.9558;
-34.2000;0.0708;-0.9513;
-33.9000;0.0749;-0.9467;
-33.6000;0.0741;-0.9558;
-33.3000;0.0733;-0.9581;
-33.0000;0.0708;-0.9739;
-32.7000;0.0749;-0.9603;
-32.4000;0.0741;-0.9581;
-32.1000;0.0757;-0.9603;
-31.8000;0.0741;-0.9716;
-31.5000;0.0724;-0.9739;
-31.2000;0.0692;-0.9784;
-30.9000;0.0684;-0.9830;
-30.6000;0.0749;-0.9603;
-30.3000;0.0741;-0.9626;
-30.0000;0.0741;-0.9626;
-29.7000;0.0757;-0.9581;
-29.4000;0.0733;-0.9581;
-29.1000;0.0733;-0.9581;
-28.8000;0.0724;-0.9581;
-28.5000;0.0733;-0.9558;
-28.2000;0.0765;-0.9535;
-27.9000;0.0733;-0.9626;
-27.6000;0.0716;-0.9626;
-27.3000;0.0667;-0.9830;
-27.0000;0.0733;-0.9716;
-26.7000;0.0733;-0.9716;
-26.4000;0.0708;-0.9694;
-26.1000;0.0733;-0.9671;
-25.8000;0.0757;-0.9626;
-25.5000;0.0806;-0.9513;
-25.2000;0.0716;-0.9784;
-24.9000;0.0757;-0.9694;
-24.6000;0.0733;-0.9694;
-24.3000;0.0781;-0.9581;
-24.0000;0.0716;-0.9739;
-23.7000;0.0733;-0.9739;
-23.4000;0.0741;-0.9694;
-23.1000;0.0724;-0.9807;
-22.8000;0.0741;-0.9875;
-22.5000;0.0733;-0.9807;
-22.2000;0.0724;-0.9762;
-21.9000;0.0741;-0.9716;
-21.6000;0.0716;-0.9852;
-21.3000;0.0741;-0.9943;
-21.0000;0.0741;-0.9943;
-20.7000;0.0724;-1.0034;
-20.4000;0.0757;-0.9966;
-20.1000;0.0733;-0.9920;
-19.8000;0.0749;-0.9920;
-19.5000;0.0716;-0.9988;
-19.2000;0.0741;-0.9807;
-18.9000;0.0741;-0.9739;
-18.6000;0.0733;-0.9762;
-18.3000;0.0749;-0.9626;
-18.0000;0.0749;-0.9581;
-17.7000;0.0733;-0.9513;
-17.4000;0.0708;-0.9535;
-17.1000;0.0741;-0.9445;
-16.8000;0.0733;-0.9331;
-16.5000;0.0765;-0.9263;
-16.2000;0.0749;-0.9377;
-15.9000;0.0724;-0.9490;
-15.6000;0.0741;-0.9513;
-15.3000;0.0749;-0.9513;
-15.0000;0.0724;-0.9581;
-14.7000;0.0724;-0.9626;
-14.4000;0.0757;-0.9581;
-14.1000;0.0733;-0.9649;
-13.8000;0.0716;-0.9581;
-13.5000;0.0733;-0.9603;
-13.2000;0.0733;-0.9490;
-12.9000;0.0781;-0.9445;
-12.6000;0.0716;-0.9716;
-12.3000;0.0733;-0.9649;
-12.0000;0.0741;-0.9694;
-11.7000;0.0733;-0.9716;
-11.4000;0.0692;-0.9852;
-11.1000;0.0733;-0.9694;
-10.8000;0.0700;-0.9716;
-10.5000;0.0692;-0.9694;
-10.2000;0.0716;-0.9603;
-9.9000;0.0724;-0.9626;
-9.6000;0.0724;-0.9626;
-9.3000;0.0708;-0.9694;
-9.0000;0.0659;-0.9807;
-8.7000;0.0741;-0.9626;
-8.4000;0.0651;-0.9875;
-8.1000;0.0847;-0.9422;
-7.8000;0.0716;-0.9626;
-7.5000;0.0790;-0.9422;
-7.2000;0.0716;-0.9671;
-6.9000;0.0733;-0.9626;
-6.6000;0.0757;-0.9603;
-6.3000;0.0765;-0.9603;
-6.0000;0.0716;-0.9694;
-5.7000;0.0741;-0.9671;
-5.4000;0.0733;-0.9649;
-5.1000;0.0749;-0.9603;
-4.8000;0.0733;-0.9671;
-4.5000;0.0700;-0.9830;
-4.2000;0.0716;-0.9807;
-3.9000;0.0724;-0.9739;
-3.6000;0.0749;-0.9649;
-3.3000;0.0733;-0.9694;
-3.0000;0.0749;-0.9649;
-2.7000;0.0733;-0.9694;
-2.4000;0.0700;-0.9694;
-2.1000;0.0773;-0.9535;
-1.8000;0.0667;-0.9852;
-1.5000;0.0724;-0.9671;
-1.2000;0.0741;-0.9513;
-0.9000;0.0749;-0.9422;
-0.6000;0.0733;-0.9490;
-0.3000;0.0708;-0.9513;
0.0000;0.0708;-0.9513;
0.3000;0.0724;-0.9852;
0.6000;0.0724;-0.9716;
0.9000;0.0781;-0.9581;
1.2000;0.0773;-0.9467;
1.5000;0.0806;-0.9354;
1.8000;0.0814;-0.9263;
2.1000;0.0814;-0.9128;
2.4000;0.0814;-0.9060;
2.7000;0.0798;-0.9037;
3.0000;0.0830;-0.8924;
3.3000;0.0830;-0.8924;
3.6000;0.0855;-0.8901;
3.9000;0.0838;-0.8901;
4.2000;0.0790;-0.8992;
4.5000;0.0855;-0.8765;
4.8000;0.0838;-0.8833;
5.1000;0.0798;-0.8901;
5.4000;0.0814;-0.8878;
5.7000;0.0855;-0.8788;
6.0000;0.0830;-0.8743;
6.3000;0.0830;-0.8652;
6.6000;0.0871;-0.8493;
6.9000;0.0838;-0.8539;
7.2000;0.0871;-0.8516;
7.5000;0.0855;-0.8493;
7.8000;0.0855;-0.8448;
8.1000;0.0863;-0.8403;
8.4000;0.0855;-0.8471;
8.7000;0.0871;-0.8516;
9.0000;0.0814;-0.8720;
9.3000;0.0952;-0.8403;
9.6000;0.0838;-0.8675;
9.9000;0.0863;-0.8629;
10.2000;0.0871;-0.8584;
10.5000;0.0830;-0.8675;
10.8000;0.0863;-0.8607;
11.1000;0.0887;-0.8493;
11.4000;0.0912;-0.8425;
11.7000;0.0855;-0.8539;
12.0000;0.0822;-0.8675;
12.3000;0.0879;-0.8607;
12.6000;0.0871;-0.8629;
12.9000;0.0879;-0.8629;
13.2000;0.0871;-0.8607;
13.5000;0.0895;-0.8516;
13.8000;0.0887;-0.8493;
14.1000;0.0838;-0.8539;
14.4000;0.0863;-0.8539;
14.7000;0.0871;-0.8584;
15.0000;0.0887;-0.8561;
15.3000;0.0879;-0.8743;
15.6000;0.0920;-0.8629;
15.9000;0.0879;-0.8743;
16.2000;0.0879;-0.8743;
16.5000;0.0887;-0.8697;
16.8000;0.0871;-0.8765;
17.1000;0.0871;-0.8697;
17.4000;0.0733;-0.9105;
17.7000;0.0871;-0.8629;
18.0000;0.0838;-0.8652;
18.3000;0.0855;-0.8629;
18.6000;0.0838;-0.8720;
18.9000;0.0855;-0.8720;
19.2000;0.0904;-0.8584;
19.5000;0.0904;-0.8584;
19.8000;0.0855;-0.8720;
20.1000;0.1091;-0.8222;
20.4000;0.0904;-0.8607;
20.7000;0.0863;-0.8652;
21.0000;0.0830;-0.8788;
21.3000;0.0830;-0.8720;
21.6000;0.0863;-0.8675;
21.9000;0.0838;-0.8720;
22.2000;0.0887;-0.8629;
22.5000;0.0879;-0.8607;
22.8000;0.0847;-0.8675;
23.1000;0.0838;-0.8743;
23.4000;0.0879;-0.8539;
23.7000;0.0863;-0.8561;
24.0000;0.0863;-0.8425;
24.3000;0.0912;-0.8358;
24.6000;0.0863;-0.8448;
24.9000;0.0838;-0.8471;
25.2000;0.0855;-0.8471;
25.5000;0.0863;-0.8403;
25.8000;0.0879;-0.8403;
26.1000;0.0895;-0.8380;
26.4000;0.0863;-0.8675;
26.7000;0.0904;-0.8584;
27.0000;0.0838;-0.8765;
27.3000;0.0879;-0.8697;
27.6000;0.0895;-0.8561;
27.9000;0.0871;-0.8561;
28.2000;0.0855;-0.8584;
28.5000;0.0920;-0.8539;
28.8000;0.0863;-0.8697;
29.1000;0.0879;-0.8765;
29.4000;0.0838;-0.8901;
29.7000;0.0863;-0.8878;
30.0000;0.0879;-0.8743;
30.3000;0.0838;-0.8765;
30.6000;0.0871;-0.8652;
30.9000;0.0871;-0.8607;
31.2000;0.0887;-0.8539;
31.5000;0.0895;-0.8697;
31.8000;0.0871;-0.8788;
32.1000;0.0879;-0.8788;
32.4000;0.0855;-0.8788;
32.7000;0.0863;-0.8697;
33.0000;0.0863;-0.8607;
33.3000;0.0863;-0.8584;
33.6000;0.0871;-0.8607;
33.9000;0.0863;-0.8561;
34.2000;0.0879;-0.8539;
34.5000;0.0871;-0.8539;
34.8000;0.0871;-0.8607;
35.1000;0.0887;-0.8584;
35.4000;0.0790;-0.8833;
35.7000;0.0847;-0.8607;
36.0000;0.0863;-0.8607;
36.3000;0.0879;-0.8584;
36.6000;0.0912;-0.8516;
36.9000;0.0830;-0.8697;
37.2000;0.0912;-0.8493;
37.5000;0.0887;-0.8493;
37.8000;0.0863;-0.8516;
38.1000;0.0912;-0.8403;
38.4000;0.0830;-0.8561;
38.7000;0.1018;-0.8086;
39.0000;0.0895;-0.8448;
39.3000;0.0879;-0.8539;
39.6000;0.0944;-0.8380;
39.9000;0.0879;-0.8448;
40.2000;0.0879;-0.8380;
40.5000;0.0895;-0.8403;
40.8000;0.0838;-0.8629;
41.1000;0.0904;-0.8448;
41.4000;0.0871;-0.8584;
41.7000;0.0895;-0.8561;
42.0000;0.0790;-0.8856;
42.3000;0.0871;-0.8675;
42.6000;0.0863;-0.8743;
42.9000;0.0879;-0.8697;
43.2000;0.0928;-0.8652;
43.5000;0.0993;-0.8425;
43.8000;0.0871;-0.8629;
44.1000;0.0871;-0.8584;
44.4000;0.0781;-0.8833;
44.7000;0.0822;-0.8788;
45.0000;0.0855;-0.8743;
45.3000;0.0887;-0.8743;
45.6000;0.0887;-0.8765;
45.9000;0.0887;-0.8765;
46.2000;0.0855;-0.8946;
46.5000;0.0863;-0.8924;
46.8000;0.0887;-0.8833;
47.1000;0.0879;-0.8856;
47.4000;0.0895;-0.8878;
47.7000;0.0895;-0.8878;
48.0000;0.0879;-0.8946;
48.3000;0.0879;-0.8924;
48.6000;0.0855;-0.9037;
48.9000;0.0887;-0.8901;
49.2000;0.0879;-0.8810;
49.5000;0.0847;-0.8810;
49.8000;0.0871;-0.8765;
50.1000;0.0887;-0.8720;
50.4000;0.0977;-0.8561;
50.7000;0.0895;-0.8788;
51.0000;0.0887;-0.8856;
51.3000;0.1001;-0.8584;
51.6000;0.0871;-0.8901;
51.9000;0.0871;-0.8856;
52.2000;0.0806;-0.8969;
52.5000;0.0879;-0.8765;
52.8000;0.0871;-0.8743;
53.1000;0.0871;-0.8743;
53.4000;0.0912;-0.8697;
53.7000;0.0895;-0.8788;
54.0000;0.0855;-0.8856;
54.3000;0.0920;-0.8697;
54.6000;0.0863;-0.8833;
54.9000;0.0895;-0.8675;
55.2000;0.0871;-0.8675;
55.5000;0.0863;-0.8720;
55.8000;0.0879;-0.8720;
56.1000;0.0879;-0.8743;
56.4000;0.0879;-0.8765;
56.7000;0.0920;-0.8720;
57.0000;0.0855;-0.8833;
57.3000;0.0871;-0.8765;
57.6000;0.0887;-0.8539;
57.9000;0.0895;-0.8516;
58.2000;0.0879;-0.8539;
58.5000;0.0879;-0.8629;
58.8000;0.0887;-0.8607;
59.1000;0.0879;-0.8539;
59.4000;0.0806;-0.8810;
59.7000;0.0855;-0.8697;
60.0000;0.0830;-0.8788;
60.3000;0.0895;-0.8629;
60.6000;0.0895;-0.8720;
60.9000;0.0887;-0.8833;
61.2000;0.0863;-0.8788;
61.5000;0.0887;-0.8765;
61.8000;0.0879;-0.8856;
62.1000;0.0904;-0.8788;
62.4000;0.0871;-0.8833;
62.7000;0.0806;-0.9037;
63.0000;0.0928;-0.8697;
63.3000;0.0863;-0.8743;
63.6000;0.0879;-0.8743;
63.9000;0.0895;-0.8697;
64.2000;0.0879;-0.8720;
64.5000;0.0920;-0.8765;
64.8000;0.0871;-0.8833;
65.1000;0.0871;-0.8743;
65.4000;0.0887;-0.8584;
65.7000;0.0912;-0.8539;
66.0000;0.0904;-0.8448;
66.3000;0.0863;-0.8493;
66.6000;0.0887;-0.8471;
66.9000;0.0863;-0.8697;
67.2000;0.0912;-0.8652;
67.5000;0.0871;-0.8720;
67.8000;0.0879;-0.8720;
68.1000;0.0895;-0.8675;
68.4000;0.0806;-0.8833;
68.7000;0.0798;-0.8901;
69.0000;0.0879;-0.8697;
69.3000;0.0871;-0.8607;
69.6000;0.0871;-0.8652;
69.9000;0.0879;-0.8652;
70.2000;0.0847;-0.8720;
70.5000;0.0830;-0.8788;
70.8000;0.0895;-0.8584;
71.1000;0.0879;-0.8539;
71.4000;0.0887;-0.8516;
71.7000;0.0887;-0.8493;
72.0000;0.0879;-0.8516;
72.3000;0.0863;-0.8607;
72.6000;0.0887;-0.8607;
72.9000;0.0879;-0.8652;
73.2000;0.0830;-0.8765;
73.5000;0.0863;-0.8743;
73.8000;0.0871;-0.8788;
74.1000;0.0895;-0.8584;
74.4000;0.0871;-0.8675;
74.7000;0.0904;-0.8539;
75.0000;0.0879;-0.8539;
75.3000;0.0871;-0.8584;
75.6000;0.0879;-0.8652;
75.9000;0.0879;-0.8675;
76.2000;0.0871;-0.8629;
76.5000;0.0822;-0.8878;
76.8000;0.0904;-0.8743;
77.1000;0.0895;-0.8743;
77.4000;0.0871;-0.8788;
77.7000;0.0838;-0.8856;
78.0000;0.0887;-0.8765;
78.3000;0.0879;-0.8720;
78.6000;0.0887;-0.8697;
78.9000;0.0879;-0.8788;
79.2000;0.0863;-0.8833;
79.5000;0.0895;-0.8765;
79.8000;0.0879;-0.8810;
80.1000;0.0838;-0.8878;
80.4000;0.0887;-0.8675;
80.7000;0.0887;-0.8629;
81.0000;0.0887;-0.8607;
81.3000;0.0887;-0.8607;
81.6000;0.0912;-0.8561;
81.9000;0.0871;-0.8629;
82.2000;0.0887;-0.8539;
82.5000;0.0904;-0.8493;
82.8000;0.0871;-0.8516;
83.1000;0.0879;-0.8539;
83.4000;0.0863;-0.8675;
83.7000;0.0904;-0.8607;
84.0000;0.0871;-0.8720;
84.3000;0.0863;-0.8652;
84.6000;0.0879;-0.8629;
84.9000;0.0871;-0.8629;
85.2000;0.0912;-0.8471;
85.5000;0.0806;-0.8743;
85.8000;0.0879;-0.8629;
86.1000;0.0920;-0.8539;
86.4000;0.0895;-0.8561;
86.7000;0.0895;-0.8516;
87.0000;0.0887;-0.8539;
87.3000;0.0887;-0.8561;
87.6000;0.0887;-0.8629;
87.9000;0.0887;-0.8607;
88.2000;0.0904;-0.8697;
88.5000;0.0855;-0.8833;
88.8000;0.0773;-0.9037;
89.1000;0.0871;-0.8720;
89.4000;0.0904;-0.8675;
89.7000;0.0887;-0.8743;
90.0000;0.0863;-0.8810;
90.3000;0.0871;-0.8697;
90.6000;0.0895;-0.8539;
90.9000;0.0895;-0.8561;
91.2000;0.0920;-0.8516;
91.5000;0.0887;-0.8629;
91.8000;0.0871;-0.8629;
92.1000;0.0895;-0.8539;
92.4000;0.0920;-0.8471;
92.7000;0.0887;-0.8493;
93.0000;0.0920;-0.8448;
93.3000;0.0814;-0.8765;
93.6000;0.0863;-0.8561;
93.9000;0.0863;-0.8629;
94.2000;0.0871;-0.8629;
94.5000;0.0912;-0.8539;
94.8000;0.0904;-0.8561;
95.1000;0.0879;-0.8607;
95.4000;0.0887;-0.8561;
95.7000;0.0904;-0.8493;
96.0000;0.0895;-0.8539;
96.3000;0.0895;-0.8516;
96.6000;0.0887;-0.8561;
96.9000;0.0871;-0.8675;
97.2000;0.0895;-0.8561;
97.5000;0.0887;-0.8629;
97.8000;0.0855;-0.8675;
98.1000;0.0904;-0.8607;
98.4000;0.0895;-0.8629;
98.7000;0.0887;-0.8607;
99.0000;0.0798;-0.8878;
99.3000;0.0863;-0.8743;
99.6000;0.0879;-0.8675;
99.9000;0.0912;-0.8561;
100.2000;0.0895;-0.8607;
100.5000;0.0830;-0.8788;
100.8000;0.0855;-0.8675;
101.1000;0.0838;-0.8675;
101.4000;0.0969;-0.8312;
101.7000;0.0887;-0.8516;
102.0000;0.0912;-0.8471;
102.3000;0.0871;-0.8652;
102.6000;0.0879;-0.8652;
102.9000;0.0895;-0.8652;
103.2000;0.0830;-0.8833;
103.5000;0.0879;-0.8652;
103.8000;0.0879;-0.8652;
104.1000;0.0871;-0.8675;
104.4000;0.0871;-0.8697;
104.7000;0.0855;-0.8697;
105.0000;0.0887;-0.8584;
105.3000;0.0895;-0.8607;
105.6000;0.0879;-0.8720;
105.9000;0.0879;-0.8765;
106.2000;0.0904;-0.8675;
106.5000;0.0838;-0.8743;
106.8000;0.0895;-0.8652;
107.1000;0.0871;-0.8743;
107.4000;0.0920;-0.8652;
107.7000;0.0887;-0.8720;
108.0000;0.0879;-0.8675;
108.3000;0.0838;-0.8720;
108.6000;0.1009;-0.8403;
108.9000;0.0887;-0.8720;
109.2000;0.0895;-0.8652;
109.5000;0.0863;-0.8720;
109.8000;0.0879;-0.8629;
110.1000;0.0895;-0.8607;
110.4000;0.0895;-0.8561;
110.7000;0.0749;-0.8878;
111.0000;0.0863;-0.8652;
111.3000;0.0904;-0.8697;
111.6000;0.0912;-0.8788;
111.9000;0.0887;-0.8788;
112.2000;0.0895;-0.8788;
112.5000;0.0887;-0.8833;
112.8000;0.0895;-0.8856;
113.1000;0.0912;-0.8878;
113.4000;0.0920;-0.8856;
113.7000;0.0887;-0.8969;
114.0000;0.0871;-0.8924;
114.3000;0.0863;-0.8924;
114.6000;0.0879;-0.8833;
114.9000;0.0936;-0.8675;
115.2000;0.0993;-0.8516;
115.5000;0.0912;-0.8629;
115.8000;0.0863;-0.8675;
116.1000;0.0904;-0.8471;
116.4000;0.0944;-0.8471;
116.7000;0.0904;-0.8539;
117.0000;0.0895;-0.8539;
117.3000;0.0904;-0.8471;
117.6000;0.0887;-0.8561;
117.9000;0.0895;-0.8493;
118.2000;0.0887;-0.8471;
118.5000;0.0887;-0.8516;
118.8000;0.0895;-0.8493;
119.1000;0.0912;-0.8561;
119.4000;0.0887;-0.8629;
119.7000;0.0887;-0.8607;
120.0000;0.0904;-0.8539;
120.3000;0.0895;-0.8516;
120.6000;0.0871;-0.8629;
120.9000;0.0912;-0.8539;
121.2000;0.0912;-0.8539;
121.5000;0.0904;-0.8516;
121.8000;0.0887;-0.8448;
122.1000;0.1001;-0.8222;
122.4000;0.0895;-0.8471;
122.7000;0.0904;-0.8425;
123.0000;0.0879;-0.8471;
123.3000;0.0871;-0.8425;
123.6000;0.0895;-0.8335;
123.9000;0.0928;-0.8267;
124.2000;0.0765;-0.8675;
124.5000;0.0895;-0.8358;
124.8000;0.0879;-0.8471;
125.1000;0.0855;-0.8584;
125.4000;0.0830;-0.8629;
125.7000;0.0887;-0.8471;
126.0000;0.0855;-0.8493;
126.3000;0.0871;-0.8561;
126.6000;0.0904;-0.8448;
126.9000;0.0887;-0.8493;
127.2000;0.0904;-0.8516;
127.5000;0.0912;-0.8493;
127.8000;0.0904;-0.8448;
128.1000;0.0863;-0.8493;
128.4000;0.0895;-0.8425;
128.7000;0.0871;-0.8516;
129.0000;0.0871;-0.8516;
129.3000;0.0879;-0.8493;
129.6000;0.0887;-0.8425;
129.9000;0.0879;-0.8448;
130.2000;0.0895;-0.8471;
130.5000;0.0773;-0.8697;
130.8000;0.0887;-0.8516;
131.1000;0.0895;-0.8425;
131.4000;0.0887;-0.8539;
131.7000;0.0985;-0.8358;
132.0000;0.0863;-0.8629;
132.3000;0.0895;-0.8493;
132.6000;0.0936;-0.8493;
132.9000;0.0879;-0.8652;
133.2000;0.0871;-0.8629;
133.5000;0.0977;-0.8358;
133.8000;0.0977;-0.8358;
134.1000;0.0887;-0.8607;
134.4000;0.0871;-0.8607;
134.7000;0.0838;-0.8675;
135.0000;0.0871;-0.8561;
135.3000;0.0904;-0.8471;
135.6000;0.0879;-0.8448;
135.9000;0.0749;-0.8788;
136.2000;0.0904;-0.8471;
136.5000;0.0863;-0.8697;
136.8000;0.0887;-0.8652;
137.1000;0.0904;-0.8607;
137.4000;0.0871;-0.8720;
137.7000;0.0806;-0.8969;
138.0000;0.0895;-0.8765;
138.3000;0.0822;-0.8992;
138.6000;0.0863;-0.8810;
138.9000;0.0871;-0.8765;
139.2000;0.0895;-0.8697;
139.5000;0.0863;-0.8720;
139.8000;0.0912;-0.8629;
140.1000;0.0920;-0.8675;
140.4000;0.0920;-0.8584;
140.7000;0.0871;-0.8652;
141.0000;0.0847;-0.8720;
141.3000;0.0887;-0.8629;
141.6000;0.0871;-0.8629;
141.9000;0.0904;-0.8516;
142.2000;0.0887;-0.8539;
142.5000;0.0871;-0.8584;
142.8000;0.0904;-0.8539;
143.1000;0.0912;-0.8539;
143.4000;0.0944;-0.8561;
143.7000;0.0871;-0.8743;
144.0000;0.0773;-0.8969;
144.3000;0.0993;-0.8425;
144.6000;0.0838;-0.8810;
144.9000;0.0887;-0.8675;
145.2000;0.0895;-0.8697;
145.5000;0.0895;-0.8652;
145.8000;0.0863;-0.8743;
146.1000;0.0879;-0.8629;
146.4000;0.0879;-0.8607;
146.7000;0.0887;-0.8425;
147.0000;0.0879;-0.8380;
147.3000;0.0847;-0.8493;
147.6000;0.0895;-0.8222;
147.9000;0.0920;-0.8176;
148.2000;0.0863;-0.8290;
148.5000;0.0912;-0.8154;
148.8000;0.0879;-0.8335;
149.1000;0.0944;-0.8176;
149.4000;0.1018;-0.8040;
149.7000;0.0887;-0.8312;
150.0000;0.0895;-0.8358;
150.3000;0.0871;-0.8493;
150.6000;0.0871;-0.8448;
150.9000;0.0895;-0.8358;
151.2000;0.0879;-0.8335;
151.5000;0.0920;-0.8335;
151.8000;0.0920;-0.8358;
152.1000;0.0912;-0.8403;
152.4000;0.0879;-0.8561;
152.7000;0.0912;-0.8493;
153.0000;0.0904;-0.8516;
153.3000;0.0912;-0.8561;
153.6000;0.0920;-0.8493;
153.9000;0.0830;-0.8765;
154.2000;0.0871;-0.8720;
154.5000;0.0904;-0.8652;
154.8000;0.0855;-0.8697;
155.1000;0.0904;-0.8584;
155.4000;0.0887;-0.8607;
155.7000;0.0879;-0.8720;
156.0000;0.0961;-0.8561;
156.3000;0.0879;-0.8652;
156.6000;0.0887;-0.8652;
156.9000;0.0912;-0.8561;
157.2000;0.0920;-0.8584;
157.5000;0.0904;-0.8584;
157.8000;0.0822;-0.8629;
158.1000;0.0887;-0.8471;
158.4000;0.0920;-0.8448;
158.7000;0.0895;-0.8539;
159.0000;0.0895;-0.8561;
159.3000;0.0863;-0.8765;
159.6000;0.0871;-0.8675;
159.9000;0.0855;-0.8652;
160.2000;0.0830;-0.8856;
160.5000;0.0879;-0.8720;
160.8000;0.0879;-0.8720;
161.1000;0.0863;-0.8720;
161.4000;0.0895;-0.8652;
161.7000;0.0952;-0.8448;
162.0000;0.0863;-0.8697;
162.3000;0.0928;-0.8471;
162.6000;0.0773;-0.8924;
162.9000;0.0863;-0.8675;
163.2000;0.0879;-0.8720;
163.5000;0.0895;-0.8629;
163.8000;0.0904;-0.8448;
164.1000;0.0871;-0.8516;
164.4000;0.0879;-0.8493;
164.7000;0.0912;-0.8448;
165.0000;0.0887;-0.8493;
165.3000;0.0895;-0.8403;
165.6000;0.0847;-0.8607;
165.9000;0.0895;-0.8448;
166.2000;0.0928;-0.8403;
166.5000;0.0904;-0.8516;
166.8000;0.0879;-0.8539;
167.1000;0.0863;-0.8629;
167.4000;0.0806;-0.8810;
167.7000;0.0895;-0.8629;
168.0000;0.0879;-0.8561;
168.3000;0.0773;-0.8856;
168.6000;0.0920;-0.8516;
168.9000;0.0887;-0.8652;
169.2000;0.0871;-0.8697;
169.5000;0.0879;-0.8675;
169.8000;0.0912;-0.8675;
170.1000;0.0887;-0.8743;
170.4000;0.0822;-0.8856;
170.7000;0.0887;-0.8697;
171.0000;0.0871;-0.8607;
171.3000;0.0879;-0.8539;
171.6000;0.0887;-0.8493;
171.9000;0.0871;-0.8471;
172.2000;0.0936;-0.8448;
172.5000;0.0879;-0.8539;
172.8000;0.0895;-0.8516;
173.1000;0.0904;-0.8448;
173.4000;0.0879;-0.8471;
173.7000;0.0895;-0.8425;
174.0000;0.0920;-0.8403;
174.3000;0.0871;-0.8539;
174.6000;0.0879;-0.8561;
174.9000;0.0904;-0.8539;
175.2000;0.0904;-0.8493;
175.5000;0.0895;-0.8516;
175.8000;0.0895;-0.8539;
176.1000;0.0847;-0.8629;
176.4000;0.0904;-0.8607;
176.7000;0.0871;-0.8629;
177.0000;0.0977;-0.8380;
177.3000;0.0912;-0.8539;
177.6000;0.0912;-0.8539;
177.9000;0.0871;-0.8652;
178.2000;0.0936;-0.8516;
178.5000;0.0887;-0.8675;
178.8000;0.0895;-0.8697;
179.1000;0.0895;-0.8629;
179.4000;0.0887;-0.8697;
179.7000;0.0895;-0.8675;
180.0000;0.0887;-0.8810;
180.3000;0.0871;-0.8833;
180.6000;0.0912;-0.8788;
180.9000;0.0871;-0.8810;
181.2000;0.0887;-0.8697;
181.5000;0.0887;-0.8720;
181.8000;0.0887;-0.8743;
182.1000;0.0936;-0.8607;
182.4000;0.0912;-0.8629;
182.7000;0.0855;-0.8697;
183.0000;0.0879;-0.8652;
183.3000;0.0904;-0.8516;
183.6000;0.0814;-0.8788;
183.9000;0.0895;-0.8561;
184.2000;0.0887;-0.8607;
184.5000;0.0806;-0.8765;
184.8000;0.0887;-0.8516;
185.1000;0.0879;-0.8652;
185.4000;0.0944;-0.8516;
185.7000;0.0944;-0.8448;
186.0000;0.0895;-0.8516;
186.3000;0.0977;-0.8358;
186.6000;0.0895;-0.8561;
186.9000;0.0904;-0.8493;
187.2000;0.0863;-0.8584;
187.5000;0.0904;-0.8516;
187.8000;0.0895;-0.8607;
188.1000;0.0920;-0.8561;
188.4000;0.0871;-0.8697;
188.7000;0.0871;-0.8652;
189.0000;0.0904;-0.8561;
189.3000;0.0879;-0.8493;
189.6000;0.0871;-0.8607;
189.9000;0.0887;-0.8471;
190.2000;0.0879;-0.8493;
190.5000;0.0879;-0.8493;
190.8000;0.0895;-0.8403;
191.1000;0.0920;-0.8358;
191.4000;0.0895;-0.8358;
191.7000;0.0879;-0.8380;
192.0000;0.0895;-0.8380;
192.3000;0.0977;-0.8199;
192.6000;0.0928;-0.8335;
192.9000;0.0895;-0.8448;
193.2000;0.0904;-0.8448;
193.5000;0.0871;-0.8539;
193.8000;0.0904;-0.8448;
194.1000;0.0887;-0.8471;
194.4000;0.0887;-0.8516;
194.7000;0.0895;-0.8471;
195.0000;0.0879;-0.8539;
195.3000;0.0895;-0.8493;
195.6000;0.0887;-0.8471;
195.9000;0.0863;-0.8471;
196.2000;0.0887;-0.8448;
196.5000;0.0887;-0.8380;
196.8000;0.0912;-0.8290;
197.1000;0.0863;-0.8380;
197.4000;0.0904;-0.8290;
197.7000;0.0887;-0.8312;
198.0000;0.0969;-0.8108;
198.3000;0.0887;-0.8358;
198.6000;0.0871;-0.8516;
198.9000;0.0904;-0.8403;
199.2000;0.0887;-0.8403;
199.5000;0.0895;-0.8358;
199.8000;0.0879;-0.8471;
200.1000;0.0928;-0.8358;
200.4000;0.0904;-0.8403;
200.7000;0.0871;-0.8539;
201.0000;0.0895;-0.8516;
201.3000;0.0895;-0.8539;
201.6000;0.0895;-0.8584;
201.9000;0.0895;-0.8629;
202.2000;0.0904;-0.8652;
202.5000;0.0879;-0.8743;
202.8000;0.0895;-0.8743;
203.1000;0.0887;-0.8743;
203.4000;0.0904;-0.8652;
203.7000;0.0879;-0.8720;
204.0000;0.0871;-0.8720;
204.3000;0.0887;-0.8720;
204.6000;0.0887;-0.8629;
204.9000;0.0879;-0.8607;
205.2000;0.0887;-0.8561;
205.5000;0.0977;-0.8312;
205.8000;0.0887;-0.8607;
206.1000;0.0871;-0.8629;
206.4000;0.0790;-0.8856;
206.7000;0.0904;-0.8584;
207.0000;0.0912;-0.8584;
207.3000;0.0822;-0.8788;
207.6000;0.0863;-0.8765;
207.9000;0.0863;-0.8810;
208.2000;0.0879;-0.8675;
208.5000;0.0879;-0.8675;
208.8000;0.0887;-0.8697;
209.1000;0.0879;-0.8697;
209.4000;0.0879;-0.8697;
209.7000;0.0887;-0.8697;
210.0000;0.0871;-0.8675;
210.3000;0.0961;-0.8516;
210.6000;0.0895;-0.8675;
210.9000;0.0887;-0.8743;
211.2000;0.0912;-0.8697;
211.5000;0.0912;-0.8584;
211.8000;0.0895;-0.8629;
212.1000;0.0887;-0.8629;
212.4000;0.0895;-0.8607;
212.7000;0.0879;-0.8697;
213.0000;0.0895;-0.8539;
213.3000;0.0904;-0.8471;
213.6000;0.0871;-0.8607;
213.9000;0.0871;-0.8652;
214.2000;0.0895;-0.8697;
214.5000;0.0904;-0.8675;
214.8000;0.0879;-0.8788;
215.1000;0.0895;-0.8765;
215.4000;0.0912;-0.8675;
215.7000;0.0887;-0.8788;
216.0000;0.0871;-0.8833;
216.3000;0.0830;-0.8924;
216.6000;0.0969;-0.8516;
216.9000;0.0904;-0.8629;
217.2000;0.0928;-0.8516;
217.5000;0.0912;-0.8607;
217.8000;0.0887;-0.8607;
218.1000;0.0855;-0.8720;
218.4000;0.0871;-0.8652;
218.7000;0.0895;-0.8584;
219.0000;0.0895;-0.8607;
219.3000;0.0904;-0.8607;
219.6000;0.0887;-0.8652;
219.9000;0.0895;-0.8607;
220.2000;0.0895;-0.8675;
220.5000;0.0912;-0.8607;
220.8000;0.0895;-0.8652;
221.1000;0.0952;-0.8584;
221.4000;0.0887;-0.8743;
221.7000;0.0920;-0.8697;
222.0000;0.0863;-0.8810;
222.3000;0.0912;-0.8675;
222.6000;0.0904;-0.8652;
222.9000;0.0879;-0.8743;
223.2000;0.0887;-0.8810;
223.5000;0.0952;-0.8607;
223.8000;0.0887;-0.8652;
224.1000;0.0871;-0.8629;
224.4000;0.0952;-0.8516;
224.7000;0.0887;-0.8629;
225.0000;0.0904;-0.8584;
225.3000;0.0895;-0.8584;
225.6000;0.0944;-0.8516;
225.9000;0.0904;-0.8675;
226.2000;0.0887;-0.8743;
226.5000;0.0871;-0.8788;
226.8000;0.0969;-0.8471;
227.1000;0.0887;-0.8720;
227.4000;0.0871;-0.8720;
227.7000;0.0904;-0.8652;
228.0000;0.0936;-0.8584;
228.3000;0.0887;-0.8607;
228.6000;0.0904;-0.8607;
228.9000;0.0895;-0.8539;
229.2000;0.0871;-0.8584;
229.5000;0.0920;-0.8425;
229.8000;0.0895;-0.8539;
230.1000;0.0879;-0.8539;
230.4000;0.0814;-0.8652;
230.7000;0.0904;-0.8516;
231.0000;0.0904;-0.8516;
231.3000;0.0879;-0.8448;
231.6000;0.0887;-0.8539;
231.9000;0.0887;-0.8471;
232.2000;0.1009;-0.8199;
232.5000;0.0895;-0.8539;
232.8000;0.0887;-0.8493;
233.1000;0.0912;-0.8403;
233.4000;0.0920;-0.8380;
233.7000;0.0904;-0.8471;
234.0000;0.0887;-0.8471;
234.3000;0.0879;-0.8493;
234.6000;0.0912;-0.8493;
234.9000;0.0895;-0.8516;
235.2000;0.0895;-0.8652;
235.5000;0.0887;-0.8607;
235.8000;0.0895;-0.8516;
236.1000;0.0904;-0.8425;
236.4000;0.0887;-0.8471;
236.7000;0.0895;-0.8493;
237.0000;0.0904;-0.8493;
237.3000;0.0879;-0.8629;
237.6000;0.0912;-0.8471;
237.9000;0.1001;-0.8222;
238.2000;0.0887;-0.8493;
238.5000;0.0961;-0.8290;
238.8000;0.0887;-0.8607;
239.1000;0.0806;-0.8878;
239.4000;0.0895;-0.8629;
239.7000;0.0904;-0.8584;
240.0000;0.0920;-0.8607;
240.3000;0.0781;-0.8901;
240.6000;0.0904;-0.8516;
240.9000;0.0895;-0.8629;
241.2000;0.0781;-0.8992;
241.5000;0.0871;-0.8788;
241.8000;0.0871;-0.8765;
242.1000;0.0887;-0.8788;
242.4000;0.0871;-0.8788;
242.7000;0.0912;-0.8675;
243.0000;0.0904;-0.8697;
243.3000;0.0912;-0.8765;
243.6000;0.0887;-0.8833;
243.9000;0.0879;-0.8856;
244.2000;0.0879;-0.8924;
244.5000;0.0920;-0.8833;
244.8000;0.0928;-0.8833;
245.1000;0.0952;-0.8629;
245.4000;0.0887;-0.8743;
245.7000;0.0879;-0.8720;
246.0000;0.0838;-0.8743;
246.3000;0.0912;-0.8607;
246.6000;0.0904;-0.8652;
246.9000;0.0904;-0.8607;
247.2000;0.0847;-0.8675;
247.5000;0.0904;-0.8539;
247.8000;0.0895;-0.8493;
248.1000;0.0912;-0.8471;
248.4000;0.0904;-0.8516;
248.7000;0.0887;-0.8675;
249.0000;0.0822;-0.8810;
249.3000;0.0895;-0.8629;
249.6000;0.0961;-0.8403;
249.9000;0.0952;-0.8425;
250.2000;0.0879;-0.8675;
250.5000;0.0928;-0.8516;
250.8000;0.0928;-0.8471;
251.1000;0.0895;-0.8539;
251.4000;0.0879;-0.8584;
251.7000;0.0993;-0.8312;
252.0000;0.0887;-0.8675;
252.3000;0.0928;-0.8584;
252.6000;0.0895;-0.8697;
252.9000;0.0912;-0.8675;
253.2000;0.0920;-0.8629;
253.5000;0.0928;-0.8607;
253.8000;0.0904;-0.8743;
254.1000;0.0904;-0.8810;
254.4000;0.0871;-0.8856;
254.7000;0.0912;-0.8697;
255.0000;0.0912;-0.8584;
255.3000;0.0928;-0.8471;
255.6000;0.0879;-0.8675;
255.9000;0.0904;-0.8675;
256.2000;0.0904;-0.8856;
256.5000;0.0887;-0.8833;
256.8000;0.0895;-0.8765;
257.1000;0.0904;-0.8675;
257.4000;0.0904;-0.8720;
257.7000;0.0887;-0.8810;
258.0000;0.0928;-0.8788;
258.3000;0.0993;-0.8652;
258.6000;0.0887;-0.8946;
258.9000;0.0887;-0.8878;
259.2000;0.0887;-0.8788;
259.5000;0.0895;-0.8788;
259.8000;0.0912;-0.8697;
260.1000;0.0887;-0.8788;
260.4000;0.0895;-0.8743;
260.7000;0.0887;-0.8878;
261.0000;0.0879;-0.8969;
261.3000;0.0887;-0.8878;
261.6000;0.0904;-0.8856;
261.9000;0.0977;-0.8743;
262.2000;0.0977;-0.8675;
262.5000;0.0895;-0.8901;
262.8000;0.0912;-0.8856;
263.1000;0.0969;-0.8675;
263.4000;0.0912;-0.8765;
263.7000;0.0904;-0.8765;
264.0000;0.1058;-0.8471;
264.3000;0.0879;-0.8901;
264.6000;0.0887;-0.8833;
264.9000;0.0887;-0.8788;
265.2000;0.0887;-0.8652;
265.5000;0.0928;-0.8516;
265.8000;0.0879;-0.8584;
266.1000;0.0871;-0.8561;
266.4000;0.0847;-0.8675;
266.7000;0.0895;-0.8561;
267.0000;0.0952;-0.8493;
267.3000;0.0920;-0.8516;
267.6000;0.0871;-0.8652;
267.9000;0.0887;-0.8561;
268.2000;0.0912;-0.8516;
268.5000;0.0904;-0.8629;
268.8000;0.0895;-0.8675;
269.1000;0.0904;-0.8697;
269.4000;0.0855;-0.8878;
269.7000;0.0847;-0.8743;
270.0000;0.0895;-0.8652;
270.3000;0.0895;-0.8607;
270.6000;0.0863;-0.8697;
270.9000;0.0887;-0.8675;
271.2000;0.0887;-0.8743;
271.5000;0.0765;-0.9014;
271.8000;0.0847;-0.8901;
272.1000;0.0798;-0.8992;
272.4000;0.0944;-0.8675;
272.7000;0.0912;-0.8743;
273.0000;0.0912;-0.8788;
273.3000;0.0871;-0.8878;
273.6000;0.0798;-0.9014;
273.9000;0.0895;-0.8697;
274.2000;0.0912;-0.8493;
274.5000;0.0904;-0.8629;
274.8000;0.0855;-0.8788;
275.1000;0.0904;-0.8652;
275.4000;0.0895;-0.8629;
275.7000;0.0904;-0.8539;
276.0000;0.0895;-0.8629;
276.3000;0.0871;-0.8675;
276.6000;0.0912;-0.8561;
276.9000;0.0912;-0.8561;
277.2000;0.0879;-0.8675;
277.5000;0.0969;-0.8516;
277.8000;0.0904;-0.8652;
278.1000;0.0847;-0.8720;
278.4000;0.0887;-0.8561;
278.7000;0.0977;-0.8471;
279.0000;0.0912;-0.8652;
279.3000;0.0773;-0.9014;
279.6000;0.0912;-0.8629;
279.9000;0.0895;-0.8629;
280.2000;0.0912;-0.8561;
280.5000;0.0822;-0.8856;
280.8000;0.0887;-0.8697;
281.1000;0.0871;-0.8675;
281.4000;0.0879;-0.8561;
281.7000;0.0863;-0.8584;
282.0000;0.0765;-0.8878;
282.3000;0.0912;-0.8516;
282.6000;0.0887;-0.8629;
282.9000;0.0887;-0.8584;
283.2000;0.0895;-0.8607;
283.5000;0.0871;-0.8584;
283.8000;0.0895;-0.8539;
284.1000;0.0863;-0.8584;
284.4000;0.0904;-0.8471;
284.7000;0.0904;-0.8471;
285.0000;0.0904;-0.8539;
285.3000;0.0855;-0.8561;
285.6000;0.0879;-0.8448;
285.9000;0.0928;-0.8380;
286.2000;0.0879;-0.8516;
286.5000;0.0871;-0.8584;
286.8000;0.0895;-0.8561;
287.1000;0.0904;-0.8539;
287.4000;0.0895;-0.8629;
287.7000;0.0895;-0.8448;
288.0000;0.0895;-0.8403;
288.3000;0.0879;-0.8516;
288.6000;0.0904;-0.8539;
288.9000;0.0895;-0.8448;
289.2000;0.0879;-0.8448;
289.5000;0.0977;-0.8267;
289.8000;0.0879;-0.8448;
290.1000;0.0895;-0.8493;
290.4000;0.0912;-0.8425;
290.7000;0.0895;-0.8403;
291.0000;0.0936;-0.8358;
291.3000;0.0855;-0.8629;
291.6000;0.0871;-0.8516;
291.9000;0.0887;-0.8607;
292.2000;0.0912;-0.8629;
292.5000;0.0895;-0.8629;
292.8000;0.0887;-0.8720;
293.1000;0.0863;-0.8810;
293.4000;0.0863;-0.8788;
293.7000;0.0863;-0.8788;
294.0000;0.0847;-0.8810;
294.3000;0.0863;-0.8697;
294.6000;0.0879;-0.8675;
294.9000;0.0912;-0.8584;
295.2000;0.0798;-0.8788;
295.5000;0.0952;-0.8448;
295.8000;0.0887;-0.8629;
296.1000;0.0871;-0.8675;
296.4000;0.0871;-0.8652;
296.7000;0.0912;-0.8539;
297.0000;0.0904;-0.8561;
297.3000;0.0895;-0.8539;
297.6000;0.0871;-0.8584;
297.9000;0.0879;-0.8629;
298.2000;0.0871;-0.8720;
298.5000;0.0904;-0.8607;
298.8000;0.0904;-0.8607;
299.1000;0.0895;-0.8629;
299.4000;0.0912;-0.8607;
299.7000;0.0871;-0.8584;
300.0000;0.0871;-0.8493;
300.3000;0.0871;-0.8584;
300.6000;0.0928;-0.8516;
300.9000;0.0895;-0.8607;
301.2000;0.0863;-0.8561;
301.5000;0.0871;-0.8720;
301.8000;0.0895;-0.8675;
302.1000;0.0879;-0.8720;
302.4000;0.0904;-0.8675;
302.7000;0.0904;-0.8652;
303.0000;0.0904;-0.8652;
303.3000;0.0822;-0.8878;
303.6000;0.0904;-0.8697;
303.9000;0.0912;-0.8743;
304.2000;0.0847;-0.8833;
304.5000;0.0895;-0.8720;
304.8000;0.0904;-0.8675;
305.1000;0.0904;-0.8607;
305.4000;0.0863;-0.8652;
305.7000;0.0895;-0.8675;
306.0000;0.0895;-0.8675;
306.3000;0.0895;-0.8697;
306.6000;0.0887;-0.8765;
306.9000;0.0895;-0.8765;
307.2000;0.0887;-0.8788;
307.5000;0.0936;-0.8652;
307.8000;0.0879;-0.8743;
308.1000;0.0912;-0.8629;
308.4000;0.0904;-0.8652;
308.7000;0.0879;-0.8675;
309.0000;0.0838;-0.8743;
309.3000;0.0887;-0.8629;
309.6000;0.0904;-0.8584;
309.9000;0.0895;-0.8584;
310.2000;0.0895;-0.8493;
310.5000;0.0871;-0.8607;
310.8000;0.0887;-0.8516;
311.1000;0.0912;-0.8425;
311.4000;0.0895;-0.8403;
311.7000;0.0879;-0.8403;
312.0000;0.0895;-0.8448;
312.3000;0.0895;-0.8471;
312.6000;0.0904;-0.8425;
312.9000;0.0887;-0.8471;
313.2000;0.0904;-0.8516;
313.5000;0.0887;-0.8539;
313.8000;0.0887;-0.8539;
314.1000;0.0887;-0.8539;
314.4000;0.0936;-0.8471;
314.7000;0.0887;-0.8516;
315.0000;0.0871;-0.8584;
315.3000;0.0887;-0.8516;
315.6000;0.0977;-0.8290;
315.9000;0.0904;-0.8493;
316.2000;0.0904;-0.8516;
316.5000;0.0969;-0.8335;
316.8000;0.0977;-0.8290;
317.1000;0.0912;-0.8516;
317.4000;0.0904;-0.8516;
317.7000;0.0920;-0.8584;
318.0000;0.0871;-0.8607;
318.3000;0.0912;-0.8539;
318.6000;0.0920;-0.8448;
318.9000;0.0895;-0.8561;
319.2000;0.0904;-0.8539;
319.5000;0.0920;-0.8493;
319.8000;0.0904;-0.8493;
320.1000;0.0887;-0.8561;
320.4000;0.0887;-0.8539;
320.7000;0.0895;-0.8539;
321.0000;0.0904;-0.8516;
321.3000;0.0904;-0.8607;
321.6000;0.0895;-0.8629;
321.9000;0.0904;-0.8471;
322.2000;0.0871;-0.8516;
322.5000;0.0887;-0.8403;
322.8000;0.0879;-0.8358;
323.1000;0.0895;-0.8425;
323.4000;0.0863;-0.8561;
323.7000;0.0895;-0.8516;
324.0000;0.0879;-0.8539;
324.3000;0.0887;-0.8539;
324.6000;0.0904;-0.8516;
324.9000;0.0895;-0.8493;
325.2000;0.0887;-0.8516;
325.5000;0.0879;-0.8493;
325.8000;0.0895;-0.8493;
326.1000;0.0904;-0.8380;
326.4000;0.0904;-0.8425;
326.7000;0.0879;-0.8516;
327.0000;0.0895;-0.8516;
327.3000;0.0887;-0.8493;
327.6000;0.0887;-0.8561;
327.9000;0.0904;-0.8607;
328.2000;0.0887;-0.8607;
328.5000;0.0912;-0.8448;
328.8000;0.0895;-0.8493;
329.1000;0.0912;-0.8448;
329.4000;0.0887;-0.8516;
329.7000;0.0895;-0.8539;
330.0000;0.0887;-0.8561;
330.3000;0.0871;-0.8652;
330.6000;0.0887;-0.8539;
330.9000;0.0895;-0.8471;
331.2000;0.0887;-0.8516;
331.5000;0.0977;-0.8358;
331.8000;0.0887;-0.8652;
332.1000;0.0895;-0.8675;
332.4000;0.0912;-0.8675;
332.7000;0.0904;-0.8765;
333.0000;0.0895;-0.8720;
333.3000;0.0871;-0.8810;
333.6000;0.0912;-0.8675;
333.9000;0.0887;-0.8652;
334.2000;0.0887;-0.8584;
334.5000;0.1018;-0.8380;
334.8000;0.0879;-0.8697;
335.1000;0.0912;-0.8629;
335.4000;0.0879;-0.8652;
335.7000;0.0871;-0.8561;
336.0000;0.0830;-0.8607;
336.3000;0.0871;-0.8516;
336.6000;0.0887;-0.8493;
336.9000;0.0863;-0.8584;
337.2000;0.0895;-0.8516;
337.5000;0.0887;-0.8539;
337.8000;0.0895;-0.8471;
338.1000;0.0879;-0.8448;
338.4000;0.0887;-0.8403;
338.7000;0.0895;-0.8335;
339.0000;0.0912;-0.8312;
339.3000;0.0887;-0.8403;
339.6000;0.0895;-0.8290;
339.9000;0.0879;-0.8244;
340.2000;0.0855;-0.8380;
340.5000;0.0904;-0.8290;
340.8000;0.0887;-0.8290;
341.1000;0.0871;-0.8425;
341.4000;0.0895;-0.8335;
341.7000;0.0879;-0.8425;
342.0000;0.0863;-0.8425;
342.3000;0.0920;-0.8244;
342.6000;0.0895;-0.8290;
342.9000;0.0904;-0.8244;
343.2000;0.0895;-0.8199;
343.5000;0.0871;-0.8267;
343.8000;0.0904;-0.8290;
344.1000;0.0895;-0.8312;
344.4000;0.0847;-0.8425;
344.7000;0.0887;-0.8425;
345.0000;0.0887;-0.8471;
345.3000;0.0887;-0.8539;
345.6000;0.0879;-0.8584;
345.9000;0.0879;-0.8675;
346.2000;0.0887;-0.8584;
346.5000;0.0912;-0.8493;
346.8000;0.0887;-0.8516;
347.1000;0.0895;-0.8539;
347.4000;0.0920;-0.8471;
347.7000;0.0912;-0.8471;
348.0000;0.0879;-0.8629;
348.3000;0.0904;-0.8584;
348.6000;0.0887;-0.8493;
348.9000;0.0895;-0.8425;
349.2000;0.0887;-0.8471;
349.5000;0.0879;-0.8516;
349.8000;0.0887;-0.8539;
350.1000;0.0977;-0.8335;
350.4000;0.0855;-0.8675;
350.7000;0.1018;-0.8380;
351.0000;0.0904;-0.8584;
351.3000;0.0912;-0.8584;
351.6000;0.0904;-0.8561;
351.9000;0.0879;-0.8584;
352.2000;0.0904;-0.8516;
352.5000;0.0928;-0.8539;
352.8000;0.0928;-0.8584;
353.1000;0.0969;-0.8403;
353.4000;0.0879;-0.8629;
353.7000;0.0895;-0.8584;
354.0000;0.0879;-0.8629;
354.3000;0.0879;-0.8607;
354.6000;0.0879;-0.8561;
354.9000;0.0871;-0.8629;
355.2000;0.0895;-0.8584;
355.5000;0.0936;-0.8471;
355.8000;0.0904;-0.8607;
356.1000;0.0928;-0.8584;
356.4000;0.0969;-0.8471;
356.7000;0.0879;-0.8697;
357.0000;0.0879;-0.8629;
357.3000;0.0798;-0.8924;
357.6000;0.0895;-0.8675;
357.9000;0.0928;-0.8493;
358.2000;0.0904;-0.8516;
358.5000;0.0887;-0.8539;
358.8000;0.0969;-0.8358;
359.1000;0.0879;-0.8516;
359.4000;0.0895;-0.8561;
359.7000;0.0904;-0.8539;
360.0000;0.0879;-0.8561;
360.3000;0.0904;-0.8425;
360.6000;0.0928;-0.8335;
360.9000;0.0879;-0.8425;
361.2000;0.0887;-0.8448;
361.5000;0.0895;-0.8448;
361.8000;0.0895;-0.8471;
362.1000;0.0961;-0.8267;
362.4000;0.0830;-0.8607;
362.7000;0.0887;-0.8493;
363.0000;0.0847;-0.8516;
363.3000;0.0944;-0.8335;
363.6000;0.0887;-0.8516;
363.9000;0.0895;-0.8539;
364.2000;0.0879;-0.8539;
364.5000;0.0871;-0.8539;
364.8000;0.0887;-0.8471;
365.1000;0.0838;-0.8561;
365.4000;0.0887;-0.8403;
365.7000;0.0944;-0.8335;
366.0000;0.0879;-0.8516;
366.3000;0.0895;-0.8516;
366.6000;0.0912;-0.8403;
366.9000;0.0944;-0.8312;
367.2000;0.0904;-0.8380;
367.5000;0.0895;-0.8425;
367.8000;0.0912;-0.8493;
368.1000;0.0879;-0.8652;
368.4000;0.0904;-0.8652;
368.7000;0.0887;-0.8652;
369.0000;0.0887;-0.8675;
369.3000;0.0895;-0.8607;
369.6000;0.0887;-0.8584;
369.9000;0.0912;-0.8561;
370.2000;0.0920;-0.8516;
370.5000;0.0879;-0.8629;
370.8000;0.0895;-0.8584;
371.1000;0.0879;-0.8561;
371.4000;0.0814;-0.8720;
371.7000;0.0871;-0.8539;
372.0000;0.0928;-0.8471;
372.3000;0.0912;-0.8584;
372.6000;0.0920;-0.8584;
372.9000;0.0912;-0.8675;
373.2000;0.0936;-0.8607;
373.5000;0.0961;-0.8539;
373.8000;0.0879;-0.8720;
374.1000;0.0887;-0.8720;
374.4000;0.0904;-0.8652;
374.7000;0.0887;-0.8607;
375.0000;0.0871;-0.8629;
375.3000;0.0887;-0.8561;
375.6000;0.0887;-0.8539;
375.9000;0.0838;-0.8607;
376.2000;0.0895;-0.8539;
376.5000;0.0895;-0.8561;
376.8000;0.0887;-0.8607;
377.1000;0.0904;-0.8425;
377.4000;0.0887;-0.8516;
377.7000;0.0855;-0.8584;
378.0000;0.0895;-0.8516;
378.3000;0.0895;-0.8448;
378.6000;0.0895;-0.8493;
378.9000;0.0806;-0.8743;
379.2000;0.0879;-0.8561;
379.5000;0.0936;-0.8335;
379.8000;0.0961;-0.8335;
380.1000;0.0887;-0.8607;
380.4000;0.0985;-0.8358;
380.7000;0.0895;-0.8561;
381.0000;0.0895;-0.8584;
381.3000;0.0912;-0.8539;
381.6000;0.0895;-0.8629;
381.9000;0.0887;-0.8561;
382.2000;0.0904;-0.8493;
382.5000;0.0895;-0.8493;
382.8000;0.0887;-0.8358;
383.1000;0.0887;-0.8403;
383.4000;0.0879;-0.8425;
383.7000;0.0895;-0.8358;
384.0000;0.0887;-0.8425;
384.3000;0.0904;-0.8448;
384.6000;0.0887;-0.8539;
384.9000;0.0887;-0.8516;
385.2000;0.0904;-0.8448;
385.5000;0.0879;-0.8516;
385.8000;0.0863;-0.8607;
386.1000;0.0879;-0.8607;
386.4000;0.0895;-0.8584;
386.7000;0.0879;-0.8652;
387.0000;0.0879;-0.8584;
387.3000;0.0904;-0.8516;
387.6000;0.0871;-0.8629;
387.9000;0.0952;-0.8471;
388.2000;0.0904;-0.8539;
388.5000;0.0904;-0.8516;
388.8000;0.0879;-0.8629;
389.1000;0.0887;-0.8561;
389.4000;0.0879;-0.8607;
389.7000;0.0887;-0.8561;
390.0000;0.0920;-0.8425;
390.3000;0.0912;-0.8448;
390.6000;0.0895;-0.8584;
390.9000;0.0969;-0.8290;
391.2000;0.0912;-0.8471;
391.5000;0.0887;-0.8539;
391.8000;0.0871;-0.8584;
392.1000;0.0895;-0.8539;
392.4000;0.0863;-0.8561;
392.7000;0.0920;-0.8561;
393.0000;0.0887;-0.8561;
393.3000;0.0912;-0.8471;
393.6000;0.0798;-0.8675;
393.9000;0.0871;-0.8539;
394.2000;0.0904;-0.8539;
394.5000;0.0936;-0.8448;
394.8000;0.0879;-0.8675;
395.1000;0.0871;-0.8720;
395.4000;0.0871;-0.8720;
395.7000;0.0879;-0.8675;
396.0000;0.0895;-0.8720;
396.3000;0.0887;-0.8675;
396.6000;0.0904;-0.8720;
396.9000;0.0928;-0.8720;
397.2000;0.0855;-0.8924;
397.5000;0.0863;-0.8878;
397.8000;0.0887;-0.8833;
398.1000;0.0855;-0.8810;
398.4000;0.0863;-0.8788;
398.7000;0.0912;-0.8607;
399.0000;0.0912;-0.8584;
399.3000;0.0904;-0.8629;
399.6000;0.0912;-0.8720;
399.9000;0.0904;-0.8720;
400.2000;0.0879;-0.8720;
400.5000;0.0895;-0.8720;
400.8000;0.0895;-0.8720;
401.1000;0.0895;-0.8629;
401.4000;0.0871;-0.8629;
401.7000;0.0887;-0.8561;
402.0000;0.0887;-0.8584;
402.3000;0.0879;-0.8493;
402.6000;0.0895;-0.8493;
402.9000;0.0879;-0.8516;
403.2000;0.0863;-0.8448;
403.5000;0.0928;-0.8335;
403.8000;0.0895;-0.8403;
404.1000;0.0879;-0.8380;
404.4000;0.0904;-0.8335;
404.7000;0.0879;-0.8425;
405.0000;0.0895;-0.8425;
405.3000;0.0887;-0.8471;
405.6000;0.0887;-0.8448;
405.9000;0.0887;-0.8471;
406.2000;0.0920;-0.8380;
406.5000;0.0887;-0.8493;
406.8000;0.0863;-0.8561;
407.1000;0.0912;-0.8516;
407.4000;0.0936;-0.8493;
407.7000;0.0904;-0.8607;
408.0000;0.0879;-0.8652;
408.3000;0.0895;-0.8652;
408.6000;0.0969;-0.8403;
408.9000;0.0895;-0.8516;
409.2000;0.0879;-0.8629;
409.5000;0.0863;-0.8675;
409.8000;0.0887;-0.8675;
410.1000;0.0961;-0.8539;
410.4000;0.0838;-0.8878;
410.7000;0.0944;-0.8448;
411.0000;0.0895;-0.8629;
411.3000;0.0936;-0.8493;
411.6000;0.0855;-0.8743;
411.9000;0.0879;-0.8743;
412.2000;0.0879;-0.8788;
412.5000;0.0912;-0.8765;
412.8000;0.0895;-0.8810;
413.1000;0.0993;-0.8516;
413.4000;0.0904;-0.8720;
413.7000;0.0912;-0.8743;
414.0000;0.0887;-0.8810;
414.3000;0.0912;-0.8810;
414.6000;0.0904;-0.8878;
414.9000;0.0904;-0.8810;
415.2000;0.0936;-0.8720;
415.5000;0.0879;-0.8878;
415.8000;0.0887;-0.8833;
416.1000;0.0895;-0.8810;
416.4000;0.0904;-0.8765;
416.7000;0.0904;-0.8810;
417.0000;0.0879;-0.8833;
417.3000;0.0895;-0.8743;
417.6000;0.0961;-0.8539;
417.9000;0.0904;-0.8675;
418.2000;0.0879;-0.8697;
418.5000;0.0912;-0.8697;
418.8000;0.0895;-0.8743;
419.1000;0.0904;-0.8697;
419.4000;0.0887;-0.8743;
419.7000;0.0879;-0.8788;
420.0000;0.0895;-0.8788;
420.3000;0.0904;-0.8788;
420.6000;0.0895;-0.8810;
420.9000;0.0838;-0.8969;
421.2000;0.0904;-0.8765;
421.5000;0.0920;-0.8697;
421.8000;0.0895;-0.8697;
422.1000;0.0895;-0.8720;
422.4000;0.0895;-0.8629;
422.7000;0.0920;-0.8516;
423.0000;0.0847;-0.8652;
423.3000;0.0838;-0.8720;
423.6000;0.0879;-0.8697;
423.9000;0.0904;-0.8629;
424.2000;0.0928;-0.8539;
424.5000;0.0895;-0.8516;
424.8000;0.0887;-0.8539;
425.1000;0.0887;-0.8561;
425.4000;0.0887;-0.8539;
425.7000;0.0871;-0.8584;
426.0000;0.0879;-0.8584;
426.3000;0.0822;-0.8675;
426.6000;0.0847;-0.8607;
426.9000;0.0871;-0.8607;
427.2000;0.0895;-0.8561;
427.5000;0.0741;-0.8992;
427.8000;0.0895;-0.8697;
428.1000;0.0904;-0.8607;
428.4000;0.0847;-0.8833;
428.7000;0.0920;-0.8720;
429.0000;0.0895;-0.8765;
429.3000;0.0952;-0.8607;
429.6000;0.0904;-0.8810;
429.9000;0.0928;-0.8878;
430.2000;0.0871;-0.8924;
430.5000;0.0928;-0.8697;
430.8000;0.0879;-0.8810;
431.1000;0.0887;-0.8788;
431.4000;0.0904;-0.8878;
431.7000;0.0904;-0.8833;
432.0000;0.0887;-0.8901;
432.3000;0.0895;-0.8788;
432.6000;0.0904;-0.8810;
432.9000;0.0904;-0.8924;
433.2000;0.0895;-0.8969;
433.5000;0.0887;-0.9105;
433.8000;0.0928;-0.8810;
434.1000;0.0781;-0.9128;
434.4000;0.0879;-0.8833;
434.7000;0.0879;-0.8765;
435.0000;0.0895;-0.8720;
435.3000;0.0895;-0.8675;
435.6000;0.0830;-0.8878;
435.9000;0.0887;-0.8788;
436.2000;0.0887;-0.8743;
436.5000;0.0847;-0.8743;
436.8000;0.0912;-0.8652;
437.1000;0.0887;-0.8607;
437.4000;0.0887;-0.8607;
437.7000;0.0920;-0.8607;
438.0000;0.0895;-0.8584;
438.3000;0.0904;-0.8561;
438.6000;0.0895;-0.8629;
438.9000;0.0887;-0.8697;
439.2000;0.0887;-0.8743;
439.5000;0.0863;-0.8810;
439.8000;0.0879;-0.8743;
440.1000;0.0895;-0.8765;
440.4000;0.0969;-0.8607;
440.7000;0.0904;-0.8720;
441.0000;0.0904;-0.8720;
441.3000;0.0904;-0.8720;
441.6000;0.0936;-0.8652;
441.9000;0.0895;-0.8810;
442.2000;0.0879;-0.8856;
442.5000;0.0871;-0.8810;
442.8000;0.0887;-0.8720;
443.1000;0.0912;-0.8607;
443.4000;0.0838;-0.8833;
443.7000;0.0912;-0.8539;
444.0000;0.0887;-0.8629;
444.3000;0.0863;-0.8720;
444.6000;0.0904;-0.8675;
444.9000;0.0871;-0.8720;
445.2000;0.0871;-0.8697;
445.5000;0.0887;-0.8697;
445.8000;0.0887;-0.8720;
446.1000;0.0879;-0.8675;
446.4000;0.0871;-0.8697;
446.7000;0.0879;-0.8561;
447.0000;0.0879;-0.8607;
447.3000;0.0895;-0.8584;
447.6000;0.0879;-0.8584;
447.9000;0.0887;-0.8607;
448.2000;0.0904;-0.8539;
448.5000;0.0944;-0.8471;
448.8000;0.0904;-0.8448;
449.1000;0.0904;-0.8493;
449.4000;0.0871;-0.8607;
449.7000;0.0904;-0.8493;
450.0000;0.0838;-0.8629;
450.3000;0.0969;-0.8335;
450.6000;0.0887;-0.8629;
450.9000;0.0895;-0.8652;
451.2000;0.0855;-0.8675;
451.5000;0.0838;-0.8652;
451.8000;0.0912;-0.8584;
452.1000;0.0904;-0.8584;
452.4000;0.0879;-0.8675;
452.7000;0.0904;-0.8629;
453.0000;0.0912;-0.8607;
453.3000;0.0952;-0.8516;
453.6000;0.0887;-0.8720;
453.9000;0.0871;-0.8697;
454.2000;0.0904;-0.8697;
454.5000;0.0838;-0.8765;
454.8000;0.0887;-0.8675;
455.1000;0.0871;-0.8607;
455.4000;0.0920;-0.8493;
455.7000;0.0879;-0.8652;
456.0000;0.0838;-0.8743;
456.3000;0.0904;-0.8629;
456.6000;0.0765;-0.8992;
456.9000;0.0904;-0.8652;
457.2000;0.0928;-0.8652;
457.5000;0.0904;-0.8675;
457.8000;0.0895;-0.8743;
458.1000;0.0773;-0.8969;
458.4000;0.0928;-0.8561;
458.7000;0.0790;-0.8901;
459.0000;0.1018;-0.8312;
459.3000;0.0879;-0.8675;
459.6000;0.0936;-0.8584;
459.9000;0.0920;-0.8675;
460.2000;0.0879;-0.8743;
460.5000;0.0871;-0.8810;
460.8000;0.0895;-0.8810;
461.1000;0.0765;-0.9105;
461.4000;0.0871;-0.8788;
461.7000;0.0904;-0.8629;
462.0000;0.0895;-0.8743;
462.3000;0.0912;-0.8765;
462.6000;0.0895;-0.8833;
462.9000;0.0863;-0.8878;
463.2000;0.0887;-0.8878;
463.5000;0.0936;-0.8720;
463.8000;0.0863;-0.8833;
464.1000;0.0887;-0.8743;
464.4000;0.0863;-0.8720;
464.7000;0.0904;-0.8629;
465.0000;0.0855;-0.8788;
465.3000;0.0887;-0.8675;
465.6000;0.0822;-0.8924;
465.9000;0.0895;-0.8697;
466.2000;0.0879;-0.8652;
466.5000;0.0904;-0.8652;
466.8000;0.0887;-0.8629;
467.1000;0.0773;-0.8946;
467.4000;0.0904;-0.8652;
467.7000;0.0920;-0.8561;
468.0000;0.0863;-0.8652;
468.3000;0.0887;-0.8539;
468.6000;0.0879;-0.8629;
468.9000;0.0887;-0.8629;
469.2000;0.0969;-0.8471;
469.5000;0.0895;-0.8697;
469.8000;0.0895;-0.8629;
470.1000;0.0920;-0.8629;
470.4000;0.0887;-0.8697;
470.7000;0.0912;-0.8629;
471.0000;0.0879;-0.8788;
471.3000;0.0879;-0.8743;
471.6000;0.0838;-0.8878;
471.9000;0.0871;-0.8833;
472.2000;0.0904;-0.8720;
472.5000;0.0969;-0.8561;
472.8000;0.0765;-0.9082;
473.1000;0.0871;-0.8810;
473.4000;0.0912;-0.8675;
473.7000;0.0871;-0.8697;
474.0000;0.0895;-0.8720;
474.3000;0.0887;-0.8765;
474.6000;0.0895;-0.8697;
474.9000;0.0904;-0.8629;
475.2000;0.0904;-0.8652;
475.5000;0.0887;-0.8720;
475.8000;0.0887;-0.8720;
476.1000;0.0904;-0.8743;
476.4000;0.0855;-0.8946;
476.7000;0.0879;-0.8810;
477.0000;0.0887;-0.8697;
477.3000;0.0887;-0.8675;
477.6000;0.0912;-0.8607;
477.9000;0.0871;-0.8607;
478.2000;0.0887;-0.8561;
478.5000;0.0847;-0.8607;
478.8000;0.0895;-0.8493;
479.1000;0.0879;-0.8561;
479.4000;0.0879;-0.8539;
479.7000;0.0912;-0.8516;
480.0000;0.0879;-0.8629;
480.3000;0.0887;-0.8720;
480.6000;0.0879;-0.8788;
480.9000;0.0887;-0.8788;
481.2000;0.0904;-0.8697;
481.5000;0.0904;-0.8720;
481.8000;0.0887;-0.8765;
482.1000;0.0912;-0.8810;
482.4000;0.0895;-0.8833;
482.7000;0.0904;-0.8878;
483.0000;0.0912;-0.8810;
483.3000;0.0887;-0.8901;
483.6000;0.0871;-0.8924;
483.9000;0.0912;-0.8810;
484.2000;0.0920;-0.8788;
484.5000;0.0904;-0.8833;
484.8000;0.0895;-0.8856;
485.1000;0.0928;-0.8924;
485.4000;0.0904;-0.9014;
485.7000;0.0887;-0.9082;
486.0000;0.0847;-0.9105;
486.3000;0.0879;-0.8992;
486.6000;0.0838;-0.9082;
486.9000;0.0879;-0.8992;
487.2000;0.0904;-0.8946;
487.5000;0.0863;-0.8924;
487.8000;0.0879;-0.8901;
488.1000;0.0969;-0.8765;
488.4000;0.0855;-0.8992;
488.7000;0.0936;-0.8788;
489.0000;0.0895;-0.8924;
489.3000;0.0928;-0.8856;
489.6000;0.0904;-0.8969;
489.9000;0.0912;-0.8946;
490.2000;0.0871;-0.9060;
490.5000;0.0895;-0.9014;
490.8000;0.0895;-0.9060;
491.1000;0.0887;-0.9105;
491.4000;0.0887;-0.9014;
491.7000;0.0887;-0.9014;
492.0000;0.0887;-0.8969;
492.3000;0.0895;-0.8946;
492.6000;0.0863;-0.8946;
492.9000;0.0879;-0.8924;
493.2000;0.0814;-0.9060;
493.5000;0.0920;-0.8833;
493.8000;0.0912;-0.8901;
494.1000;0.0936;-0.8856;
494.4000;0.0887;-0.8992;
494.7000;0.0895;-0.9060;
495.0000;0.0895;-0.9014;
495.3000;0.0904;-0.8992;
495.6000;0.0871;-0.9082;
495.9000;0.0952;-0.8833;
496.2000;0.0879;-0.8901;
496.5000;0.0879;-0.8901;
496.8000;0.0912;-0.8856;
497.1000;0.0871;-0.9105;
497.4000;0.0977;-0.8901;
497.7000;0.0904;-0.8992;
498.0000;0.0871;-0.9037;
498.3000;0.0977;-0.8833;
498.6000;0.0895;-0.8969;
498.9000;0.0879;-0.8924;
499.2000;0.0879;-0.8946;
499.5000;0.0904;-0.8946;
499.8000;0.0830;-0.9082;
500.1000;0.0912;-0.8878;
500.4000;0.0920;-0.8924;
500.7000;0.0887;-0.9037;
501.0000;0.0887;-0.8969;
501.3000;0.0887;-0.8969;
501.6000;0.0855;-0.9037;
501.9000;0.0895;-0.8946;
502.2000;0.0895;-0.8992;
502.5000;0.0993;-0.8810;
502.8000;0.0904;-0.9014;
503.1000;0.0912;-0.8924;
503.4000;0.0879;-0.8946;
503.7000;0.0814;-0.9128;
504.0000;0.0879;-0.8969;
504.3000;0.0904;-0.8856;
504.6000;0.0847;-0.8946;
504.9000;0.0863;-0.8878;
505.2000;0.0871;-0.8878;
505.5000;0.0920;-0.8765;
505.8000;0.0895;-0.8743;
506.1000;0.0887;-0.8788;
506.4000;0.0887;-0.8810;
506.7000;0.0904;-0.8856;
507.0000;0.0887;-0.8901;
507.3000;0.0871;-0.8878;
507.6000;0.0879;-0.8856;
507.9000;0.0879;-0.8992;
508.2000;0.0855;-0.8946;
508.5000;0.0887;-0.8878;
508.8000;0.0904;-0.8743;
509.1000;0.0961;-0.8584;
509.4000;0.0912;-0.8675;
509.7000;0.0863;-0.8833;
510.0000;0.1034;-0.8448;
510.3000;0.1034;-0.8290;
510.6000;0.0887;-0.8720;
510.9000;0.0887;-0.8675;
511.2000;0.0904;-0.8697;
511.5000;0.0904;-0.8810;
511.8000;0.0912;-0.8856;
512.1000;0.0961;-0.8765;
512.4000;0.0863;-0.9014;
512.7000;0.0879;-0.9037;
513.0000;0.0887;-0.8878;
513.3000;0.0904;-0.8833;
513.6000;0.0879;-0.8856;
513.9000;0.0895;-0.8743;
514.2000;0.0961;-0.8561;
514.5000;0.0863;-0.8833;
514.8000;0.0879;-0.8765;
515.1000;0.0912;-0.8743;
515.4000;0.0871;-0.8697;
515.7000;0.0936;-0.8471;
516.0000;0.0895;-0.8561;
516.3000;0.0855;-0.8607;
516.6000;0.0895;-0.8493;
516.9000;0.0879;-0.8561;
517.2000;0.0952;-0.8448;
517.5000;0.0895;-0.8652;
517.8000;0.0936;-0.8539;
518.1000;0.0871;-0.8584;
518.4000;0.0822;-0.8720;
518.7000;0.0879;-0.8584;
519.0000;0.1042;-0.8222;
519.3000;0.0887;-0.8675;
519.6000;0.0895;-0.8652;
519.9000;0.0895;-0.8675;
520.2000;0.0887;-0.8697;
520.5000;0.0879;-0.8720;
520.8000;0.0895;-0.8652;
521.1000;0.0863;-0.8765;
521.4000;0.0863;-0.8697;
521.7000;0.0887;-0.8720;
522.0000;0.0855;-0.8743;
522.3000;0.0879;-0.8607;
522.6000;0.0912;-0.8539;
522.9000;0.0871;-0.8652;
523.2000;0.0879;-0.8493;
523.5000;0.0887;-0.8493;
523.8000;0.0847;-0.8652;
524.1000;0.0928;-0.8448;
524.4000;0.0895;-0.8607;
524.7000;0.0920;-0.8607;
525.0000;0.0887;-0.8697;
525.3000;0.0855;-0.8743;
525.6000;0.0969;-0.8561;
525.9000;0.0887;-0.8743;
526.2000;0.0936;-0.8652;
526.5000;0.0798;-0.8992;
526.8000;0.0895;-0.8720;
527.1000;0.0928;-0.8561;
527.4000;0.0895;-0.8607;
527.7000;0.0879;-0.8765;
528.0000;0.0879;-0.8788;
528.3000;0.0895;-0.8810;
528.6000;0.0814;-0.9014;
528.9000;0.0887;-0.8765;
529.2000;0.0912;-0.8607;
529.5000;0.0920;-0.8493;
529.8000;0.0904;-0.8584;
530.1000;0.0871;-0.8675;
530.4000;0.0879;-0.8584;
530.7000;0.0879;-0.8629;
531.0000;0.0887;-0.8697;
531.3000;0.0879;-0.8652;
531.6000;0.0879;-0.8720;
531.9000;0.0887;-0.8720;
532.2000;0.0871;-0.8765;
532.5000;0.0887;-0.8833;
532.8000;0.0887;-0.8856;
533.1000;0.0895;-0.8788;
533.4000;0.0814;-0.8992;
533.7000;0.0904;-0.8833;
534.0000;0.0887;-0.8878;
534.3000;0.0920;-0.8765;
534.6000;0.0904;-0.8856;
534.9000;0.0887;-0.8946;
535.2000;0.0969;-0.8720;
535.5000;0.0879;-0.8856;
535.8000;0.0895;-0.8810;
536.1000;0.0879;-0.8878;
536.4000;0.0855;-0.8901;
536.7000;0.0879;-0.8856;
537.0000;0.0879;-0.8833;
537.3000;0.0887;-0.8856;
537.6000;0.0887;-0.8788;
537.9000;0.0879;-0.8788;
538.2000;0.0887;-0.8720;
538.5000;0.0887;-0.8697;
538.8000;0.0904;-0.8607;
539.1000;0.0871;-0.8743;
539.4000;0.0887;-0.8675;
539.7000;0.0895;-0.8629;
540.0000;0.0944;-0.8493;
540.3000;0.0838;-0.8697;
540.6000;0.0895;-0.8561;
540.9000;0.0895;-0.8607;
541.2000;0.0895;-0.8584;
541.5000;0.0904;-0.8561;
541.8000;0.0879;-0.8584;
542.1000;0.0887;-0.8697;
542.4000;0.0895;-0.8720;
542.7000;0.0879;-0.8788;
543.0000;0.0887;-0.8697;
543.3000;0.0879;-0.8697;
543.6000;0.0895;-0.8720;
543.9000;0.0904;-0.8720;
544.2000;0.0879;-0.8697;
544.5000;0.0920;-0.8697;
544.8000;0.0920;-0.8697;
545.1000;0.0912;-0.8788;
545.4000;0.0969;-0.8697;
545.7000;0.0879;-0.8810;
546.0000;0.0904;-0.8720;
546.3000;0.0887;-0.8720;
546.6000;0.0904;-0.8584;
546.9000;0.0904;-0.8652;
547.2000;0.0912;-0.8652;
547.5000;0.0912;-0.8675;
547.8000;0.0814;-0.8992;
548.1000;0.0822;-0.8992;
548.4000;0.0895;-0.8833;
548.7000;0.0895;-0.8765;
549.0000;0.0879;-0.8743;
549.3000;0.0887;-0.8720;
549.6000;0.0895;-0.8743;
549.9000;0.0879;-0.8720;
550.2000;0.0871;-0.8720;
550.5000;0.0855;-0.8743;
550.8000;0.0879;-0.8652;
551.1000;0.0928;-0.8561;
551.4000;0.0904;-0.8652;
551.7000;0.0969;-0.8493;
552.0000;0.0879;-0.8675;
552.3000;0.0895;-0.8629;
552.6000;0.0830;-0.8901;
552.9000;0.0838;-0.8878;
553.2000;0.0879;-0.8697;
553.5000;0.0904;-0.8652;
553.8000;0.0912;-0.8675;
554.1000;0.0895;-0.8788;
554.4000;0.0879;-0.8765;
554.7000;0.0887;-0.8743;
555.0000;0.0936;-0.8584;
555.3000;0.0895;-0.8675;
555.6000;0.0879;-0.8697;
555.9000;0.0920;-0.8516;
556.2000;0.0904;-0.8471;
556.5000;0.0895;-0.8584;
556.8000;0.0887;-0.8607;
557.1000;0.0904;-0.8516;
557.4000;0.0904;-0.8561;
557.7000;0.0887;-0.8561;
558.0000;0.0887;-0.8584;
558.3000;0.0895;-0.8607;
558.6000;0.0895;-0.8516;
558.9000;0.0895;-0.8539;
559.2000;0.0855;-0.8629;
559.5000;0.0887;-0.8584;
559.8000;0.0879;-0.8675;
560.1000;0.0904;-0.8493;
560.4000;0.0912;-0.8493;
560.7000;0.0871;-0.8539;
561.0000;0.1026;-0.8222;
561.3000;0.0928;-0.8539;
561.6000;0.0822;-0.8856;
561.9000;0.0879;-0.8697;
562.2000;0.0879;-0.8743;
562.5000;0.0920;-0.8629;
562.8000;0.0887;-0.8697;
563.1000;0.0879;-0.8675;
563.4000;0.0879;-0.8652;
563.7000;0.0887;-0.8652;
564.0000;0.0895;-0.8629;
564.3000;0.0895;-0.8539;
564.6000;0.0912;-0.8539;
564.9000;0.0904;-0.8561;
565.2000;0.0904;-0.8561;
565.5000;0.0904;-0.8561;
565.8000;0.0871;-0.8629;
566.1000;0.0879;-0.8720;
566.4000;0.0887;-0.8743;
566.7000;0.0887;-0.8765;
567.0000;0.0904;-0.8629;
567.3000;0.0887;-0.8629;
567.6000;0.0904;-0.8516;
567.9000;0.0895;-0.8516;
568.2000;0.0912;-0.8516;
568.5000;0.0912;-0.8425;
568.8000;0.0904;-0.8380;
569.1000;0.0936;-0.8290;
569.4000;0.0887;-0.8380;
569.7000;0.0887;-0.8335;
570.0000;0.0928;-0.8335;
570.3000;0.0912;-0.8358;
570.6000;0.0904;-0.8358;
570.9000;0.0847;-0.8516;
571.2000;0.0879;-0.8516;
571.5000;0.0887;-0.8516;
571.8000;0.0904;-0.8493;
572.1000;0.0879;-0.8561;
572.4000;0.0798;-0.8652;
572.7000;0.0887;-0.8584;
573.0000;0.0879;-0.8584;
573.3000;0.0879;-0.8561;
573.6000;0.0863;-0.8561;
573.9000;0.0895;-0.8448;
574.2000;0.0830;-0.8652;
574.5000;0.0904;-0.8539;
574.8000;0.0895;-0.8629;
575.1000;0.0887;-0.8629;
575.4000;0.0904;-0.8539;
575.7000;0.0936;-0.8448;
576.0000;0.0887;-0.8607;
576.3000;0.0912;-0.8561;
576.6000;0.0887;-0.8584;
576.9000;0.0822;-0.8743;
577.2000;0.0822;-0.8788;
577.5000;0.0904;-0.8607;
577.8000;0.0904;-0.8561;
578.1000;0.0895;-0.8584;
578.4000;0.0838;-0.8697;
578.7000;0.0936;-0.8561;
579.0000;0.0847;-0.8788;
579.3000;0.0904;-0.8607;
579.6000;0.0863;-0.8720;
579.9000;0.0904;-0.8607;
580.2000;0.1001;-0.8425;
580.5000;0.0969;-0.8425;
580.8000;0.0887;-0.8629;
581.1000;0.0920;-0.8584;
581.4000;0.0895;-0.8652;
581.7000;0.0855;-0.8675;
582.0000;0.0790;-0.8788;
582.3000;0.0790;-0.8788;
582.6000;0.0887;-0.8539;
582.9000;0.0895;-0.8471;
583.2000;0.0952;-0.8448;
583.5000;0.0879;-0.8561;
583.8000;0.0863;-0.8652;
584.1000;0.0895;-0.8539;
584.4000;0.0895;-0.8539;
584.7000;0.0895;-0.8516;
585.0000;0.0985;-0.8335;
585.3000;0.0879;-0.8561;
585.6000;0.0912;-0.8471;
585.9000;0.0904;-0.8539;
586.2000;0.0912;-0.8493;
586.5000;0.0912;-0.8448;
586.8000;0.0912;-0.8493;
587.1000;0.0855;-0.8607;
587.4000;0.0871;-0.8539;
587.7000;0.0887;-0.8425;
588.0000;0.0871;-0.8471;
588.3000;0.0879;-0.8539;
588.6000;0.0863;-0.8561;
588.9000;0.0912;-0.8425;
589.2000;0.0912;-0.8448;
589.5000;0.0912;-0.8493;
589.8000;0.0855;-0.8675;
590.1000;0.0879;-0.8539;
590.4000;0.0912;-0.8607;
590.7000;0.0895;-0.8720;
591.0000;0.0904;-0.8697;
591.3000;0.0895;-0.8720;
591.6000;0.0887;-0.8697;
591.9000;0.0895;-0.8584;
592.2000;0.0879;-0.8652;
592.5000;0.0855;-0.8720;
592.8000;0.0895;-0.8584;
593.1000;0.0887;-0.8539;
593.4000;0.0961;-0.8290;
593.7000;0.0895;-0.8471;
594.0000;0.0912;-0.8425;
594.3000;0.0879;-0.8425;
594.6000;0.0912;-0.8471;
594.9000;0.0871;-0.8516;
595.2000;0.0904;-0.8425;
595.5000;0.0904;-0.8403;
595.8000;0.0904;-0.8448;
596.1000;0.0895;-0.8516;
596.4000;0.0993;-0.8290;
596.7000;0.0936;-0.8425;
597.0000;0.0871;-0.8516;
597.3000;0.0920;-0.8425;
597.6000;0.0887;-0.8493;
597.9000;0.0904;-0.8425;
598.2000;0.0879;-0.8471;
598.5000;0.0879;-0.8493;
598.8000;0.0887;-0.8516;
599.1000;0.0879;-0.8471;
599.4000;0.1026;-0.8086;
599.7000;0.0855;-0.8561;
600.0000;0.0879;-0.8539;
600.3000;0.0879;-0.8584;
600.6000;0.0895;-0.8584;
600.9000;0.0904;-0.8516;
601.2000;0.0879;-0.8697;
601.5000;0.0879;-0.8788;
601.8000;0.0871;-0.8901;
602.1000;0.0855;-0.9014;
602.4000;0.0830;-0.9060;
602.7000;0.0847;-0.9150;
603.0000;0.0814;-0.9263;
603.3000;0.0855;-0.9309;
603.6000;0.0830;-0.9354;
603.9000;0.0838;-0.9354;
604.2000;0.0871;-0.9286;
604.5000;0.0790;-0.9558;
604.8000;0.0871;-0.9422;
605.1000;0.0822;-0.9581;
605.4000;0.0806;-0.9626;
605.7000;0.0822;-0.9581;
606.0000;0.0879;-0.9535;
606.3000;0.0830;-0.9671;
606.6000;0.0830;-0.9649;
606.9000;0.0830;-0.9649;
607.2000;0.0757;-0.9830;
607.5000;0.0822;-0.9762;
607.8000;0.0814;-0.9830;
608.1000;0.0904;-0.9581;
608.4000;0.0814;-0.9852;
608.7000;0.0814;-0.9852;
609.0000;0.0773;-0.9898;
609.3000;0.0822;-0.9739;
609.6000;0.0611;-1.0215;
609.9000;0.0847;-0.9535;
610.2000;0.0798;-0.9739;
610.5000;0.0798;-0.9784;
610.8000;0.0806;-0.9739;
611.1000;0.0798;-0.9807;
611.4000;0.0838;-0.9852;
611.7000;0.0806;-0.9807;
612.0000;0.0814;-0.9784;
612.3000;0.0806;-0.9852;
612.6000;0.0814;-0.9920;
612.9000;0.0806;-0.9966;
613.2000;0.0814;-0.9920;
613.5000;0.0806;-0.9830;
613.8000;0.0855;-0.9716;
614.1000;0.0798;-0.9784;
614.4000;0.0814;-0.9852;
614.7000;0.0806;-0.9920;
615.0000;0.0830;-0.9898;
615.3000;0.0806;-0.9943;
615.6000;0.0790;-0.9988;
615.9000;0.0806;-0.9830;
616.2000;0.0798;-0.9830;
616.5000;0.0790;-0.9898;
616.8000;0.0790;-0.9875;
617.1000;0.0765;-0.9920;
617.4000;0.0790;-0.9920;
617.7000;0.0773;-0.9920;
618.0000;0.0806;-0.9875;
618.3000;0.0814;-0.9852;
618.6000;0.0765;-0.9966;
618.9000;0.0781;-0.9920;
619.2000;0.0830;-0.9830;
619.5000;0.0855;-0.9830;
619.8000;0.0749;-1.0056;
620.1000;0.0830;-0.9852;
620.4000;0.0724;-1.0147;
620.7000;0.0773;-0.9988;
621.0000;0.0830;-0.9898;
621.3000;0.0822;-1.0034;
621.6000;0.0806;-1.0079;
621.9000;0.0781;-1.0056;
622.2000;0.0741;-1.0056;
622.5000;0.0749;-1.0056;
622.8000;0.0781;-0.9988;
623.1000;0.0765;-1.0034;
623.4000;0.0773;-1.0034;
623.7000;0.0798;-1.0056;
624.0000;0.0765;-1.0147;
624.3000;0.0790;-1.0034;
624.6000;0.0781;-0.9988;
624.9000;0.0708;-1.0101;
625.2000;0.0781;-0.9875;
625.5000;0.0806;-0.9943;
625.8000;0.0765;-1.0056;
626.1000;0.0749;-1.0101;
626.4000;0.0765;-1.0056;
626.7000;0.0806;-1.0079;
627.0000;0.0773;-1.0215;
627.3000;0.0684;-1.0396;
627.6000;0.0708;-1.0283;
627.9000;0.0724;-1.0147;
628.2000;0.0757;-1.0011;
628.5000;0.0781;-0.9966;
628.8000;0.0773;-1.0034;
629.1000;0.0765;-1.0056;
629.4000;0.0798;-1.0034;
629.7000;0.0790;-1.0124;
630.0000;0.0781;-1.0101;
630.3000;0.0781;-1.0169;
630.6000;0.0765;-1.0169;
630.9000;0.0798;-1.0124;
631.2000;0.0765;-1.0215;
631.5000;0.0757;-1.0237;
631.8000;0.0749;-1.0305;
632.1000;0.0749;-1.0305;
632.4000;0.0773;-1.0192;
632.7000;0.0757;-1.0169;
633.0000;0.0765;-1.0124;
633.3000;0.0773;-1.0079;
633.6000;0.0855;-0.9875;
633.9000;0.0741;-1.0169;
634.2000;0.0741;-1.0192;
634.5000;0.0724;-1.0260;
634.8000;0.0773;-1.0169;
635.1000;0.0757;-1.0147;
635.4000;0.0700;-1.0328;
635.7000;0.0765;-1.0192;
636.0000;0.0765;-1.0124;
636.3000;0.0806;-1.0011;
636.6000;0.0692;-1.0305;
636.9000;0.0765;-1.0079;
637.2000;0.0749;-1.0079;
637.5000;0.0790;-0.9988;
637.8000;0.0781;-1.0011;
638.1000;0.0749;-1.0034;
638.4000;0.0773;-0.9943;
638.7000;0.0798;-0.9920;
639.0000;0.0773;-0.9966;
639.3000;0.0749;-1.0011;
639.6000;0.0749;-1.0056;
639.9000;0.0757;-0.9898;
640.2000;0.0781;-0.9988;
640.5000;0.0757;-1.0101;
640.8000;0.0716;-1.0215;
641.1000;0.0765;-1.0101;
641.4000;0.0733;-1.0169;
641.7000;0.0757;-1.0124;
642.0000;0.0757;-1.0034;
642.3000;0.0741;-1.0101;
642.6000;0.0724;-1.0147;
642.9000;0.0765;-1.0101;
643.2000;0.0806;-1.0034;
643.5000;0.0757;-1.0260;
643.8000;0.0757;-1.0215;
644.1000;0.0814;-0.9966;
644.4000;0.0708;-1.0260;
644.7000;0.0757;-1.0215;
645.0000;0.0757;-1.0192;
645.3000;0.0741;-1.0260;
645.6000;0.0716;-1.0283;
645.9000;0.0724;-1.0305;
646.2000;0.0757;-1.0237;
646.5000;0.0733;-1.0192;
646.8000;0.0724;-1.0260;
647.1000;0.0733;-1.0260;
647.4000;0.0676;-1.0373;
647.7000;0.0765;-1.0011;
648.0000;0.0757;-1.0011;
648.3000;0.0700;-1.0101;
648.6000;0.0757;-0.9898;
648.9000;0.0790;-0.9898;
649.2000;0.0757;-0.9966;
649.5000;0.0757;-0.9920;
649.8000;0.0773;-0.9898;
650.1000;0.0790;-0.9852;
650.4000;0.0749;-0.9875;
650.7000;0.0749;-0.9898;
651.0000;0.0749;-0.9807;
651.3000;0.0749;-0.9898;
651.6000;0.0765;-0.9920;
651.9000;0.0765;-1.0011;
652.2000;0.0790;-0.9920;
652.5000;0.0790;-0.9988;
652.8000;0.0781;-1.0011;
653.1000;0.0757;-1.0101;
653.4000;0.0733;-1.0260;
653.7000;0.0757;-1.0192;
654.0000;0.0757;-1.0192;
654.3000;0.0724;-1.0260;
654.6000;0.0724;-1.0328;
654.9000;0.0765;-1.0215;
655.2000;0.0749;-1.0237;
655.5000;0.0741;-1.0237;
655.8000;0.0741;-1.0260;
656.1000;0.0741;-1.0260;
656.4000;0.0790;-1.0147;
656.7000;0.0765;-1.0192;
657.0000;0.0781;-1.0056;
657.3000;0.0879;-0.9784;
657.6000;0.0749;-1.0011;
657.9000;0.0749;-0.9988;
658.2000;0.0749;-1.0011;
658.5000;0.0635;-1.0305;
658.8000;0.0765;-0.9966;
659.1000;0.0781;-0.9988;
659.4000;0.0749;-1.0034;
659.7000;0.0716;-1.0124;
660.0000;0.0757;-1.0147;
660.3000;0.0733;-1.0124;
660.6000;0.0741;-1.0101;
660.9000;0.0741;-1.0124;
661.2000;0.0724;-1.0147;
661.5000;0.0790;-0.9988;
661.8000;0.0749;-1.0056;
662.1000;0.0757;-1.0056;
662.4000;0.0749;-1.0079;
662.7000;0.0741;-0.9988;
663.0000;0.0749;-0.9920;
663.3000;0.0773;-0.9830;
663.6000;0.0757;-0.9898;
663.9000;0.0757;-0.9875;
664.2000;0.0781;-0.9830;
664.5000;0.0798;-0.9784;
664.8000;0.0757;-0.9807;
665.1000;0.0757;-0.9875;
665.4000;0.0773;-0.9852;
665.7000;0.0765;-0.9830;
666.0000;0.0716;-0.9920;
666.3000;0.0806;-0.9694;
666.6000;0.0724;-0.9807;
666.9000;0.0765;-0.9807;
667.2000;0.0733;-0.9784;
667.5000;0.0749;-0.9807;
667.8000;0.0749;-0.9875;
668.1000;0.0741;-0.9943;
668.4000;0.0733;-0.9920;
668.7000;0.0749;-0.9830;
669.0000;0.0724;-0.9875;
669.3000;0.0757;-0.9716;
669.6000;0.0741;-0.9671;
669.9000;0.0724;-0.9716;
670.2000;0.0765;-0.9739;
670.5000;0.0741;-0.9830;
670.8000;0.0741;-0.9898;
671.1000;0.0724;-0.9988;
671.4000;0.0757;-0.9966;
671.7000;0.0765;-0.9898;
672.0000;0.0749;-0.9943;
672.3000;0.0724;-0.9920;
672.6000;0.0822;-0.9694;
672.9000;0.0741;-0.9920;
673.2000;0.0749;-0.9920;
673.5000;0.0749;-0.9920;
673.8000;0.0741;-0.9920;
674.1000;0.0741;-0.9852;
674.4000;0.0773;-0.9830;
674.7000;0.0741;-0.9898;
675.0000;0.0700;-1.0011;
675.3000;0.0830;-0.9649;
675.6000;0.0749;-0.9898;
675.9000;0.0741;-0.9943;
676.2000;0.0741;-1.0056;
676.5000;0.0741;-1.0101;
676.8000;0.0757;-0.9988;
677.1000;0.0741;-0.9966;
677.4000;0.0708;-1.0101;
677.7000;0.0733;-1.0011;
678.0000;0.0765;-0.9943;
678.3000;0.0733;-1.0079;
678.6000;0.0716;-1.0011;
678.9000;0.0733;-0.9943;
679.2000;0.0741;-0.9988;
679.5000;0.0781;-0.9966;
679.8000;0.0765;-0.9898;
680.1000;0.0773;-0.9807;
680.4000;0.0749;-0.9920;
680.7000;0.0749;-0.9943;
681.0000;0.0757;-0.9943;
681.3000;0.0741;-1.0034;
681.6000;0.0757;-1.0034;
681.9000;0.0733;-1.0056;
682.2000;0.0749;-0.9966;
682.5000;0.0749;-0.9898;
682.8000;0.0724;-1.0101;
683.1000;0.0733;-1.0079;
683.4000;0.0741;-1.0079;
683.7000;0.0692;-1.0260;
684.0000;0.0733;-1.0079;
684.3000;0.0749;-0.9966;
684.6000;0.0757;-0.9966;
684.9000;0.0741;-1.0101;
685.2000;0.0749;-1.0079;
685.5000;0.0724;-1.0101;
685.8000;0.0741;-0.9988;
686.1000;0.0749;-0.9898;
686.4000;0.0765;-0.9830;
686.7000;0.0741;-0.9898;
687.0000;0.0676;-1.0147;
687.3000;0.0806;-0.9898;
687.6000;0.0724;-1.0215;
687.9000;0.0741;-1.0169;
688.2000;0.0749;-1.0147;
688.5000;0.0741;-1.0192;
688.8000;0.0724;-1.0260;
689.1000;0.0749;-1.0124;
689.4000;0.0749;-1.0124;
689.7000;0.0765;-1.0079;
690.0000;0.0741;-1.0101;
690.3000;0.0798;-0.9852;
690.6000;0.0847;-0.9762;
690.9000;0.0733;-1.0034;
691.2000;0.0757;-0.9898;
691.5000;0.0798;-0.9739;
691.8000;0.0724;-0.9875;
692.1000;0.0757;-0.9830;
692.4000;0.0749;-0.9852;
692.7000;0.0863;-0.9581;
693.0000;0.0928;-0.9467;
693.3000;0.0757;-0.9898;
693.6000;0.0684;-1.0034;
693.9000;0.0814;-0.9716;
694.2000;0.0757;-0.9966;
694.5000;0.0733;-0.9988;
694.8000;0.0741;-0.9966;
695.1000;0.0757;-0.9988;
695.4000;0.0716;-1.0011;
695.7000;0.0724;-0.9920;
696.0000;0.0749;-0.9830;
696.3000;0.0733;-0.9875;
696.6000;0.0733;-0.9830;
696.9000;0.0757;-0.9739;
697.2000;0.0741;-0.9898;
697.5000;0.0724;-0.9966;
697.8000;0.0733;-1.0011;
698.1000;0.0830;-0.9852;
698.4000;0.0692;-1.0215;
698.7000;0.0749;-1.0079;
699.0000;0.0733;-1.0101;
699.3000;0.0741;-1.0056;
699.6000;0.0733;-1.0079;
699.9000;0.0733;-0.9988;
700.2000;0.0619;-1.0260;
700.5000;0.0733;-0.9988;
700.8000;0.0741;-0.9943;
701.1000;0.0733;-0.9920;
701.4000;0.0733;-0.9966;
701.7000;0.0716;-0.9988;
702.0000;0.0724;-0.9966;
702.3000;0.0741;-0.9875;
702.6000;0.0749;-0.9784;
702.9000;0.0692;-0.9966;
703.2000;0.0741;-0.9875;
703.5000;0.0724;-0.9966;
703.8000;0.0562;-1.0351;
704.1000;0.0724;-0.9988;
704.4000;0.0733;-0.9966;
704.7000;0.0749;-0.9898;
705.0000;0.0724;-0.9966;
705.3000;0.0749;-0.9920;
705.6000;0.0757;-0.9943;
705.9000;0.0749;-0.9943;
706.2000;0.0749;-0.9830;
706.5000;0.0659;-1.0011;
706.8000;0.0765;-0.9649;
707.1000;0.0757;-0.9716;
707.4000;0.0741;-0.9739;
707.7000;0.0773;-0.9716;
708.0000;0.0692;-0.9966;
708.3000;0.0741;-0.9852;
708.6000;0.0733;-0.9852;
708.9000;0.0741;-0.9852;
709.2000;0.0651;-1.0192;
709.5000;0.0749;-0.9943;
709.8000;0.0749;-0.9875;
710.1000;0.0781;-0.9807;
710.4000;0.0757;-0.9898;
710.7000;0.0716;-0.9988;
711.0000;0.0757;-0.9920;
711.3000;0.0741;-0.9898;
711.6000;0.0724;-1.0011;
711.9000;0.0765;-0.9898;
712.2000;0.0700;-0.9988;
712.5000;0.0830;-0.9581;
712.8000;0.0749;-0.9830;
713.1000;0.0708;-0.9943;
713.4000;0.0757;-0.9807;
713.7000;0.0733;-0.9830;
714.0000;0.0676;-0.9943;
714.3000;0.0773;-0.9762;
714.6000;0.0781;-0.9875;
714.9000;0.0749;-0.9988;
715.2000;0.0724;-0.9988;
715.5000;0.0708;-1.0079;
715.8000;0.0733;-1.0124;
716.1000;0.0741;-1.0169;
716.4000;0.0765;-1.0056;
716.7000;0.0733;-1.0034;
717.0000;0.0749;-1.0056;
717.3000;0.0643;-1.0192;
717.6000;0.0684;-1.0147;
717.9000;0.0790;-0.9739;
718.2000;0.0676;-0.9966;
718.5000;0.0708;-0.9852;
718.8000;0.0749;-0.9762;
719.1000;0.0684;-0.9966;
719.4000;0.0724;-0.9898;
719.7000;0.0741;-0.9852;
720.0000;0.0871;-0.9535;
720.3000;0.0667;-0.9988;
720.6000;0.0716;-0.9920;
720.9000;0.0741;-0.9807;
721.2000;0.0757;-0.9807;
721.5000;0.0757;-0.9852;
721.8000;0.0733;-0.9807;
722.1000;0.0716;-0.9830;
722.4000;0.0741;-0.9694;
722.7000;0.0733;-0.9694;
723.0000;0.0741;-0.9694;
723.3000;0.0724;-0.9694;
723.6000;0.0733;-0.9762;
723.9000;0.0708;-0.9875;
724.2000;0.0724;-0.9830;
724.5000;0.0733;-0.9875;
724.8000;0.0741;-0.9875;
725.1000;0.0733;-0.9852;
725.4000;0.0757;-0.9807;
725.7000;0.0733;-0.9920;
726.0000;0.0741;-0.9920;
726.3000;0.0741;-0.9875;
726.6000;0.0757;-0.9852;
726.9000;0.0741;-0.9898;
727.2000;0.0757;-0.9875;
727.5000;0.0741;-0.9875;
727.8000;0.0741;-0.9966;
728.1000;0.0749;-0.9966;
728.4000;0.0716;-1.0011;
728.7000;0.0733;-0.9943;
729.0000;0.0757;-0.9852;
729.3000;0.0773;-0.9852;
729.6000;0.0749;-0.9898;
729.9000;0.0773;-0.9852;
730.2000;0.0765;-0.9898;
730.5000;0.0749;-0.9852;
730.8000;0.0676;-1.0101;
731.1000;0.0733;-0.9898;
731.4000;0.0790;-0.9852;
731.7000;0.0733;-1.0034;
732.0000;0.0781;-1.0034;
732.3000;0.0700;-1.0215;
732.6000;0.0724;-1.0215;
732.9000;0.0749;-1.0101;
733.2000;0.0651;-1.0283;
733.5000;0.0724;-1.0124;
733.8000;0.0733;-1.0034;
734.1000;0.0765;-0.9898;
734.4000;0.0765;-0.9898;
734.7000;0.0733;-0.9943;
735.0000;0.0733;-0.9943;
735.3000;0.0757;-0.9875;
735.6000;0.0757;-0.9898;
735.9000;0.0733;-0.9920;
736.2000;0.0724;-0.9920;
736.5000;0.0619;-1.0237;
736.8000;0.0716;-0.9988;
737.1000;0.0716;-1.0034;
737.4000;0.0684;-1.0124;
737.7000;0.0741;-1.0011;
738.0000;0.0708;-1.0011;
738.3000;0.0578;-1.0396;
738.6000;0.0700;-1.0101;
738.9000;0.0733;-1.0011;
739.2000;0.0749;-0.9966;
739.5000;0.0741;-1.0011;
739.8000;0.0700;-1.0079;
740.1000;0.0684;-1.0147;
740.4000;0.0757;-0.9898;
740.7000;0.0733;-0.9988;
741.0000;0.0749;-0.9988;
741.3000;0.0708;-1.0101;
741.6000;0.0781;-0.9920;
741.9000;0.0716;-1.0056;
742.2000;0.0741;-0.9920;
742.5000;0.0733;-0.9920;
742.8000;0.0733;-0.9943;
743.1000;0.0708;-0.9966;
743.4000;0.0757;-0.9830;
743.7000;0.0716;-0.9898;
744.0000;0.0741;-0.9830;
744.3000;0.0716;-0.9830;
744.6000;0.0724;-0.9830;
744.9000;0.0741;-0.9830;
745.2000;0.0716;-0.9830;
745.5000;0.0749;-0.9694;
745.8000;0.0733;-0.9739;
746.1000;0.0749;-0.9739;
746.4000;0.0749;-0.9694;
746.7000;0.0724;-0.9716;
747.0000;0.0781;-0.9603;
747.3000;0.0708;-0.9807;
747.6000;0.0700;-0.9943;
747.9000;0.0700;-0.9830;
748.2000;0.0749;-0.9739;
748.5000;0.0724;-0.9807;
748.8000;0.0708;-0.9852;
749.1000;0.0684;-0.9966;
749.4000;0.0659;-1.0079;
749.7000;0.0667;-1.0079;
750.0000;0.0676;-1.0056;
750.3000;0.0757;-0.9852;
750.6000;0.0724;-0.9852;
750.9000;0.0724;-0.9852;
751.2000;0.0708;-0.9920;
751.5000;0.0692;-1.0034;
751.8000;0.0749;-0.9875;
752.1000;0.0724;-0.9875;
752.4000;0.0741;-0.9830;
752.7000;0.0733;-0.9920;
753.0000;0.0716;-0.9966;
753.3000;0.0757;-0.9988;
753.6000;0.0749;-1.0034;
753.9000;0.0724;-1.0056;
754.2000;0.0741;-0.9943;
754.5000;0.0578;-1.0351;
754.8000;0.0724;-0.9920;
755.1000;0.0684;-1.0034;
755.4000;0.0855;-0.9626;
755.7000;0.0724;-0.9988;
756.0000;0.0700;-1.0147;
756.3000;0.0733;-1.0056;
756.6000;0.0716;-1.0101;
756.9000;0.0700;-1.0192;
757.2000;0.0733;-1.0147;
757.5000;0.0594;-1.0464;
757.8000;0.0684;-1.0305;
758.1000;0.0651;-1.0283;
758.4000;0.0708;-1.0215;
758.7000;0.0716;-1.0192;
759.0000;0.0733;-1.0192;
759.3000;0.0724;-1.0283;
759.6000;0.0733;-1.0192;
759.9000;0.0716;-1.0192;
760.2000;0.0684;-1.0237;
760.5000;0.0741;-1.0034;
760.8000;0.0741;-1.0034;
761.1000;0.0733;-0.9988;
761.4000;0.0724;-0.9943;
761.7000;0.0741;-0.9830;
762.0000;0.0749;-0.9875;
762.3000;0.0716;-0.9920;
762.6000;0.0822;-0.9626;
762.9000;0.0733;-0.9920;
763.2000;0.0781;-0.9852;
763.5000;0.0741;-0.9920;
763.8000;0.0757;-0.9898;
764.1000;0.0692;-1.0079;
764.4000;0.0708;-1.0034;
764.7000;0.0749;-1.0034;
765.0000;0.0627;-1.0237;
765.3000;0.0733;-1.0056;
765.6000;0.0724;-1.0034;
765.9000;0.0733;-1.0034;
766.2000;0.0765;-0.9988;
766.5000;0.0757;-0.9943;
766.8000;0.0716;-0.9988;
767.1000;0.0757;-0.9898;
767.4000;0.0708;-1.0079;
767.7000;0.0700;-1.0034;
768.0000;0.0733;-0.9966;
768.3000;0.0733;-0.9988;
768.6000;0.0741;-0.9988;
768.9000;0.0724;-1.0124;
769.2000;0.0733;-1.0124;
769.5000;0.0724;-1.0215;
769.8000;0.0749;-1.0215;
770.1000;0.0716;-1.0192;
770.4000;0.0790;-1.0034;
770.7000;0.0741;-1.0169;
771.0000;0.0733;-1.0079;
771.3000;0.0700;-1.0147;
771.6000;0.0724;-1.0034;
771.9000;0.0716;-1.0056;
772.2000;0.0708;-1.0011;
772.5000;0.0749;-0.9943;
772.8000;0.0724;-0.9943;
773.1000;0.0724;-0.9852;
773.4000;0.0741;-0.9875;
773.7000;0.0741;-0.9852;
774.0000;0.0806;-0.9626;
774.3000;0.0863;-0.9445;
774.6000;0.0716;-0.9762;
774.9000;0.0716;-0.9830;
775.2000;0.0724;-0.9807;
775.5000;0.0798;-0.9603;
775.8000;0.0724;-0.9830;
776.1000;0.0741;-0.9762;
776.4000;0.0733;-0.9830;
776.7000;0.0716;-0.9875;
777.0000;0.0733;-0.9875;
777.3000;0.0741;-0.9898;
777.6000;0.0716;-0.9988;
777.9000;0.0741;-0.9920;
778.2000;0.0741;-0.9943;
778.5000;0.0757;-0.9988;
778.8000;0.0716;-1.0079;
779.1000;0.0741;-0.9988;
779.4000;0.0733;-0.9943;
779.7000;0.0798;-0.9784;
780.0000;0.0733;-0.9966;
780.3000;0.0733;-1.0034;
780.6000;0.0749;-0.9966;
780.9000;0.0708;-0.9966;
781.2000;0.0749;-0.9898;
781.5000;0.0790;-0.9739;
781.8000;0.0586;-1.0260;
782.1000;0.0749;-0.9875;
782.4000;0.0733;-0.9852;
782.7000;0.0724;-0.9898;
783.0000;0.0733;-0.9852;
783.3000;0.0757;-0.9830;
783.6000;0.0708;-0.9943;
783.9000;0.0733;-0.9920;
784.2000;0.0733;-0.9898;
784.5000;0.0716;-0.9988;
784.8000;0.0749;-0.9898;
785.1000;0.0684;-1.0034;
785.4000;0.0741;-0.9875;
785.7000;0.0700;-0.9920;
786.0000;0.0724;-0.9898;
786.3000;0.0757;-0.9898;
786.6000;0.0733;-1.0011;
786.9000;0.0684;-1.0079;
787.2000;0.0724;-0.9875;
787.5000;0.0741;-0.9716;
787.8000;0.0724;-0.9807;
788.1000;0.0790;-0.9626;
788.4000;0.0724;-0.9784;
788.7000;0.0733;-0.9762;
789.0000;0.0781;-0.9762;
789.3000;0.0773;-0.9762;
789.6000;0.0716;-0.9898;
789.9000;0.0570;-1.0215;
790.2000;0.0822;-0.9739;
790.5000;0.0700;-1.0147;
790.8000;0.0708;-1.0215;
791.1000;0.0700;-1.0305;
791.4000;0.0741;-1.0192;
791.7000;0.0708;-1.0169;
792.0000;0.0749;-1.0034;
792.3000;0.0716;-1.0169;
792.6000;0.0741;-1.0079;
792.9000;0.0716;-1.0192;
793.2000;0.0659;-1.0283;
793.5000;0.0700;-1.0169;
793.8000;0.0765;-1.0034;
794.1000;0.0724;-1.0124;
794.4000;0.0724;-1.0192;
794.7000;0.0749;-1.0101;
795.0000;0.0733;-1.0147;
795.3000;0.0741;-1.0192;
795.6000;0.0733;-1.0192;
795.9000;0.0724;-1.0124;
796.2000;0.0757;-1.0034;
796.5000;0.0749;-0.9988;
796.8000;0.0724;-1.0034;
797.1000;0.0724;-1.0011;
797.4000;0.0724;-0.9966;
797.7000;0.0724;-0.9943;
798.0000;0.0724;-0.9920;
798.3000;0.0708;-0.9898;
798.6000;0.0733;-0.9830;
798.9000;0.0733;-0.9830;
799.2000;0.0733;-0.9898;
799.5000;0.0724;-0.9830;
799.8000;0.0749;-0.9875;
800.1000;0.0733;-0.9852;
800.4000;0.0765;-0.9762;
800.7000;0.0733;-0.9943;
801.0000;0.0749;-0.9920;
801.3000;0.0684;-0.9988;
801.6000;0.0724;-0.9807;
801.9000;0.0733;-0.9784;
802.2000;0.0716;-0.9875;
802.5000;0.0749;-0.9716;
802.8000;0.0741;-0.9716;
803.1000;0.0708;-0.9920;
803.4000;0.0716;-0.9898;
803.7000;0.0733;-0.9852;
804.0000;0.0684;-0.9852;
804.3000;0.0716;-0.9671;
804.6000;0.0749;-0.9558;
804.9000;0.0716;-0.9694;
805.2000;0.0749;-0.9671;
805.5000;0.0757;-0.9649;
805.8000;0.0700;-0.9762;
806.1000;0.0838;-0.9445;
806.4000;0.0741;-0.9671;
806.7000;0.0733;-0.9671;
807.0000;0.0708;-0.9762;
807.3000;0.0724;-0.9807;
807.6000;0.0724;-0.9739;
807.9000;0.0724;-0.9716;
808.2000;0.0602;-0.9943;
808.5000;0.0847;-0.9354;
808.8000;0.0733;-0.9626;
809.1000;0.0790;-0.9603;
809.4000;0.0676;-0.9852;
809.7000;0.0733;-0.9762;
810.0000;0.0724;-0.9739;
810.3000;0.0790;-0.9445;
810.6000;0.0733;-0.9649;
810.9000;0.0684;-0.9739;
811.2000;0.0724;-0.9694;
811.5000;0.0716;-0.9716;
811.8000;0.0708;-0.9762;
812.1000;0.0643;-0.9943;
812.4000;0.0708;-0.9694;
812.7000;0.0757;-0.9603;
813.0000;0.0724;-0.9603;
813.3000;0.0855;-0.9331;
813.6000;0.0708;-0.9626;
813.9000;0.0594;-0.9852;
814.2000;0.0716;-0.9581;
814.5000;0.0733;-0.9581;
814.8000;0.0724;-0.9626;
815.1000;0.0724;-0.9739;
815.4000;0.0781;-0.9694;
815.7000;0.0716;-0.9898;
816.0000;0.0716;-0.9852;
816.3000;0.0733;-0.9762;
816.6000;0.0733;-0.9762;
816.9000;0.0733;-0.9852;
817.2000;0.0676;-1.0011;
817.5000;0.0700;-0.9943;
817.8000;0.0724;-0.9852;
818.1000;0.0724;-0.9920;
818.4000;0.0708;-0.9966;
818.7000;0.0733;-0.9852;
819.0000;0.0790;-0.9671;
819.3000;0.0716;-0.9898;
819.6000;0.0733;-0.9852;
819.9000;0.0749;-0.9784;
820.2000;0.0765;-0.9784;
820.5000;0.0757;-0.9807;
820.8000;0.0716;-0.9943;
821.1000;0.0749;-0.9830;
821.4000;0.0724;-0.9807;
821.7000;0.0724;-0.9716;
822.0000;0.0708;-0.9694;
822.3000;0.0733;-0.9739;
822.6000;0.0733;-0.9739;
822.9000;0.0716;-0.9671;
823.2000;0.0798;-0.9467;
823.5000;0.0724;-0.9603;
823.8000;0.0733;-0.9581;
824.1000;0.0741;-0.9581;
824.4000;0.0781;-0.9535;
824.7000;0.0716;-0.9694;
825.0000;0.0790;-0.9490;
825.3000;0.0757;-0.9603;
825.6000;0.0806;-0.9535;
825.9000;0.0667;-0.9852;
826.2000;0.0708;-0.9671;
826.5000;0.0741;-0.9716;
826.8000;0.0724;-0.9762;
827.1000;0.0724;-0.9671;
827.4000;0.0757;-0.9581;
827.7000;0.0733;-0.9649;
828.0000;0.0578;-1.0034;
828.3000;0.0635;-0.9988;
828.6000;0.0667;-0.9966;
828.9000;0.0684;-0.9920;
829.2000;0.0773;-0.9626;
829.5000;0.0716;-0.9830;
829.8000;0.0724;-0.9852;
830.1000;0.0716;-0.9807;
830.4000;0.0667;-0.9898;
830.7000;0.0716;-0.9762;
831.0000;0.0757;-0.9694;
831.3000;0.0708;-0.9784;
831.6000;0.0635;-0.9920;
831.9000;0.0733;-0.9649;
832.2000;0.0724;-0.9716;
832.5000;0.0659;-0.9875;
832.8000;0.0708;-0.9784;
833.1000;0.0643;-0.9898;
833.4000;0.0708;-0.9716;
833.7000;0.0716;-0.9716;
834.0000;0.0757;-0.9581;
834.3000;0.0708;-0.9626;
834.6000;0.0757;-0.9513;
834.9000;0.0659;-0.9830;
835.2000;0.0733;-0.9626;
835.5000;0.0733;-0.9716;
835.8000;0.0733;-0.9784;
836.1000;0.0741;-0.9716;
836.4000;0.0733;-0.9626;
836.7000;0.0716;-0.9649;
837.0000;0.0741;-0.9558;
837.3000;0.0716;-0.9739;
837.6000;0.0741;-0.9671;
837.9000;0.0733;-0.9671;
838.2000;0.0716;-0.9694;
838.5000;0.0741;-0.9558;
838.8000;0.0733;-0.9626;
839.1000;0.0741;-0.9581;
839.4000;0.0716;-0.9762;
839.7000;0.0733;-0.9807;
840.0000;0.0716;-0.9830;
840.3000;0.0733;-0.9739;
840.6000;0.0700;-0.9784;
840.9000;0.0733;-0.9671;
841.2000;0.0716;-0.9649;
841.5000;0.0716;-0.9626;
841.8000;0.0741;-0.9626;
842.1000;0.0724;-0.9603;
842.4000;0.0700;-0.9603;
842.7000;0.0733;-0.9626;
843.0000;0.0733;-0.9649;
843.3000;0.0716;-0.9739;
843.6000;0.0733;-0.9739;
843.9000;0.0700;-0.9875;
844.2000;0.0724;-0.9875;
844.5000;0.0667;-0.9966;
844.8000;0.0741;-0.9716;
845.1000;0.0733;-0.9784;
845.4000;0.0741;-0.9762;
845.7000;0.0724;-0.9716;
846.0000;0.0724;-0.9649;
846.3000;0.0741;-0.9513;
846.6000;0.0757;-0.9445;
846.9000;0.0692;-0.9626;
847.2000;0.0700;-0.9649;
847.5000;0.0814;-0.9399;
847.8000;0.0716;-0.9581;
848.1000;0.0724;-0.9626;
848.4000;0.0757;-0.9535;
848.7000;0.0708;-0.9581;
849.0000;0.0635;-0.9716;
849.3000;0.0733;-0.9581;
849.6000;0.0749;-0.9467;
849.9000;0.0692;-0.9603;
850.2000;0.0733;-0.9581;
850.5000;0.0733;-0.9603;
850.8000;0.0716;-0.9603;
851.1000;0.0724;-0.9603;
851.4000;0.0716;-0.9649;
851.7000;0.0724;-0.9694;
852.0000;0.0700;-0.9830;
852.3000;0.0790;-0.9558;
852.6000;0.0733;-0.9694;
852.9000;0.0716;-0.9807;
853.2000;0.0700;-0.9830;
853.5000;0.0716;-0.9920;
853.8000;0.0757;-0.9830;
854.1000;0.0724;-0.9875;
854.4000;0.0724;-0.9898;
854.7000;0.0781;-0.9898;
855.0000;0.0749;-0.9988;
855.3000;0.0765;-0.9988;
855.6000;0.0773;-0.9988;
855.9000;0.0708;-1.0079;
856.2000;0.0716;-1.0124;
856.5000;0.0692;-1.0169;
856.8000;0.0724;-1.0011;
857.1000;0.0790;-0.9807;
857.4000;0.0716;-0.9988;
857.7000;0.0716;-1.0011;
858.0000;0.0724;-0.9920;
858.3000;0.0716;-0.9943;
858.6000;0.0733;-0.9943;
858.9000;0.0724;-0.9875;
859.2000;0.0716;-0.9807;
859.5000;0.0692;-0.9807;
859.8000;0.0692;-0.9875;
860.1000;0.0724;-0.9739;
860.4000;0.0684;-0.9943;
860.7000;0.0757;-0.9762;
861.0000;0.0749;-0.9784;
861.3000;0.0741;-0.9875;
861.6000;0.0733;-0.9784;
861.9000;0.0716;-0.9830;
862.2000;0.0627;-0.9966;
862.5000;0.0700;-0.9739;
862.8000;0.0708;-0.9694;
863.1000;0.0700;-0.9807;
863.4000;0.0724;-0.9694;
863.7000;0.0733;-0.9671;
864.0000;0.0724;-0.9694;
864.3000;0.0741;-0.9694;
864.6000;0.0716;-0.9694;
864.9000;0.0749;-0.9649;
865.2000;0.0790;-0.9581;
865.5000;0.0749;-0.9626;
865.8000;0.0733;-0.9694;
866.1000;0.0741;-0.9558;
866.4000;0.0741;-0.9445;
866.7000;0.0724;-0.9558;
867.0000;0.0692;-0.9603;
867.3000;0.0741;-0.9467;
867.6000;0.0765;-0.9467;
867.9000;0.0741;-0.9490;
868.2000;0.0733;-0.9603;
868.5000;0.0627;-0.9830;
868.8000;0.0749;-0.9513;
869.1000;0.0741;-0.9513;
869.4000;0.0749;-0.9445;
869.7000;0.0724;-0.9626;
870.0000;0.0733;-0.9603;
870.3000;0.0781;-0.9399;
870.6000;0.0733;-0.9513;
870.9000;0.0708;-0.9558;
871.2000;0.0733;-0.9581;
871.5000;0.0692;-0.9716;
871.8000;0.0724;-0.9649;
872.1000;0.0724;-0.9649;
872.4000;0.0741;-0.9581;
872.7000;0.0733;-0.9649;
873.0000;0.0773;-0.9513;
873.3000;0.0667;-0.9784;
873.6000;0.0765;-0.9603;
873.9000;0.0757;-0.9694;
874.2000;0.0757;-0.9739;
874.5000;0.0724;-0.9830;
874.8000;0.0733;-0.9762;
875.1000;0.0741;-0.9784;
875.4000;0.0724;-0.9739;
875.7000;0.0716;-0.9762;
876.0000;0.0806;-0.9535;
876.3000;0.0724;-0.9762;
876.6000;0.0716;-0.9807;
876.9000;0.0733;-0.9784;
877.2000;0.0749;-0.9830;
877.5000;0.0733;-0.9875;
877.8000;0.0724;-0.9875;
878.1000;0.0716;-0.9830;
878.4000;0.0708;-0.9852;
878.7000;0.0724;-0.9807;
879.0000;0.0716;-0.9807;
879.3000;0.0676;-0.9966;
879.6000;0.0708;-0.9807;
879.9000;0.0741;-0.9716;
880.2000;0.0724;-0.9739;
880.5000;0.0749;-0.9716;
880.8000;0.0733;-0.9671;
881.1000;0.0887;-0.9377;
881.4000;0.0708;-0.9807;
881.7000;0.0716;-0.9830;
882.0000;0.0700;-0.9920;
882.3000;0.0716;-0.9920;
882.6000;0.0708;-0.9875;
882.9000;0.0708;-0.9830;
883.2000;0.0765;-0.9694;
883.5000;0.0757;-0.9784;
883.8000;0.0749;-0.9807;
884.1000;0.0724;-0.9762;
884.4000;0.0733;-0.9784;
884.7000;0.0724;-0.9830;
885.0000;0.0724;-0.9807;
885.3000;0.0716;-0.9716;
885.6000;0.0724;-0.9671;
885.9000;0.0724;-0.9716;
886.2000;0.0741;-0.9603;
886.5000;0.0733;-0.9671;
886.8000;0.0676;-0.9852;
887.1000;0.0741;-0.9739;
887.4000;0.0651;-0.9943;
887.7000;0.0708;-0.9762;
888.0000;0.0733;-0.9807;
888.3000;0.0757;-0.9694;
888.6000;0.0684;-0.9898;
888.9000;0.0708;-0.9875;
889.2000;0.0757;-0.9694;
889.5000;0.0708;-0.9830;
889.8000;0.0724;-0.9830;
890.1000;0.0708;-0.9807;
890.4000;0.0676;-0.9898;
890.7000;0.0716;-0.9875;
891.0000;0.0708;-0.9807;
891.3000;0.0724;-0.9716;
891.6000;0.0765;-0.9626;
891.9000;0.0708;-0.9739;
892.2000;0.0733;-0.9671;
892.5000;0.0749;-0.9671;
892.8000;0.0733;-0.9739;
893.1000;0.0733;-0.9671;
893.4000;0.0700;-0.9694;
893.7000;0.0724;-0.9535;
894.0000;0.0716;-0.9581;
894.3000;0.0724;-0.9535;
894.6000;0.0708;-0.9671;
894.9000;0.0724;-0.9716;
895.2000;0.0724;-0.9762;
895.5000;0.0733;-0.9762;
895.8000;0.0741;-0.9784;
896.1000;0.0716;-0.9784;
896.4000;0.0724;-0.9762;
896.7000;0.0692;-0.9898;
897.0000;0.0741;-0.9807;
897.3000;0.0643;-0.9988;
897.6000;0.0724;-0.9784;
897.9000;0.0716;-0.9807;
898.2000;0.0659;-0.9898;
898.5000;0.0692;-0.9784;
898.8000;0.0733;-0.9671;
899.1000;0.0692;-0.9739;
899.4000;0.0708;-0.9626;
899.7000;0.0708;-0.9603;
900.0000;0.0806;-0.9354;
900.3000;0.0749;-0.9581;
900.6000;0.0741;-0.9603;
900.9000;0.0749;-0.9603;
901.2000;0.0716;-0.9739;
901.5000;0.0749;-0.9694;
901.8000;0.0724;-0.9830;
902.1000;0.0716;-0.9898;
902.4000;0.0700;-0.9852;
902.7000;0.0716;-0.9784;
903.0000;0.0692;-0.9852;
903.3000;0.0724;-0.9784;
903.6000;0.0724;-0.9784;
903.9000;0.0676;-0.9920;
904.2000;0.0757;-0.9716;
904.5000;0.0716;-0.9830;
904.8000;0.0798;-0.9626;
905.1000;0.0790;-0.9603;
905.4000;0.0838;-0.9490;
905.7000;0.0611;-1.0011;
906.0000;0.0684;-0.9898;
906.3000;0.0765;-0.9694;
906.6000;0.0765;-0.9739;
906.9000;0.0757;-0.9762;
907.2000;0.0749;-0.9671;
907.5000;0.0700;-0.9830;
907.8000;0.0757;-0.9784;
908.1000;0.0749;-0.9762;
908.4000;0.0741;-0.9716;
908.7000;0.0692;-0.9830;
909.0000;0.0733;-0.9694;
909.3000;0.0749;-0.9513;
909.6000;0.0716;-0.9558;
909.9000;0.0651;-0.9694;
910.2000;0.0619;-0.9830;
910.5000;0.0733;-0.9513;
910.8000;0.0733;-0.9558;
911.1000;0.0741;-0.9581;
911.4000;0.0708;-0.9739;
911.7000;0.0781;-0.9603;
912.0000;0.0733;-0.9694;
912.3000;0.0708;-0.9852;
912.6000;0.0724;-0.9784;
912.9000;0.0708;-0.9852;
913.2000;0.0692;-0.9830;
913.5000;0.0724;-0.9671;
913.8000;0.0741;-0.9671;
914.1000;0.0724;-0.9807;
914.4000;0.0724;-0.9784;
914.7000;0.0741;-0.9671;
915.0000;0.0724;-0.9739;
915.3000;0.0741;-0.9649;
915.6000;0.0741;-0.9649;
915.9000;0.0733;-0.9649;
916.2000;0.0724;-0.9694;
916.5000;0.0716;-0.9649;
916.8000;0.0733;-0.9535;
917.1000;0.0716;-0.9649;
917.4000;0.0724;-0.9694;
917.7000;0.0724;-0.9694;
918.0000;0.0733;-0.9626;
918.3000;0.0733;-0.9649;
918.6000;0.0757;-0.9649;
918.9000;0.0708;-0.9739;
919.2000;0.0781;-0.9626;
919.5000;0.0741;-0.9716;
919.8000;0.0733;-0.9603;
920.1000;0.0765;-0.9467;
920.4000;0.0716;-0.9671;
920.7000;0.0749;-0.9467;
921.0000;0.0716;-0.9535;
921.3000;0.0724;-0.9490;
921.6000;0.0741;-0.9490;
921.9000;0.0724;-0.9558;
922.2000;0.0635;-0.9784;
922.5000;0.0749;-0.9558;
922.8000;0.0765;-0.9603;
923.1000;0.0741;-0.9716;
923.4000;0.0700;-0.9762;
923.7000;0.0684;-0.9739;
924.0000;0.0724;-0.9694;
924.3000;0.0733;-0.9762;
924.6000;0.0790;-0.9513;
924.9000;0.0749;-0.9626;
925.2000;0.0724;-0.9739;
925.5000;0.0692;-0.9875;
925.8000;0.0716;-0.9920;
926.1000;0.0708;-1.0034;
926.4000;0.0773;-0.9898;
926.7000;0.0741;-0.9898;
927.0000;0.0741;-0.9830;
927.3000;0.0716;-0.9852;
927.6000;0.0749;-0.9852;
927.9000;0.0676;-1.0034;
928.2000;0.0724;-0.9852;
928.5000;0.0724;-0.9852;
928.8000;0.0676;-1.0011;
929.1000;0.0700;-0.9966;
929.4000;0.0667;-1.0034;
929.7000;0.0724;-0.9875;
930.0000;0.0724;-0.9898;
930.3000;0.0733;-0.9807;
930.6000;0.0733;-0.9830;
930.9000;0.0651;-0.9852;
931.2000;0.0749;-0.9649;
931.5000;0.0733;-0.9739;
931.8000;0.0692;-0.9875;
932.1000;0.0684;-0.9898;
932.4000;0.0708;-0.9807;
932.7000;0.0692;-0.9830;
933.0000;0.0724;-0.9716;
933.3000;0.0708;-0.9807;
933.6000;0.0700;-0.9875;
933.9000;0.0651;-1.0034;
934.2000;0.0667;-0.9920;
934.5000;0.0733;-0.9807;
934.8000;0.0749;-0.9762;
935.1000;0.0716;-0.9784;
935.4000;0.0700;-0.9762;
935.7000;0.0733;-0.9762;
936.0000;0.0806;-0.9535;
936.3000;0.0700;-0.9762;
936.6000;0.0716;-0.9784;
936.9000;0.0724;-0.9807;
937.2000;0.0733;-0.9784;
937.5000;0.0733;-0.9830;
937.8000;0.0716;-0.9807;
938.1000;0.0749;-0.9694;
938.4000;0.0741;-0.9716;
938.7000;0.0716;-0.9852;
939.0000;0.0724;-0.9830;
939.3000;0.0635;-1.0034;
939.6000;0.0700;-0.9807;
939.9000;0.0716;-0.9762;
940.2000;0.0724;-0.9716;
940.5000;0.0790;-0.9467;
940.8000;0.0724;-0.9603;
941.1000;0.0716;-0.9603;
941.4000;0.0733;-0.9558;
941.7000;0.0700;-0.9830;
942.0000;0.0749;-0.9762;
942.3000;0.0724;-0.9784;
942.6000;0.0741;-0.9694;
942.9000;0.0684;-0.9784;
943.2000;0.0619;-0.9988;
943.5000;0.0724;-0.9830;
943.8000;0.0708;-0.9898;
944.1000;0.0708;-0.9920;
944.4000;0.0700;-1.0011;
944.7000;0.0749;-0.9875;
945.0000;0.0733;-0.9852;
945.3000;0.0733;-0.9739;
945.6000;0.0716;-0.9807;
945.9000;0.0733;-0.9852;
946.2000;0.0692;-1.0056;
946.5000;0.0700;-1.0011;
946.8000;0.0822;-0.9649;
947.1000;0.0716;-0.9898;
947.4000;0.0781;-0.9671;
947.7000;0.0749;-0.9875;
948.0000;0.0733;-0.9898;
948.3000;0.0724;-0.9830;
948.6000;0.0708;-0.9875;
948.9000;0.0724;-0.9784;
949.2000;0.0724;-0.9762;
949.5000;0.0724;-0.9671;
949.8000;0.0733;-0.9603;
950.1000;0.0716;-0.9694;
950.4000;0.0684;-0.9830;
950.7000;0.0708;-0.9716;
951.0000;0.0676;-0.9852;
951.3000;0.0700;-0.9807;
951.6000;0.0757;-0.9671;
951.9000;0.0733;-0.9716;
952.2000;0.0741;-0.9716;
952.5000;0.0716;-0.9784;
952.8000;0.0733;-0.9830;
953.1000;0.0798;-0.9626;
953.4000;0.0798;-0.9558;
953.7000;0.0741;-0.9716;
954.0000;0.0724;-0.9762;
954.3000;0.0724;-0.9739;
954.6000;0.0733;-0.9649;
954.9000;0.0749;-0.9716;
955.2000;0.0749;-0.9671;
955.5000;0.0757;-0.9626;
955.8000;0.0708;-0.9830;
956.1000;0.0741;-0.9762;
956.4000;0.0684;-0.9807;
956.7000;0.0708;-0.9739;
957.0000;0.0749;-0.9558;
957.3000;0.0724;-0.9535;
957.6000;0.0724;-0.9581;
957.9000;0.0708;-0.9581;
958.2000;0.0733;-0.9603;
958.5000;0.0724;-0.9626;
958.8000;0.0724;-0.9603;
959.1000;0.0749;-0.9558;
959.4000;0.0741;-0.9649;
959.7000;0.0749;-0.9558;
960.0000;0.0749;-0.9626;
960.3000;0.0716;-0.9807;
960.6000;0.0619;-0.9988;
960.9000;0.0724;-0.9739;
961.2000;0.0724;-0.9739;
961.5000;0.0724;-0.9694;
961.8000;0.0700;-0.9694;
962.1000;0.0708;-0.9739;
962.4000;0.0700;-0.9830;
962.7000;0.0667;-0.9739;
963.0000;0.0724;-0.9671;
963.3000;0.0781;-0.9603;
963.6000;0.0733;-0.9762;
963.9000;0.0724;-0.9694;
964.2000;0.0749;-0.9694;
964.5000;0.0806;-0.9558;
964.8000;0.0749;-0.9830;
965.1000;0.0708;-0.9875;
965.4000;0.0822;-0.9626;
965.7000;0.0676;-0.9920;
966.0000;0.0594;-1.0192;
966.3000;0.0667;-0.9966;
966.6000;0.0765;-0.9671;
966.9000;0.0708;-0.9762;
967.2000;0.0659;-0.9898;
967.5000;0.0741;-0.9762;
967.8000;0.0741;-0.9739;
968.1000;0.0814;-0.9513;
968.4000;0.0724;-0.9716;
968.7000;0.0733;-0.9694;
969.0000;0.0724;-0.9694;
969.3000;0.0724;-0.9649;
969.6000;0.0733;-0.9671;
969.9000;0.0724;-0.9762;
970.2000;0.0716;-0.9784;
970.5000;0.0724;-0.9694;
970.8000;0.0733;-0.9694;
971.1000;0.0733;-0.9603;
971.4000;0.0733;-0.9626;
971.7000;0.0724;-0.9671;
972.0000;0.0741;-0.9603;
972.3000;0.0781;-0.9558;
972.6000;0.0716;-0.9762;
972.9000;0.0741;-0.9716;
973.2000;0.0830;-0.9445;
973.5000;0.0741;-0.9626;
973.8000;0.0716;-0.9716;
974.1000;0.0724;-0.9603;
974.4000;0.0733;-0.9716;
974.7000;0.0733;-0.9649;
975.0000;0.0733;-0.9694;
975.3000;0.0716;-0.9830;
975.6000;0.0733;-0.9762;
975.9000;0.0716;-0.9807;
976.2000;0.0733;-0.9784;
976.5000;0.0716;-0.9784;
976.8000;0.0733;-0.9784;
977.1000;0.0724;-0.9784;
977.4000;0.0724;-0.9807;
977.7000;0.0733;-0.9716;
978.0000;0.0724;-0.9830;
978.3000;0.0676;-0.9988;
978.6000;0.0733;-0.9898;
978.9000;0.0708;-0.9898;
979.2000;0.0749;-0.9694;
979.5000;0.0741;-0.9762;
979.8000;0.0716;-0.9898;
980.1000;0.0716;-0.9943;
980.4000;0.0733;-0.9920;
980.7000;0.0716;-0.9943;
981.0000;0.0733;-0.9898;
981.3000;0.0692;-0.9988;
981.6000;0.0708;-1.0011;
981.9000;0.0733;-0.9966;
982.2000;0.0716;-1.0056;
982.5000;0.0716;-1.0011;
982.8000;0.0716;-0.9830;
983.1000;0.0708;-0.9875;
983.4000;0.0741;-0.9807;
983.7000;0.0676;-0.9988;
984.0000;0.0741;-0.9830;
984.3000;0.0749;-0.9807;
984.6000;0.0733;-0.9807;
984.9000;0.0724;-0.9762;
985.2000;0.0741;-0.9807;
985.5000;0.0733;-0.9875;
985.8000;0.0749;-0.9807;
986.1000;0.0708;-0.9898;
986.4000;0.0684;-0.9943;
986.7000;0.0716;-0.9852;
987.0000;0.0724;-0.9852;
987.3000;0.0741;-0.9784;
987.6000;0.0733;-0.9716;
987.9000;0.0708;-0.9784;
988.2000;0.0716;-0.9762;
988.5000;0.0676;-0.9784;
988.8000;0.0716;-0.9671;
989.1000;0.0749;-0.9626;
989.4000;0.0741;-0.9603;
989.7000;0.0676;-0.9784;
990.0000;0.0733;-0.9649;
990.3000;0.0716;-0.9716;
990.6000;0.0741;-0.9762;
990.9000;0.0757;-0.9762;
991.2000;0.0790;-0.9626;
991.5000;0.0716;-0.9852;
991.8000;0.0708;-0.9830;
992.1000;0.0659;-0.9943;
992.4000;0.0716;-0.9784;
992.7000;0.0700;-0.9852;
993.0000;0.0724;-0.9875;
993.3000;0.0700;-0.9920;
993.6000;0.0586;-1.0101;
993.9000;0.0708;-0.9830;
994.2000;0.0733;-0.9671;
994.5000;0.0749;-0.9513;
994.8000;0.0757;-0.9558;
995.1000;0.0724;-0.9694;
995.4000;0.0733;-0.9739;
995.7000;0.0716;-0.9716;
996.0000;0.0749;-0.9671;
996.3000;0.0749;-0.9739;
996.6000;0.0724;-0.9875;
996.9000;0.0741;-0.9807;
997.2000;0.0724;-0.9920;
997.5000;0.0733;-0.9830;
997.8000;0.0724;-0.9671;
998.1000;0.0741;-0.9716;
998.4000;0.0733;-0.9716;
998.7000;0.0724;-0.9694;
999.0000;0.0708;-0.9739;
999.3000;0.0733;-0.9626;
999.6000;0.0733;-0.9603;
999.9000;0.0716;-0.9626;
1000.2000;0.0741;-0.9603;
1000.5000;0.0716;-0.9694;
1000.8000;0.0716;-0.9603;
1001.1000;0.0733;-0.9694;
1001.4000;0.0741;-0.9694;
1001.7000;0.0749;-0.9671;
1002.0000;0.0733;-0.9671;
1002.3000;0.0765;-0.9535;
1002.6000;0.0724;-0.9671;
1002.9000;0.0708;-0.9739;
1003.2000;0.0692;-0.9784;
1003.5000;0.0724;-0.9762;
1003.8000;0.0749;-0.9694;
1004.1000;0.0716;-0.9852;
1004.4000;0.0798;-0.9671;
1004.7000;0.0757;-0.9784;
1005.0000;0.0749;-0.9830;
1005.3000;0.0741;-0.9943;
1005.6000;0.0724;-0.9966;
1005.9000;0.0733;-0.9920;
1006.2000;0.0724;-0.9943;
1006.5000;0.0724;-0.9807;
1006.8000;0.0733;-0.9852;
1007.1000;0.0749;-0.9852;
1007.4000;0.0765;-0.9852;
1007.7000;0.0741;-0.9898;
1008.0000;0.0708;-1.0034;
1008.3000;0.0716;-1.0011;
1008.6000;0.0733;-0.9966;
1008.9000;0.0724;-1.0011;
1009.2000;0.0724;-1.0101;
1009.5000;0.0692;-1.0192;
1009.8000;0.0733;-1.0011;
1010.1000;0.0724;-0.9966;
1010.4000;0.0724;-0.9966;
1010.7000;0.0749;-0.9852;
1011.0000;0.0716;-0.9830;
1011.3000;0.0676;-0.9852;
1011.6000;0.0724;-0.9807;
1011.9000;0.0716;-0.9898;
1012.2000;0.0741;-0.9898;
1012.5000;0.0733;-0.9966;
1012.8000;0.0708;-0.9943;
1013.1000;0.0757;-0.9739;
1013.4000;0.0724;-0.9875;
1013.7000;0.0733;-0.9898;
1014.0000;0.0716;-0.9943;
1014.3000;0.0684;-1.0056;
1014.6000;0.0724;-0.9988;
1014.9000;0.0733;-0.9920;
1015.2000;0.0814;-0.9694;
1015.5000;0.0724;-0.9875;
1015.8000;0.0716;-0.9875;
1016.1000;0.0749;-0.9875;
1016.4000;0.0716;-0.9943;
1016.7000;0.0700;-0.9875;
1017.0000;0.0724;-0.9807;
1017.3000;0.0741;-0.9762;
1017.6000;0.0741;-0.9739;
1017.9000;0.0733;-0.9807;
1018.2000;0.0700;-0.9875;
1018.5000;0.0684;-0.9943;
1018.8000;0.0716;-0.9852;
1019.1000;0.0724;-0.9807;
1019.4000;0.0716;-0.9830;
1019.7000;0.0757;-0.9739;
1020.0000;0.0733;-0.9626;
1020.3000;0.0724;-0.9626;
1020.6000;0.0724;-0.9694;
1020.9000;0.0741;-0.9626;
1021.2000;0.0798;-0.9467;
1021.5000;0.0749;-0.9603;
1021.8000;0.0716;-0.9739;
1022.1000;0.0733;-0.9762;
1022.4000;0.0733;-0.9762;
1022.7000;0.0724;-0.9739;
1023.0000;0.0724;-0.9694;
1023.3000;0.0700;-0.9762;
1023.6000;0.0724;-0.9716;
1023.9000;0.0773;-0.9513;
1024.2000;0.0741;-0.9626;
1024.5000;0.0741;-0.9603;
1024.8000;0.0741;-0.9581;
1025.1000;0.0741;-0.9649;
1025.4000;0.0724;-0.9603;
1025.7000;0.0733;-0.9581;
1026.0000;0.0741;-0.9581;
1026.3000;0.0749;-0.9535;
1026.6000;0.0733;-0.9626;
1026.9000;0.0733;-0.9535;
1027.2000;0.0635;-0.9807;
1027.5000;0.0716;-0.9626;
1027.8000;0.0684;-0.9784;
1028.1000;0.0708;-0.9558;
1028.4000;0.0806;-0.9286;
1028.7000;0.0733;-0.9513;
1029.0000;0.0773;-0.9558;
1029.3000;0.0724;-0.9671;
1029.6000;0.0708;-0.9739;
1029.9000;0.0749;-0.9626;
1030.2000;0.0733;-0.9649;
1030.5000;0.0724;-0.9581;
1030.8000;0.0692;-0.9716;
1031.1000;0.0708;-0.9671;
1031.4000;0.0765;-0.9626;
1031.7000;0.0716;-0.9649;
1032.0000;0.0724;-0.9513;
1032.3000;0.0692;-0.9671;
1032.6000;0.0716;-0.9490;
1032.9000;0.0724;-0.9513;
1033.2000;0.0700;-0.9581;
1033.5000;0.0733;-0.9535;
1033.8000;0.0749;-0.9422;
1034.1000;0.0724;-0.9513;
1034.4000;0.0716;-0.9649;
1034.7000;0.0733;-0.9626;
1035.0000;0.0724;-0.9694;
1035.3000;0.0733;-0.9671;
1035.6000;0.0724;-0.9603;
1035.9000;0.0733;-0.9603;
1036.2000;0.0716;-0.9671;
1036.5000;0.0724;-0.9649;
1036.8000;0.0708;-0.9694;
1037.1000;0.0724;-0.9694;
1037.4000;0.0692;-0.9784;
1037.7000;0.0724;-0.9852;
1038.0000;0.0602;-1.0079;
1038.3000;0.0765;-0.9694;
1038.6000;0.0724;-0.9716;
1038.9000;0.0716;-0.9739;
1039.2000;0.0863;-0.9354;
1039.5000;0.0724;-0.9603;
1039.8000;0.0741;-0.9535;
1040.1000;0.0790;-0.9445;
1040.4000;0.0741;-0.9558;
1040.7000;0.0724;-0.9626;
1041.0000;0.0733;-0.9671;
1041.3000;0.0667;-0.9762;
1041.6000;0.0700;-0.9694;
1041.9000;0.0716;-0.9649;
1042.2000;0.0716;-0.9716;
1042.5000;0.0700;-0.9739;
1042.8000;0.0741;-0.9649;
1043.1000;0.0692;-0.9784;
1043.4000;0.0741;-0.9649;
1043.7000;0.0724;-0.9694;
1044.0000;0.0733;-0.9649;
1044.3000;0.0708;-0.9762;
1044.6000;0.0716;-0.9875;
1044.9000;0.0692;-0.9830;
1045.2000;0.0765;-0.9558;
1045.5000;0.0749;-0.9626;
1045.8000;0.0741;-0.9626;
1046.1000;0.0724;-0.9649;
1046.4000;0.0741;-0.9603;
1046.7000;0.0749;-0.9626;
1047.0000;0.0749;-0.9626;
1047.3000;0.0700;-0.9784;
1047.6000;0.0806;-0.9581;
1047.9000;0.0741;-0.9739;
1048.2000;0.0798;-0.9558;
1048.5000;0.0741;-0.9671;
1048.8000;0.0692;-0.9716;
1049.1000;0.0741;-0.9535;
1049.4000;0.0708;-0.9558;
1049.7000;0.0724;-0.9467;
1050.0000;0.0659;-0.9671;
1050.3000;0.0708;-0.9649;
1050.6000;0.0733;-0.9603;
1050.9000;0.0733;-0.9626;
1051.2000;0.0733;-0.9694;
1051.5000;0.0724;-0.9581;
1051.8000;0.0676;-0.9739;
1052.1000;0.0708;-0.9581;
1052.4000;0.0724;-0.9445;
1052.7000;0.0716;-0.9467;
1053.0000;0.0708;-0.9513;
1053.3000;0.0806;-0.9263;
1053.6000;0.0716;-0.9467;
1053.9000;0.0651;-0.9649;
1054.2000;0.0724;-0.9513;
1054.5000;0.0676;-0.9626;
1054.8000;0.0635;-0.9784;
1055.1000;0.0724;-0.9513;
1055.4000;0.0765;-0.9354;
1055.7000;0.0733;-0.9445;
1056.0000;0.0741;-0.9399;
1056.3000;0.0724;-0.9490;
1056.6000;0.0798;-0.9309;
1056.9000;0.0749;-0.9467;
1057.2000;0.0724;-0.9490;
1057.5000;0.0790;-0.9286;
1057.8000;0.0708;-0.9513;
1058.1000;0.0733;-0.9535;
1058.4000;0.0773;-0.9354;
1058.7000;0.0667;-0.9694;
1059.0000;0.0781;-0.9535;
1059.3000;0.0741;-0.9671;
1059.6000;0.0781;-0.9626;
1059.9000;0.0724;-0.9784;
1060.2000;0.0765;-0.9603;
1060.5000;0.0733;-0.9762;
1060.8000;0.0741;-0.9739;
1061.1000;0.0733;-0.9716;
1061.4000;0.0790;-0.9513;
1061.7000;0.0765;-0.9649;
1062.0000;0.0781;-0.9490;
1062.3000;0.0716;-0.9626;
1062.6000;0.0700;-0.9694;
1062.9000;0.0733;-0.9626;
1063.2000;0.0790;-0.9422;
1063.5000;0.0724;-0.9535;
1063.8000;0.0708;-0.9603;
1064.1000;0.0700;-0.9671;
1064.4000;0.0733;-0.9626;
1064.7000;0.0724;-0.9739;
1065.0000;0.0724;-0.9739;
1065.3000;0.0749;-0.9671;
1065.6000;0.0716;-0.9739;
1065.9000;0.0733;-0.9739;
1066.2000;0.0708;-0.9784;
1066.5000;0.0733;-0.9581;
1066.8000;0.0724;-0.9671;
1067.1000;0.0708;-0.9603;
1067.4000;0.0724;-0.9626;
1067.7000;0.0708;-0.9716;
1068.0000;0.0724;-0.9671;
1068.3000;0.0716;-0.9535;
1068.6000;0.0708;-0.9558;
1068.9000;0.0708;-0.9581;
1069.2000;0.0749;-0.9581;
1069.5000;0.0733;-0.9626;
1069.8000;0.0733;-0.9649;
1070.1000;0.0765;-0.9490;
1070.4000;0.0733;-0.9558;
1070.7000;0.0724;-0.9649;
1071.0000;0.0733;-0.9581;
1071.3000;0.0765;-0.9422;
1071.6000;0.0741;-0.9467;
1071.9000;0.0749;-0.9467;
1072.2000;0.0733;-0.9422;
1072.5000;0.0692;-0.9626;
1072.8000;0.0773;-0.9422;
1073.1000;0.0716;-0.9694;
1073.4000;0.0724;-0.9716;
1073.7000;0.0716;-0.9694;
1074.0000;0.0716;-0.9830;
1074.3000;0.0724;-0.9875;
1074.6000;0.0741;-0.9807;
1074.9000;0.0733;-0.9784;
1075.2000;0.0733;-0.9739;
1075.5000;0.0749;-0.9671;
1075.8000;0.0724;-0.9784;
1076.1000;0.0741;-0.9739;
1076.4000;0.0716;-0.9807;
1076.7000;0.0700;-0.9807;
1077.0000;0.0733;-0.9739;
1077.3000;0.0863;-0.9422;
1077.6000;0.0708;-0.9830;
1077.9000;0.0741;-0.9762;
1078.2000;0.0716;-0.9852;
1078.5000;0.0798;-0.9671;
1078.8000;0.0724;-0.9762;
1079.1000;0.0724;-0.9716;
1079.4000;0.0733;-0.9626;
1079.7000;0.0724;-0.9558;
1080.0000;0.0733;-0.9626;
1080.3000;0.0724;-0.9671;
1080.6000;0.0724;-0.9649;
1080.9000;0.0716;-0.9694;
1081.2000;0.0708;-0.9694;
1081.5000;0.0773;-0.9513;
1081.8000;0.0806;-0.9558;
1082.1000;0.0716;-0.9739;
1082.4000;0.0741;-0.9694;
1082.7000;0.0708;-0.9739;
1083.0000;0.0716;-0.9535;
1083.3000;0.0716;-0.9513;
1083.6000;0.0724;-0.9513;
1083.9000;0.0773;-0.9445;
1084.2000;0.0708;-0.9671;
1084.5000;0.0724;-0.9626;
1084.8000;0.0741;-0.9490;
1085.1000;0.0716;-0.9603;
1085.4000;0.0749;-0.9581;
1085.7000;0.0798;-0.9467;
1086.0000;0.0781;-0.9581;
1086.3000;0.0724;-0.9671;
1086.6000;0.0790;-0.9467;
1086.9000;0.0724;-0.9762;
1087.2000;0.0733;-0.9739;
1087.5000;0.0716;-0.9694;
1087.8000;0.0757;-0.9535;
1088.1000;0.0741;-0.9558;
1088.4000;0.0716;-0.9558;
1088.7000;0.0724;-0.9694;
1089.0000;0.0692;-0.9694;
1089.3000;0.0724;-0.9603;
1089.6000;0.0700;-0.9603;
1089.9000;0.0716;-0.9558;
1090.2000;0.0692;-0.9603;
1090.5000;0.0716;-0.9581;
1090.8000;0.0724;-0.9649;
1091.1000;0.0716;-0.9626;
1091.4000;0.0733;-0.9603;
1091.7000;0.0733;-0.9490;
1092.0000;0.0765;-0.9331;
1092.3000;0.0724;-0.9445;
1092.6000;0.0733;-0.9422;
1092.9000;0.0716;-0.9467;
1093.2000;0.0716;-0.9467;
1093.5000;0.0741;-0.9422;
1093.8000;0.0733;-0.9490;
1094.1000;0.0724;-0.9603;
1094.4000;0.0741;-0.9626;
1094.7000;0.0724;-0.9649;
1095.0000;0.0708;-0.9626;
1095.3000;0.0643;-0.9852;
1095.6000;0.0651;-0.9739;
1095.9000;0.0733;-0.9603;
1096.2000;0.0659;-0.9807;
1096.5000;0.0724;-0.9626;
1096.8000;0.0749;-0.9513;
1097.1000;0.0724;-0.9581;
1097.4000;0.0749;-0.9490;
1097.7000;0.0724;-0.9535;
1098.0000;0.0741;-0.9467;
1098.3000;0.0700;-0.9535;
1098.6000;0.0724;-0.9558;
1098.9000;0.0716;-0.9581;
1099.2000;0.0708;-0.9603;
1099.5000;0.0741;-0.9581;
1099.8000;0.0741;-0.9716;
1100.1000;0.0749;-0.9694;
1100.4000;0.0708;-0.9784;
1100.7000;0.0651;-0.9852;
1101.0000;0.0700;-0.9807;
1101.3000;0.0676;-0.9920;
1101.6000;0.0749;-0.9671;
1101.9000;0.0733;-0.9694;
1102.2000;0.0757;-0.9603;
1102.5000;0.0692;-0.9807;
1102.8000;0.0708;-0.9784;
1103.1000;0.0757;-0.9581;
1103.4000;0.0700;-0.9694;
1103.7000;0.0757;-0.9649;
1104.0000;0.0733;-0.9671;
1104.3000;0.0741;-0.9694;
1104.6000;0.0733;-0.9784;
1104.9000;0.0741;-0.9739;
1105.2000;0.0724;-0.9694;
1105.5000;0.0716;-0.9784;
1105.8000;0.0733;-0.9716;
1106.1000;0.0733;-0.9694;
1106.4000;0.0724;-0.9626;
1106.7000;0.0749;-0.9603;
1107.0000;0.0716;-0.9671;
1107.3000;0.0749;-0.9694;
1107.6000;0.0741;-0.9626;
1107.9000;0.0733;-0.9626;
1108.2000;0.0724;-0.9581;
1108.5000;0.0692;-0.9671;
1108.8000;0.0733;-0.9581;
1109.1000;0.0716;-0.9603;
1109.4000;0.0708;-0.9626;
1109.7000;0.0724;-0.9716;
1110.0000;0.0659;-0.9875;
1110.3000;0.0733;-0.9716;
1110.6000;0.0724;-0.9694;
1110.9000;0.0716;-0.9716;
1111.2000;0.0643;-0.9920;
1111.5000;0.0733;-0.9581;
1111.8000;0.0708;-0.9603;
1112.1000;0.0749;-0.9513;
1112.4000;0.0749;-0.9445;
1112.7000;0.0700;-0.9649;
1113.0000;0.0733;-0.9626;
1113.3000;0.0790;-0.9626;
1113.6000;0.0708;-0.9875;
1113.9000;0.0708;-0.9875;
1114.2000;0.0741;-0.9739;
1114.5000;0.0684;-0.9830;
1114.8000;0.0741;-0.9739;
1115.1000;0.0741;-0.9694;
1115.4000;0.0741;-0.9649;
1115.7000;0.0733;-0.9716;
1116.0000;0.0749;-0.9716;
1116.3000;0.0741;-0.9716;
1116.6000;0.0749;-0.9716;
1116.9000;0.0724;-0.9716;
1117.2000;0.0741;-0.9671;
1117.5000;0.0684;-0.9807;
1117.8000;0.0814;-0.9490;
1118.1000;0.0749;-0.9626;
1118.4000;0.0700;-0.9762;
1118.7000;0.0700;-0.9830;
1119.0000;0.0692;-0.9807;
1119.3000;0.0643;-0.9852;
1119.6000;0.0692;-0.9671;
1119.9000;0.0749;-0.9513;
1120.2000;0.0578;-0.9920;
1120.5000;0.0733;-0.9535;
1120.8000;0.0716;-0.9626;
1121.1000;0.0716;-0.9626;
1121.4000;0.0790;-0.9399;
1121.7000;0.0757;-0.9490;
1122.0000;0.0733;-0.9558;
1122.3000;0.0692;-0.9671;
1122.6000;0.0692;-0.9716;
1122.9000;0.0724;-0.9558;
1123.2000;0.0716;-0.9671;
1123.5000;0.0733;-0.9649;
1123.8000;0.0708;-0.9671;
1124.1000;0.0724;-0.9558;
1124.4000;0.0708;-0.9626;
1124.7000;0.0749;-0.9581;
1125.0000;0.0781;-0.9535;
1125.3000;0.0684;-0.9784;
1125.6000;0.0733;-0.9671;
1125.9000;0.0741;-0.9649;
1126.2000;0.0724;-0.9694;
1126.5000;0.0676;-0.9762;
1126.8000;0.0741;-0.9603;
1127.1000;0.0757;-0.9558;
1127.4000;0.0741;-0.9626;
1127.7000;0.0733;-0.9649;
1128.0000;0.0733;-0.9671;
1128.3000;0.0692;-0.9762;
1128.6000;0.0724;-0.9739;
1128.9000;0.0733;-0.9716;
1129.2000;0.0790;-0.9649;
1129.5000;0.0790;-0.9558;
1129.8000;0.0733;-0.9784;
1130.1000;0.0627;-1.0011;
1130.4000;0.0708;-0.9784;
1130.7000;0.0708;-0.9762;
1131.0000;0.0716;-0.9807;
1131.3000;0.0733;-0.9807;
1131.6000;0.0733;-0.9830;
1131.9000;0.0716;-0.9807;
1132.2000;0.0757;-0.9694;
1132.5000;0.0733;-0.9807;
1132.8000;0.0724;-0.9807;
1133.1000;0.0733;-0.9807;
1133.4000;0.0684;-0.9830;
1133.7000;0.0733;-0.9830;
1134.0000;0.0733;-0.9875;
1134.3000;0.0741;-0.9875;
1134.6000;0.0733;-0.9852;
1134.9000;0.0749;-0.9875;
1135.2000;0.0659;-1.0079;
1135.5000;0.0724;-0.9830;
1135.8000;0.0733;-0.9830;
1136.1000;0.0773;-0.9762;
1136.4000;0.0741;-0.9898;
1136.7000;0.0806;-0.9671;
1137.0000;0.0708;-0.9898;
1137.3000;0.0724;-0.9920;
1137.6000;0.0716;-0.9943;
1137.9000;0.0716;-0.9852;
1138.2000;0.0700;-0.9830;
1138.5000;0.0757;-0.9671;
1138.8000;0.0757;-0.9535;
1139.1000;0.0724;-0.9603;
1139.4000;0.0724;-0.9581;
1139.7000;0.0724;-0.9649;
1140.0000;0.0749;-0.9513;
1140.3000;0.0749;-0.9581;
1140.6000;0.0741;-0.9581;
1140.9000;0.0757;-0.9535;
1141.2000;0.0741;-0.9513;
1141.5000;0.0716;-0.9490;
1141.8000;0.0733;-0.9422;
1142.1000;0.0733;-0.9445;
1142.4000;0.0619;-0.9716;
1142.7000;0.0733;-0.9513;
1143.0000;0.0749;-0.9490;
1143.3000;0.0733;-0.9535;
1143.6000;0.0676;-0.9739;
1143.9000;0.0773;-0.9558;
1144.2000;0.0724;-0.9762;
1144.5000;0.0733;-0.9716;
1144.8000;0.0733;-0.9762;
1145.1000;0.0708;-0.9739;
1145.4000;0.0757;-0.9535;
1145.7000;0.0749;-0.9535;
1146.0000;0.0733;-0.9558;
1146.3000;0.0716;-0.9581;
1146.6000;0.0749;-0.9535;
1146.9000;0.0733;-0.9467;
1147.2000;0.0741;-0.9467;
1147.5000;0.0798;-0.9354;
1147.8000;0.0716;-0.9558;
1148.1000;0.0708;-0.9513;
1148.4000;0.0643;-0.9626;
1148.7000;0.0757;-0.9354;
1149.0000;0.0724;-0.9422;
1149.3000;0.0724;-0.9309;
1149.6000;0.0724;-0.9422;
1149.9000;0.0724;-0.9399;
1150.2000;0.0733;-0.9331;
1150.5000;0.0765;-0.9218;
1150.8000;0.0741;-0.9422;
1151.1000;0.0700;-0.9581;
1151.4000;0.0814;-0.9422;
1151.7000;0.0724;-0.9626;
1152.0000;0.0716;-0.9603;
1152.3000;0.0749;-0.9513;
1152.6000;0.0708;-0.9649;
1152.9000;0.0716;-0.9603;
1153.2000;0.0700;-0.9603;
1153.5000;0.0708;-0.9649;
1153.8000;0.0716;-0.9626;
1154.1000;0.0724;-0.9649;
1154.4000;0.0741;-0.9558;
1154.7000;0.0733;-0.9581;
1155.0000;0.0692;-0.9581;
1155.3000;0.0700;-0.9535;
1155.6000;0.0724;-0.9422;
1155.9000;0.0716;-0.9445;
1156.2000;0.0757;-0.9467;
1156.5000;0.0741;-0.9445;
1156.8000;0.0724;-0.9490;
1157.1000;0.0700;-0.9513;
1157.4000;0.0757;-0.9535;
1157.7000;0.0651;-0.9830;
1158.0000;0.0749;-0.9671;
1158.3000;0.0724;-0.9716;
1158.6000;0.0716;-0.9694;
1158.9000;0.0716;-0.9649;
1159.2000;0.0708;-0.9716;
1159.5000;0.0724;-0.9762;
1159.8000;0.0724;-0.9716;
1160.1000;0.0733;-0.9762;
1160.4000;0.0733;-0.9671;
1160.7000;0.0757;-0.9649;
1161.0000;0.0716;-0.9762;
1161.3000;0.0741;-0.9626;
1161.6000;0.0773;-0.9626;
1161.9000;0.0741;-0.9694;
1162.2000;0.0741;-0.9626;
1162.5000;0.0716;-0.9807;
1162.8000;0.0716;-0.9694;
1163.1000;0.0733;-0.9626;
1163.4000;0.0724;-0.9649;
1163.7000;0.0676;-0.9716;
1164.0000;0.0700;-0.9694;
1164.3000;0.0757;-0.9513;
1164.6000;0.0676;-0.9807;
1164.9000;0.0733;-0.9603;
1165.2000;0.0773;-0.9513;
1165.5000;0.0733;-0.9558;
1165.8000;0.0733;-0.9671;
1166.1000;0.0765;-0.9490;
1166.4000;0.0749;-0.9467;
1166.7000;0.0733;-0.9490;
1167.0000;0.0757;-0.9513;
1167.3000;0.0790;-0.9377;
1167.6000;0.0749;-0.9535;
1167.9000;0.0643;-0.9784;
1168.2000;0.0692;-0.9558;
1168.5000;0.0733;-0.9467;
1168.8000;0.0733;-0.9490;
1169.1000;0.0700;-0.9626;
1169.4000;0.0700;-0.9671;
1169.7000;0.0741;-0.9581;
1170.0000;0.0676;-0.9716;
1170.3000;0.0757;-0.9535;
1170.6000;0.0716;-0.9649;
1170.9000;0.0790;-0.9490;
1171.2000;0.0716;-0.9694;
1171.5000;0.0757;-0.9535;
1171.8000;0.0692;-0.9762;
1172.1000;0.0708;-0.9603;
1172.4000;0.0781;-0.9263;
1172.7000;0.0798;-0.9286;
1173.0000;0.0724;-0.9558;
1173.3000;0.0773;-0.9399;
1173.6000;0.0749;-0.9354;
1173.9000;0.0863;-0.9082;
1174.2000;0.0700;-0.9490;
1174.5000;0.0570;-0.9739;
1174.8000;0.0700;-0.9467;
1175.1000;0.0741;-0.9445;
1175.4000;0.0838;-0.9218;
1175.7000;0.0749;-0.9445;
1176.0000;0.0708;-0.9445;
1176.3000;0.0733;-0.9354;
1176.6000;0.0773;-0.9263;
1176.9000;0.0716;-0.9331;
1177.2000;0.0651;-0.9513;
1177.5000;0.0716;-0.9399;
1177.8000;0.0724;-0.9354;
1178.1000;0.0708;-0.9445;
1178.4000;0.0724;-0.9445;
1178.7000;0.0733;-0.9331;
1179.0000;0.0741;-0.9399;
1179.3000;0.0708;-0.9422;
1179.6000;0.0708;-0.9445;
1179.9000;0.0716;-0.9445;
1180.2000;0.0806;-0.9241;
1180.5000;0.0741;-0.9445;
1180.8000;0.0724;-0.9558;
1181.1000;0.0733;-0.9581;
1181.4000;0.0741;-0.9603;
1181.7000;0.0749;-0.9581;
1182.0000;0.0700;-0.9626;
1182.3000;0.0733;-0.9535;
1182.6000;0.0741;-0.9535;
1182.9000;0.0733;-0.9603;
1183.2000;0.0716;-0.9649;
1183.5000;0.0724;-0.9626;
1183.8000;0.0733;-0.9558;
1184.1000;0.0724;-0.9581;
1184.4000;0.0741;-0.9558;
1184.7000;0.0708;-0.9603;
1185.0000;0.0708;-0.9581;
1185.3000;0.0724;-0.9558;
1185.6000;0.0733;-0.9535;
1185.9000;0.0741;-0.9490;
1186.2000;0.0708;-0.9581;
1186.5000;0.0716;-0.9490;
1186.8000;0.0741;-0.9445;
1187.1000;0.0749;-0.9490;
1187.4000;0.0798;-0.9331;
1187.7000;0.0716;-0.9603;
1188.0000;0.0741;-0.9603;
1188.3000;0.0855;-0.9241;
1188.6000;0.0741;-0.9558;
1188.9000;0.0724;-0.9626;
1189.2000;0.0708;-0.9694;
1189.5000;0.0765;-0.9581;
1189.8000;0.0724;-0.9739;
1190.1000;0.0733;-0.9739;
1190.4000;0.0733;-0.9739;
1190.7000;0.0716;-0.9694;
1191.0000;0.0676;-0.9739;
1191.3000;0.0724;-0.9581;
1191.6000;0.0716;-0.9535;
1191.9000;0.0781;-0.9377;
1192.2000;0.0724;-0.9467;
1192.5000;0.0724;-0.9445;
1192.8000;0.0700;-0.9467;
1193.1000;0.0724;-0.9377;
1193.4000;0.0700;-0.9467;
1193.7000;0.0708;-0.9535;
1194.0000;0.0700;-0.9535;
1194.3000;0.0708;-0.9558;
1194.6000;0.0733;-0.9467;
1194.9000;0.0733;-0.9467;
1195.2000;0.0700;-0.9558;
1195.5000;0.0765;-0.9467;
1195.8000;0.0659;-0.9762;
1196.1000;0.0724;-0.9603;
1196.4000;0.0724;-0.9649;
1196.7000;0.0749;-0.9490;
1197.0000;0.0659;-0.9626;
1197.3000;0.0708;-0.9513;
1197.6000;0.0741;-0.9467;
1197.9000;0.0838;-0.9128;
1198.2000;0.0716;-0.9354;
1198.5000;0.0733;-0.9377;
1198.8000;0.0667;-0.9490;
1199.1000;0.0733;-0.9309;
1199.4000;0.0757;-0.9173;
1199.7000;0.0708;-0.9263;
1200.0000;0.0741;-0.9241;
1200.3000;0.0724;-0.9331;
1200.6000;0.0708;-0.9490;
1200.9000;0.0724;-0.9513;
1201.2000;0.0733;-0.9558;
1201.5000;0.0765;-0.9626;
1201.8000;0.0733;-0.9762;
1202.1000;0.0700;-0.9830;
1202.4000;0.0724;-0.9807;
1202.7000;0.0741;-0.9739;
1203.0000;0.0733;-0.9739;
1203.3000;0.0733;-0.9739;
1203.6000;0.0716;-0.9694;
1203.9000;0.0724;-0.9649;
1204.2000;0.0838;-0.9354;
1204.5000;0.0733;-0.9581;
1204.8000;0.0724;-0.9603;
1205.1000;0.0700;-0.9558;
1205.4000;0.0716;-0.9422;
1205.7000;0.0741;-0.9377;
1206.0000;0.0692;-0.9513;
1206.3000;0.0749;-0.9399;
1206.6000;0.0895;-0.9173;
1206.9000;0.0733;-0.9649;
1207.2000;0.0749;-0.9535;
1207.5000;0.0765;-0.9422;
1207.8000;0.0724;-0.9513;
1208.1000;0.0765;-0.9422;
1208.4000;0.0716;-0.9490;
1208.7000;0.0659;-0.9762;
1209.0000;0.0667;-0.9762;
1209.3000;0.0667;-0.9830;
1209.6000;0.0724;-0.9671;
1209.9000;0.0684;-0.9649;
1210.2000;0.0741;-0.9490;
1210.5000;0.0692;-0.9671;
1210.8000;0.0757;-0.9490;
1211.1000;0.0773;-0.9422;
1211.4000;0.0920;-0.8946;
1211.7000;0.0716;-0.9558;
1212.0000;0.0724;-0.9581;
1212.3000;0.0822;-0.9422;
1212.6000;0.0741;-0.9535;
1212.9000;0.0708;-0.9535;
1213.2000;0.0741;-0.9445;
1213.5000;0.0643;-0.9739;
1213.8000;0.0741;-0.9513;
1214.1000;0.0749;-0.9581;
1214.4000;0.0733;-0.9535;
1214.7000;0.0741;-0.9558;
1215.0000;0.0708;-0.9671;
1215.3000;0.0733;-0.9626;
1215.6000;0.0724;-0.9716;
1215.9000;0.0724;-0.9603;
1216.2000;0.0757;-0.9558;
1216.5000;0.0757;-0.9581;
1216.8000;0.0741;-0.9603;
1217.1000;0.0733;-0.9558;
1217.4000;0.0741;-0.9445;
1217.7000;0.0741;-0.9513;
1218.0000;0.0716;-0.9467;
1218.3000;0.0749;-0.9399;
1218.6000;0.0700;-0.9626;
1218.9000;0.0716;-0.9626;
1219.2000;0.0700;-0.9671;
1219.5000;0.0749;-0.9558;
1219.8000;0.0724;-0.9694;
1220.1000;0.0733;-0.9716;
1220.4000;0.0733;-0.9649;
1220.7000;0.0724;-0.9671;
1221.0000;0.0716;-0.9671;
1221.3000;0.0724;-0.9626;
1221.6000;0.0765;-0.9445;
1221.9000;0.0733;-0.9490;
1222.2000;0.0724;-0.9558;
1222.5000;0.0757;-0.9490;
1222.8000;0.0667;-0.9671;
1223.1000;0.0749;-0.9513;
1223.4000;0.0749;-0.9513;
1223.7000;0.0724;-0.9649;
1224.0000;0.0708;-0.9694;
1224.3000;0.0716;-0.9649;
1224.6000;0.0724;-0.9603;
1224.9000;0.0724;-0.9671;
1225.2000;0.0806;-0.9445;
1225.5000;0.0741;-0.9535;
1225.8000;0.0724;-0.9535;
1226.1000;0.0838;-0.9309;
1226.4000;0.0749;-0.9490;
1226.7000;0.0741;-0.9490;
1227.0000;0.0716;-0.9626;
1227.3000;0.0716;-0.9626;
1227.6000;0.0716;-0.9716;
1227.9000;0.0724;-0.9784;
1228.2000;0.0627;-1.0034;
1228.5000;0.0733;-0.9784;
1228.8000;0.0733;-0.9807;
1229.1000;0.0708;-0.9852;
1229.4000;0.0716;-0.9830;
1229.7000;0.0716;-0.9784;
1230.0000;0.0700;-0.9739;
1230.3000;0.0733;-0.9762;
1230.6000;0.0733;-0.9716;
1230.9000;0.0741;-0.9694;
1231.2000;0.0724;-0.9784;
1231.5000;0.0757;-0.9852;
1231.8000;0.0700;-0.9966;
1232.1000;0.0741;-0.9807;
1232.4000;0.0733;-0.9807;
1232.7000;0.0716;-0.9784;
1233.0000;0.0700;-0.9852;
1233.3000;0.0716;-0.9875;
1233.6000;0.0749;-0.9716;
1233.9000;0.0733;-0.9716;
1234.2000;0.0765;-0.9649;
1234.5000;0.0773;-0.9694;
1234.8000;0.0790;-0.9694;
1235.1000;0.0741;-0.9807;
1235.4000;0.0708;-0.9716;
1235.7000;0.0773;-0.9581;
1236.0000;0.0741;-0.9762;
1236.3000;0.0716;-0.9694;
1236.6000;0.0602;-0.9988;
1236.9000;0.0733;-0.9716;
1237.2000;0.0741;-0.9694;
1237.5000;0.0724;-0.9762;
1237.8000;0.0741;-0.9649;
1238.1000;0.0724;-0.9694;
1238.4000;0.0749;-0.9716;
1238.7000;0.0773;-0.9558;
1239.0000;0.0749;-0.9694;
1239.3000;0.0733;-0.9716;
1239.6000;0.0724;-0.9807;
1239.9000;0.0757;-0.9739;
1240.2000;0.0716;-0.9739;
1240.5000;0.0716;-0.9830;
1240.8000;0.0724;-0.9716;
1241.1000;0.0773;-0.9490;
1241.4000;0.0822;-0.9399;
1241.7000;0.0741;-0.9603;
1242.0000;0.0724;-0.9626;
1242.3000;0.0749;-0.9581;
1242.6000;0.0724;-0.9626;
1242.9000;0.0733;-0.9603;
1243.2000;0.0733;-0.9603;
1243.5000;0.0708;-0.9649;
1243.8000;0.0716;-0.9603;
1244.1000;0.0724;-0.9603;
1244.4000;0.0749;-0.9626;
1244.7000;0.0716;-0.9558;
1245.0000;0.0741;-0.9603;
1245.3000;0.0765;-0.9694;
1245.6000;0.0724;-0.9830;
1245.9000;0.0708;-0.9875;
1246.2000;0.0773;-0.9716;
1246.5000;0.0733;-0.9739;
1246.8000;0.0741;-0.9626;
1247.1000;0.0830;-0.9354;
1247.4000;0.0733;-0.9581;
1247.7000;0.0716;-0.9649;
1248.0000;0.0651;-0.9830;
1248.3000;0.0733;-0.9694;
1248.6000;0.0798;-0.9490;
1248.9000;0.0749;-0.9603;
1249.2000;0.0733;-0.9716;
1249.5000;0.0708;-0.9784;
1249.8000;0.0708;-0.9739;
1250.1000;0.0667;-0.9898;
1250.4000;0.0765;-0.9626;
1250.7000;0.0684;-0.9852;
1251.0000;0.0716;-0.9762;
1251.3000;0.0733;-0.9716;
1251.6000;0.0733;-0.9694;
1251.9000;0.0724;-0.9649;
1252.2000;0.0733;-0.9603;
1252.5000;0.0724;-0.9603;
1252.8000;0.0741;-0.9490;
1253.1000;0.0765;-0.9467;
1253.4000;0.0708;-0.9671;
1253.7000;0.0667;-0.9807;
1254.0000;0.0733;-0.9716;
1254.3000;0.0724;-0.9649;
1254.6000;0.0749;-0.9603;
1254.9000;0.0741;-0.9626;
1255.2000;0.0757;-0.9649;
1255.5000;0.0733;-0.9762;
1255.8000;0.0749;-0.9762;
1256.1000;0.0724;-0.9762;
1256.4000;0.0749;-0.9626;
1256.7000;0.0765;-0.9581;
1257.0000;0.0716;-0.9739;
1257.3000;0.0700;-0.9784;
1257.6000;0.0716;-0.9694;
1257.9000;0.0757;-0.9603;
1258.2000;0.0708;-0.9739;
1258.5000;0.0765;-0.9535;
1258.8000;0.0684;-0.9784;
1259.1000;0.0586;-1.0034;
1259.4000;0.0708;-0.9852;
1259.7000;0.0651;-0.9988;
1260.0000;0.0716;-0.9784;
1260.3000;0.0733;-0.9671;
1260.6000;0.0700;-0.9694;
1260.9000;0.0724;-0.9603;
1261.2000;0.0724;-0.9603;
1261.5000;0.0757;-0.9603;
1261.8000;0.0724;-0.9603;
1262.1000;0.0635;-0.9898;
1262.4000;0.0733;-0.9694;
1262.7000;0.0765;-0.9603;
1263.0000;0.0733;-0.9535;
1263.3000;0.0733;-0.9558;
1263.6000;0.0716;-0.9649;
1263.9000;0.0724;-0.9603;
1264.2000;0.0692;-0.9558;
1264.5000;0.0700;-0.9513;
1264.8000;0.0733;-0.9467;
1265.1000;0.0667;-0.9581;
1265.4000;0.0773;-0.9218;
1265.7000;0.0724;-0.9377;
1266.0000;0.0708;-0.9445;
1266.3000;0.0863;-0.9082;
1266.6000;0.0733;-0.9377;
1266.9000;0.0716;-0.9467;
1267.2000;0.0773;-0.9263;
1267.5000;0.0676;-0.9377;
1267.8000;0.0692;-0.9377;
1268.1000;0.0692;-0.9354;
1268.4000;0.0627;-0.9581;
1268.7000;0.0708;-0.9399;
1269.0000;0.0765;-0.9331;
1269.3000;0.0749;-0.9263;
1269.6000;0.0724;-0.9377;
1269.9000;0.0684;-0.9422;
1270.2000;0.0790;-0.9105;
1270.5000;0.0733;-0.9286;
1270.8000;0.0798;-0.9196;
1271.1000;0.0700;-0.9467;
1271.4000;0.0741;-0.9354;
1271.7000;0.0741;-0.9377;
1272.0000;0.0757;-0.9377;
1272.3000;0.0773;-0.9331;
1272.6000;0.0741;-0.9445;
1272.9000;0.0733;-0.9445;
1273.2000;0.0741;-0.9467;
1273.5000;0.0724;-0.9535;
1273.8000;0.0733;-0.9603;
1274.1000;0.0724;-0.9581;
1274.4000;0.0741;-0.9581;
1274.7000;0.0741;-0.9490;
1275.0000;0.0749;-0.9399;
1275.3000;0.0781;-0.9263;
1275.6000;0.0724;-0.9490;
1275.9000;0.0733;-0.9467;
1276.2000;0.0724;-0.9535;
1276.5000;0.0757;-0.9354;
1276.8000;0.0733;-0.9309;
1277.1000;0.0871;-0.8924;
1277.4000;0.0733;-0.9241;
1277.7000;0.0781;-0.9150;
1278.0000;0.0741;-0.9173;
1278.3000;0.0741;-0.9060;
1278.6000;0.0733;-0.9014;
1278.9000;0.0733;-0.8992;
1279.2000;0.0749;-0.8992;
1279.5000;0.0733;-0.9082;
1279.8000;0.0733;-0.9173;
1280.1000;0.0741;-0.9150;
1280.4000;0.0773;-0.9173;
1280.7000;0.0733;-0.9286;
1281.0000;0.0757;-0.9286;
1281.3000;0.0708;-0.9422;
1281.6000;0.0749;-0.9377;
1281.9000;0.0749;-0.9377;
1282.2000;0.0667;-0.9694;
1282.5000;0.0708;-0.9513;
1282.8000;0.0716;-0.9490;
1283.1000;0.0749;-0.9309;
1283.4000;0.0619;-0.9649;
1283.7000;0.0733;-0.9331;
1284.0000;0.0708;-0.9445;
1284.3000;0.0700;-0.9445;
1284.6000;0.0716;-0.9467;
1284.9000;0.0716;-0.9399;
1285.2000;0.0692;-0.9467;
1285.5000;0.0724;-0.9377;
1285.8000;0.0716;-0.9331;
1286.1000;0.0700;-0.9354;
1286.4000;0.0724;-0.9377;
1286.7000;0.0692;-0.9445;
1287.0000;0.0684;-0.9422;
1287.3000;0.0716;-0.9377;
1287.6000;0.0651;-0.9467;
1287.9000;0.0741;-0.9286;
1288.2000;0.0749;-0.9241;
1288.5000;0.0733;-0.9331;
1288.8000;0.0733;-0.9309;
1289.1000;0.0708;-0.9331;
1289.4000;0.0724;-0.9309;
1289.7000;0.0749;-0.9150;
1290.0000;0.0724;-0.9150;
1290.3000;0.0667;-0.9354;
1290.6000;0.0708;-0.9241;
1290.9000;0.0741;-0.9241;
1291.2000;0.0692;-0.9422;
1291.5000;0.0643;-0.9626;
1291.8000;0.0733;-0.9354;
1292.1000;0.0741;-0.9331;
1292.4000;0.0716;-0.9377;
1292.7000;0.0578;-0.9694;
1293.0000;0.0773;-0.9150;
1293.3000;0.0741;-0.9196;
1293.6000;0.0716;-0.9196;
1293.9000;0.0708;-0.9218;
1294.2000;0.0716;-0.9286;
1294.5000;0.0724;-0.9286;
1294.8000;0.0733;-0.9196;
1295.1000;0.0708;-0.9196;
1295.4000;0.0716;-0.9286;
1295.7000;0.0724;-0.9377;
1296.0000;0.0724;-0.9354;
1296.3000;0.0741;-0.9331;
1296.6000;0.0708;-0.9422;
1296.9000;0.0708;-0.9467;
1297.2000;0.0814;-0.9196;
1297.5000;0.0757;-0.9354;
1297.8000;0.0733;-0.9377;
1298.1000;0.0733;-0.9354;
1298.4000;0.0724;-0.9286;
1298.7000;0.0741;-0.9286;
1299.0000;0.0733;-0.9241;
1299.3000;0.0724;-0.9263;
1299.6000;0.0708;-0.9331;
1299.9000;0.0749;-0.9263;
1300.2000;0.0708;-0.9286;
1300.5000;0.0741;-0.9128;
1300.8000;0.0692;-0.9196;
1301.1000;0.0716;-0.9218;
1301.4000;0.0749;-0.9150;
1301.7000;0.0733;-0.9128;
1302.0000;0.0733;-0.9128;
1302.3000;0.0724;-0.9241;
1302.6000;0.0733;-0.9286;
1302.9000;0.0781;-0.9150;
1303.2000;0.0765;-0.9173;
1303.5000;0.0684;-0.9286;
1303.8000;0.0700;-0.9196;
1304.1000;0.0667;-0.9331;
1304.4000;0.0667;-0.9399;
1304.7000;0.0741;-0.9263;
1305.0000;0.0733;-0.9241;
1305.3000;0.0724;-0.9241;
1305.6000;0.0733;-0.9196;
1305.9000;0.0757;-0.9241;
1306.2000;0.0716;-0.9354;
1306.5000;0.0765;-0.9309;
1306.8000;0.0700;-0.9399;
1307.1000;0.0708;-0.9399;
1307.4000;0.0757;-0.9286;
1307.7000;0.0724;-0.9377;
1308.0000;0.0716;-0.9445;
1308.3000;0.0733;-0.9354;
1308.6000;0.0733;-0.9422;
1308.9000;0.0733;-0.9490;
1309.2000;0.0806;-0.9354;
1309.5000;0.0586;-0.9875;
1309.8000;0.0757;-0.9513;
1310.1000;0.0708;-0.9649;
1310.4000;0.0716;-0.9535;
1310.7000;0.0667;-0.9581;
1311.0000;0.0716;-0.9399;
1311.3000;0.0749;-0.9286;
1311.6000;0.0741;-0.9331;
1311.9000;0.0757;-0.9286;
1312.2000;0.0716;-0.9309;
1312.5000;0.0733;-0.9286;
1312.8000;0.0716;-0.9309;
1313.1000;0.0708;-0.9422;
1313.4000;0.0716;-0.9354;
1313.7000;0.0749;-0.9263;
1314.0000;0.0724;-0.9354;
1314.3000;0.0741;-0.9286;
1314.6000;0.0708;-0.9354;
1314.9000;0.0757;-0.9263;
1315.2000;0.0757;-0.9354;
1315.5000;0.0700;-0.9513;
1315.8000;0.0741;-0.9445;
1316.1000;0.0733;-0.9377;
1316.4000;0.0765;-0.9354;
1316.7000;0.0700;-0.9399;
1317.0000;0.0749;-0.9309;
1317.3000;0.0757;-0.9331;
1317.6000;0.0757;-0.9309;
1317.9000;0.0708;-0.9513;
1318.2000;0.0749;-0.9354;
1318.5000;0.0741;-0.9354;
1318.8000;0.0676;-0.9513;
1319.1000;0.0684;-0.9422;
1319.4000;0.0741;-0.9331;
1319.7000;0.0708;-0.9445;
1320.0000;0.0822;-0.9241;
1320.3000;0.0741;-0.9535;
1320.6000;0.0716;-0.9513;
1320.9000;0.0724;-0.9467;
1321.2000;0.0724;-0.9422;
1321.5000;0.0700;-0.9558;
1321.8000;0.0724;-0.9467;
1322.1000;0.0733;-0.9490;
1322.4000;0.0741;-0.9422;
1322.7000;0.0724;-0.9399;
1323.0000;0.0757;-0.9354;
1323.3000;0.0887;-0.9014;
1323.6000;0.0724;-0.9309;
1323.9000;0.0716;-0.9399;
1324.2000;0.0733;-0.9286;
1324.5000;0.0692;-0.9399;
1324.8000;0.0733;-0.9286;
1325.1000;0.0684;-0.9445;
1325.4000;0.0733;-0.9377;
1325.7000;0.0765;-0.9331;
1326.0000;0.0749;-0.9377;
1326.3000;0.0716;-0.9445;
1326.6000;0.0773;-0.9399;
1326.9000;0.0692;-0.9558;
1327.2000;0.0757;-0.9445;
1327.5000;0.0716;-0.9422;
1327.8000;0.0708;-0.9422;
1328.1000;0.0741;-0.9331;
1328.4000;0.0635;-0.9603;
1328.7000;0.0765;-0.9399;
1329.0000;0.0749;-0.9399;
1329.3000;0.0733;-0.9445;
1329.6000;0.0741;-0.9490;
1329.9000;0.0749;-0.9513;
1330.2000;0.0733;-0.9467;
1330.5000;0.0716;-0.9626;
1330.8000;0.0741;-0.9513;
1331.1000;0.0724;-0.9535;
1331.4000;0.0733;-0.9490;
1331.7000;0.0749;-0.9490;
1332.0000;0.0724;-0.9490;
1332.3000;0.0733;-0.9354;
1332.6000;0.0798;-0.9173;
1332.9000;0.0749;-0.9241;
1333.2000;0.0716;-0.9399;
1333.5000;0.0724;-0.9399;
1333.8000;0.0741;-0.9286;
1334.1000;0.0700;-0.9331;
1334.4000;0.0708;-0.9354;
1334.7000;0.0741;-0.9377;
1335.0000;0.0741;-0.9354;
1335.3000;0.0716;-0.9445;
1335.6000;0.0716;-0.9490;
1335.9000;0.0692;-0.9558;
1336.2000;0.0733;-0.9399;
1336.5000;0.0741;-0.9445;
1336.8000;0.0708;-0.9467;
1337.1000;0.0724;-0.9467;
1337.4000;0.0765;-0.9422;
1337.7000;0.0749;-0.9445;
1338.0000;0.0716;-0.9490;
1338.3000;0.0724;-0.9490;
1338.6000;0.0692;-0.9445;
1338.9000;0.0724;-0.9377;
1339.2000;0.0724;-0.9399;
1339.5000;0.0733;-0.9377;
1339.8000;0.0733;-0.9422;
1340.1000;0.0716;-0.9377;
1340.4000;0.0781;-0.9286;
1340.7000;0.0741;-0.9354;
1341.0000;0.0716;-0.9377;
1341.3000;0.0708;-0.9354;
1341.6000;0.0700;-0.9377;
1341.9000;0.0724;-0.9354;
1342.2000;0.0749;-0.9331;
1342.5000;0.0708;-0.9354;
1342.8000;0.0741;-0.9286;
1343.1000;0.0806;-0.9263;
1343.4000;0.0724;-0.9490;
1343.7000;0.0708;-0.9331;
1344.0000;0.0773;-0.9241;
1344.3000;0.0733;-0.9467;
1344.6000;0.0716;-0.9558;
1344.9000;0.0692;-0.9626;
1345.2000;0.0757;-0.9445;
1345.5000;0.0733;-0.9377;
1345.8000;0.0830;-0.9218;
1346.1000;0.0757;-0.9422;
1346.4000;0.0733;-0.9422;
1346.7000;0.0749;-0.9377;
1347.0000;0.0716;-0.9399;
1347.3000;0.0741;-0.9331;
1347.6000;0.0741;-0.9399;
1347.9000;0.0733;-0.9445;
1348.2000;0.0741;-0.9354;
1348.5000;0.0724;-0.9377;
1348.8000;0.0700;-0.9467;
1349.1000;0.0667;-0.9626;
1349.4000;0.0733;-0.9422;
1349.7000;0.0724;-0.9354;
1350.0000;0.0684;-0.9399;
1350.3000;0.0724;-0.9241;
1350.6000;0.0733;-0.9286;
1350.9000;0.0716;-0.9513;
1351.2000;0.0765;-0.9422;
1351.5000;0.0741;-0.9445;
1351.8000;0.0684;-0.9626;
1352.1000;0.0708;-0.9558;
1352.4000;0.0765;-0.9399;
1352.7000;0.0741;-0.9467;
1353.0000;0.0700;-0.9490;
1353.3000;0.0733;-0.9377;
1353.6000;0.0733;-0.9331;
1353.9000;0.0781;-0.9241;
1354.2000;0.0724;-0.9445;
1354.5000;0.0716;-0.9399;
1354.8000;0.0733;-0.9377;
1355.1000;0.0741;-0.9422;
1355.4000;0.0733;-0.9445;
1355.7000;0.0708;-0.9490;
1356.0000;0.0733;-0.9445;
1356.3000;0.0724;-0.9422;
1356.6000;0.0741;-0.9354;
1356.9000;0.0741;-0.9309;
1357.2000;0.0749;-0.9309;
1357.5000;0.0611;-0.9671;
1357.8000;0.0741;-0.9331;
1358.1000;0.0724;-0.9399;
1358.4000;0.0716;-0.9467;
1358.7000;0.0667;-0.9558;
1359.0000;0.0692;-0.9558;
1359.3000;0.0724;-0.9445;
1359.6000;0.0733;-0.9399;
1359.9000;0.0741;-0.9467;
1360.2000;0.0724;-0.9513;
1360.5000;0.0724;-0.9581;
1360.8000;0.0806;-0.9513;
1361.1000;0.0749;-0.9671;
1361.4000;0.0733;-0.9649;
1361.7000;0.0773;-0.9513;
1362.0000;0.0733;-0.9671;
1362.3000;0.0741;-0.9694;
1362.6000;0.0741;-0.9739;
1362.9000;0.0676;-0.9875;
1363.2000;0.0741;-0.9762;
1363.5000;0.0700;-0.9830;
1363.8000;0.0708;-0.9920;
1364.1000;0.0643;-1.0101;
1364.4000;0.0716;-0.9898;
1364.7000;0.0651;-1.0034;
1365.0000;0.0733;-0.9807;
1365.3000;0.0733;-0.9807;
1365.6000;0.0749;-0.9694;
1365.9000;0.0724;-0.9739;
1366.2000;0.0700;-0.9807;
1366.5000;0.0830;-0.9467;
1366.8000;0.0733;-0.9603;
1367.1000;0.0741;-0.9513;
1367.4000;0.0724;-0.9671;
1367.7000;0.0733;-0.9535;
1368.0000;0.0724;-0.9513;
1368.3000;0.0741;-0.9513;
1368.6000;0.0684;-0.9762;
1368.9000;0.0716;-0.9784;
1369.2000;0.0708;-0.9762;
1369.5000;0.0700;-0.9739;
1369.8000;0.0724;-0.9671;
1370.1000;0.0733;-0.9603;
1370.4000;0.0716;-0.9694;
1370.7000;0.0724;-0.9535;
1371.0000;0.0749;-0.9467;
1371.3000;0.0724;-0.9558;
1371.6000;0.0708;-0.9603;
1371.9000;0.0724;-0.9535;
1372.2000;0.0733;-0.9513;
1372.5000;0.0741;-0.9445;
1372.8000;0.0724;-0.9513;
1373.1000;0.0724;-0.9513;
1373.4000;0.0733;-0.9399;
1373.7000;0.0733;-0.9445;
1374.0000;0.0733;-0.9467;
1374.3000;0.0724;-0.9535;
1374.6000;0.0830;-0.9263;
1374.9000;0.0733;-0.9445;
1375.2000;0.0708;-0.9581;
1375.5000;0.0708;-0.9513;
1375.8000;0.0724;-0.9490;
1376.1000;0.0684;-0.9649;
1376.4000;0.0733;-0.9558;
1376.7000;0.0741;-0.9603;
1377.0000;0.0741;-0.9581;
1377.3000;0.0765;-0.9535;
1377.6000;0.0741;-0.9603;
1377.9000;0.0724;-0.9581;
1378.2000;0.0822;-0.9399;
1378.5000;0.0757;-0.9558;
1378.8000;0.0708;-0.9626;
1379.1000;0.0724;-0.9535;
1379.4000;0.0733;-0.9467;
1379.7000;0.0724;-0.9490;
1380.0000;0.0724;-0.9558;
1380.3000;0.0716;-0.9490;
1380.6000;0.0692;-0.9513;
1380.9000;0.0676;-0.9558;
1381.2000;0.0741;-0.9399;
1381.5000;0.0733;-0.9490;
1381.8000;0.0716;-0.9490;
1382.1000;0.0724;-0.9399;
1382.4000;0.0692;-0.9513;
1382.7000;0.0700;-0.9467;
1383.0000;0.0716;-0.9445;
1383.3000;0.0716;-0.9377;
1383.6000;0.0684;-0.9558;
1383.9000;0.0716;-0.9422;
1384.2000;0.0700;-0.9467;
1384.5000;0.0733;-0.9399;
1384.8000;0.0765;-0.9399;
1385.1000;0.0692;-0.9581;
1385.4000;0.0716;-0.9513;
1385.7000;0.0708;-0.9603;
1386.0000;0.0724;-0.9558;
1386.3000;0.0708;-0.9535;
1386.6000;0.0708;-0.9445;
1386.9000;0.0724;-0.9422;
1387.2000;0.0708;-0.9467;
1387.5000;0.0716;-0.9422;
1387.8000;0.0749;-0.9263;
1388.1000;0.0773;-0.9218;
1388.4000;0.0716;-0.9309;
1388.7000;0.0741;-0.9286;
1389.0000;0.0733;-0.9286;
1389.3000;0.0724;-0.9286;
1389.6000;0.0716;-0.9218;
1389.9000;0.0667;-0.9399;
1390.2000;0.0757;-0.9173;
1390.5000;0.0708;-0.9377;
1390.8000;0.0741;-0.9286;
1391.1000;0.0733;-0.9377;
1391.4000;0.0635;-0.9603;
1391.7000;0.0724;-0.9263;
1392.0000;0.0749;-0.9263;
1392.3000;0.0773;-0.9241;
1392.6000;0.0700;-0.9331;
1392.9000;0.0700;-0.9422;
1393.2000;0.0724;-0.9286;
1393.5000;0.0724;-0.9218;
1393.8000;0.0708;-0.9196;
1394.1000;0.0692;-0.9196;
1394.4000;0.0700;-0.9218;
1394.7000;0.0765;-0.9082;
1395.0000;0.0724;-0.9196;
1395.3000;0.0749;-0.9241;
1395.6000;0.0700;-0.9399;
1395.9000;0.0741;-0.9286;
1396.2000;0.0692;-0.9399;
1396.5000;0.0708;-0.9377;
1396.8000;0.0749;-0.9331;
1397.1000;0.0749;-0.9331;
1397.4000;0.0749;-0.9399;
1397.7000;0.0708;-0.9399;
1398.0000;0.0749;-0.9309;
1398.3000;0.0724;-0.9309;
1398.6000;0.0733;-0.9354;
1398.9000;0.0667;-0.9399;
1399.2000;0.0724;-0.9354;
1399.5000;0.0700;-0.9377;
1399.8000;0.0741;-0.9218;
