time/ms;Fluo/V;P700 deltaI/I x10³;
-199.8000;0.0847;-0.8810;
-199.5000;0.0847;-0.8810;
-199.2000;0.0871;-0.8878;
-198.9000;0.0814;-0.9014;
-198.6000;0.0855;-0.8856;
-198.3000;0.0855;-0.8878;
-198.0000;0.0863;-0.8788;
-197.7000;0.0887;-0.8675;
-197.4000;0.0912;-0.8629;
-197.1000;0.0895;-0.8607;
-196.8000;0.0863;-0.8652;
-196.5000;0.0863;-0.8629;
-196.2000;0.0871;-0.8697;
-195.9000;0.0871;-0.8629;
-195.6000;0.0855;-0.8652;
-195.3000;0.0879;-0.8675;
-195.0000;0.0847;-0.8675;
-194.7000;0.0887;-0.8584;
-194.4000;0.0863;-0.8652;
-194.1000;0.0912;-0.8516;
-193.8000;0.0895;-0.8629;
-193.5000;0.0830;-0.8765;
-193.2000;0.0863;-0.8652;
-192.9000;0.0871;-0.8561;
-192.6000;0.0855;-0.8561;
-192.3000;0.0879;-0.8516;
-192.0000;0.0863;-0.8584;
-191.7000;0.0895;-0.8493;
-191.4000;0.0904;-0.8561;
-191.1000;0.0863;-0.8720;
-190.8000;0.0863;-0.8743;
-190.5000;0.0936;-0.8516;
-190.2000;0.0879;-0.8629;
-189.9000;0.0879;-0.8584;
-189.6000;0.0855;-0.8539;
-189.3000;0.0879;-0.8493;
-189.0000;0.0855;-0.8584;
-188.7000;0.0944;-0.8403;
-188.4000;0.0798;-0.8788;
-188.1000;0.0928;-0.8471;
-187.8000;0.0863;-0.8561;
-187.5000;0.0887;-0.8516;
-187.2000;0.0879;-0.8697;
-186.9000;0.0847;-0.8720;
-186.6000;0.0863;-0.8788;
-186.3000;0.0855;-0.8810;
-186.0000;0.0847;-0.8833;
-185.7000;0.0871;-0.8743;
-185.4000;0.0895;-0.8743;
-185.1000;0.0863;-0.8720;
-184.8000;0.0879;-0.8629;
-184.5000;0.0847;-0.8720;
-184.2000;0.0887;-0.8652;
-183.9000;0.0847;-0.8743;
-183.6000;0.0904;-0.8652;
-183.3000;0.0838;-0.8810;
-183.0000;0.0838;-0.8833;
-182.7000;0.0830;-0.8856;
-182.4000;0.0855;-0.8765;
-182.1000;0.0871;-0.8697;
-181.8000;0.0863;-0.8675;
-181.5000;0.0887;-0.8561;
-181.2000;0.0879;-0.8539;
-180.9000;0.0847;-0.8607;
-180.6000;0.0855;-0.8584;
-180.3000;0.0855;-0.8697;
-180.0000;0.0912;-0.8561;
-179.7000;0.0847;-0.8810;
-179.4000;0.0871;-0.8765;
-179.1000;0.0863;-0.8788;
-178.8000;0.0863;-0.8810;
-178.5000;0.0855;-0.8810;
-178.2000;0.0855;-0.8743;
-177.9000;0.0855;-0.8629;
-177.6000;0.0871;-0.8584;
-177.3000;0.0871;-0.8652;
-177.0000;0.0904;-0.8539;
-176.7000;0.0871;-0.8561;
-176.4000;0.0855;-0.8584;
-176.1000;0.0830;-0.8675;
-175.8000;0.0871;-0.8697;
-175.5000;0.0871;-0.8675;
-175.2000;0.0887;-0.8516;
-174.9000;0.0871;-0.8493;
-174.6000;0.0863;-0.8561;
-174.3000;0.0863;-0.8629;
-174.0000;0.0895;-0.8539;
-173.7000;0.0847;-0.8697;
-173.4000;0.0838;-0.8629;
-173.1000;0.0847;-0.8561;
-172.8000;0.0838;-0.8697;
-172.5000;0.0895;-0.8629;
-172.2000;0.0936;-0.8539;
-171.9000;0.0871;-0.8720;
-171.6000;0.0855;-0.8743;
-171.3000;0.0871;-0.8697;
-171.0000;0.0781;-0.8833;
-170.7000;0.0863;-0.8652;
-170.4000;0.0855;-0.8720;
-170.1000;0.0855;-0.8765;
-169.8000;0.0855;-0.8788;
-169.5000;0.0855;-0.8697;
-169.2000;0.0871;-0.8629;
-168.9000;0.0879;-0.8561;
-168.6000;0.0928;-0.8403;
-168.3000;0.0855;-0.8516;
-168.0000;0.0847;-0.8471;
-167.7000;0.0838;-0.8516;
-167.4000;0.0847;-0.8539;
-167.1000;0.0879;-0.8516;
-166.8000;0.0838;-0.8516;
-166.5000;0.0838;-0.8493;
-166.2000;0.0961;-0.8154;
-165.9000;0.0863;-0.8448;
-165.6000;0.0904;-0.8403;
-165.3000;0.0887;-0.8425;
-165.0000;0.0855;-0.8493;
-164.7000;0.0838;-0.8516;
-164.4000;0.0847;-0.8448;
-164.1000;0.0879;-0.8380;
-163.8000;0.0847;-0.8493;
-163.5000;0.0871;-0.8448;
-163.2000;0.0920;-0.8335;
-162.9000;0.0855;-0.8448;
-162.6000;0.0863;-0.8425;
-162.3000;0.0814;-0.8516;
-162.0000;0.0855;-0.8516;
-161.7000;0.0969;-0.8244;
-161.4000;0.0863;-0.8516;
-161.1000;0.0879;-0.8425;
-160.8000;0.0912;-0.8403;
-160.5000;0.0830;-0.8584;
-160.2000;0.0863;-0.8471;
-159.9000;0.0871;-0.8425;
-159.6000;0.0863;-0.8448;
-159.3000;0.0887;-0.8425;
-159.0000;0.0912;-0.8358;
-158.7000;0.0855;-0.8471;
-158.4000;0.0781;-0.8697;
-158.1000;0.0863;-0.8493;
-157.8000;0.0855;-0.8425;
-157.5000;0.0944;-0.8290;
-157.2000;0.0822;-0.8629;
-156.9000;0.0847;-0.8607;
-156.6000;0.0822;-0.8675;
-156.3000;0.0855;-0.8584;
-156.0000;0.0830;-0.8652;
-155.7000;0.0863;-0.8584;
-155.4000;0.0871;-0.8539;
-155.1000;0.0855;-0.8652;
-154.8000;0.0855;-0.8561;
-154.5000;0.0790;-0.8743;
-154.2000;0.0871;-0.8561;
-153.9000;0.0863;-0.8607;
-153.6000;0.0912;-0.8493;
-153.3000;0.0887;-0.8584;
-153.0000;0.0847;-0.8607;
-152.7000;0.0838;-0.8675;
-152.4000;0.0830;-0.8743;
-152.1000;0.0790;-0.8833;
-151.8000;0.0855;-0.8788;
-151.5000;0.0895;-0.8675;
-151.2000;0.0871;-0.8743;
-150.9000;0.0798;-0.8924;
-150.6000;0.0887;-0.8697;
-150.3000;0.0847;-0.8652;
-150.0000;0.0936;-0.8403;
-149.7000;0.0757;-0.8924;
-149.4000;0.0879;-0.8561;
-149.1000;0.0887;-0.8493;
-148.8000;0.0830;-0.8607;
-148.5000;0.0855;-0.8425;
-148.2000;0.0855;-0.8471;
-147.9000;0.0847;-0.8629;
-147.6000;0.0855;-0.8561;
-147.3000;0.0863;-0.8471;
-147.0000;0.0773;-0.8607;
-146.7000;0.0871;-0.8425;
-146.4000;0.0855;-0.8539;
-146.1000;0.0822;-0.8561;
-145.8000;0.0822;-0.8493;
-145.5000;0.0855;-0.8358;
-145.2000;0.0765;-0.8675;
-144.9000;0.0855;-0.8335;
-144.6000;0.0904;-0.8176;
-144.3000;0.0879;-0.8222;
-144.0000;0.0928;-0.8108;
-143.7000;0.0855;-0.8335;
-143.4000;0.0912;-0.8312;
-143.1000;0.0977;-0.8086;
-142.8000;0.0863;-0.8358;
-142.5000;0.0847;-0.8425;
-142.2000;0.0822;-0.8471;
-141.9000;0.0855;-0.8380;
-141.6000;0.0904;-0.8380;
-141.3000;0.0847;-0.8629;
-141.0000;0.0863;-0.8675;
-140.7000;0.0838;-0.8697;
-140.4000;0.0838;-0.8561;
-140.1000;0.0863;-0.8516;
-139.8000;0.0798;-0.8652;
-139.5000;0.0871;-0.8539;
-139.2000;0.0871;-0.8539;
-138.9000;0.0814;-0.8652;
-138.6000;0.0863;-0.8471;
-138.3000;0.0871;-0.8403;
-138.0000;0.0944;-0.8267;
-137.7000;0.0830;-0.8471;
-137.4000;0.0830;-0.8516;
-137.1000;0.0887;-0.8493;
-136.8000;0.0887;-0.8539;
-136.5000;0.0863;-0.8629;
-136.2000;0.0879;-0.8629;
-135.9000;0.0879;-0.8720;
-135.6000;0.0847;-0.8833;
-135.3000;0.0863;-0.8765;
-135.0000;0.0904;-0.8561;
-134.7000;0.0871;-0.8629;
-134.4000;0.0912;-0.8607;
-134.1000;0.0904;-0.8765;
-133.8000;0.0838;-0.8878;
-133.5000;0.0863;-0.8924;
-133.2000;0.0822;-0.8992;
-132.9000;0.0838;-0.8969;
-132.6000;0.0863;-0.8901;
-132.3000;0.0855;-0.8788;
-132.0000;0.0847;-0.8810;
-131.7000;0.0773;-0.8969;
-131.4000;0.0887;-0.8561;
-131.1000;0.0838;-0.8607;
-130.8000;0.0830;-0.8629;
-130.5000;0.0887;-0.8607;
-130.2000;0.0847;-0.8675;
-129.9000;0.0847;-0.8629;
-129.6000;0.0822;-0.8765;
-129.3000;0.0838;-0.8743;
-129.0000;0.0847;-0.8629;
-128.7000;0.0936;-0.8493;
-128.4000;0.0847;-0.8675;
-128.1000;0.0757;-0.8833;
-127.8000;0.0855;-0.8584;
-127.5000;0.0724;-0.8901;
-127.2000;0.0855;-0.8629;
-126.9000;0.0838;-0.8720;
-126.6000;0.0855;-0.8743;
-126.3000;0.0871;-0.8652;
-126.0000;0.0863;-0.8675;
-125.7000;0.0847;-0.8788;
-125.4000;0.0863;-0.8675;
-125.1000;0.0879;-0.8629;
-124.8000;0.0863;-0.8675;
-124.5000;0.0855;-0.8788;
-124.2000;0.0887;-0.8675;
-123.9000;0.0765;-0.8788;
-123.6000;0.0855;-0.8584;
-123.3000;0.0838;-0.8607;
-123.0000;0.0847;-0.8561;
-122.7000;0.0863;-0.8493;
-122.4000;0.0871;-0.8516;
-122.1000;0.0863;-0.8561;
-121.8000;0.0887;-0.8584;
-121.5000;0.0847;-0.8697;
-121.2000;0.0806;-0.8788;
-120.9000;0.0822;-0.8743;
-120.6000;0.0855;-0.8675;
-120.3000;0.0887;-0.8652;
-120.0000;0.0920;-0.8652;
-119.7000;0.0863;-0.8720;
-119.4000;0.0838;-0.8697;
-119.1000;0.0855;-0.8675;
-118.8000;0.0863;-0.8675;
-118.5000;0.0855;-0.8720;
-118.2000;0.0952;-0.8493;
-117.9000;0.0847;-0.8765;
-117.6000;0.0871;-0.8652;
-117.3000;0.0855;-0.8629;
-117.0000;0.0871;-0.8539;
-116.7000;0.0871;-0.8516;
-116.4000;0.0863;-0.8471;
-116.1000;0.0847;-0.8448;
-115.8000;0.0863;-0.8425;
-115.5000;0.0871;-0.8471;
-115.2000;0.0887;-0.8425;
-114.9000;0.0879;-0.8493;
-114.6000;0.0887;-0.8584;
-114.3000;0.0847;-0.8765;
-114.0000;0.0838;-0.8856;
-113.7000;0.0887;-0.8675;
-113.4000;0.0855;-0.8675;
-113.1000;0.0855;-0.8675;
-112.8000;0.0863;-0.8675;
-112.5000;0.0863;-0.8697;
-112.2000;0.0879;-0.8629;
-111.9000;0.0863;-0.8584;
-111.6000;0.0855;-0.8629;
-111.3000;0.0855;-0.8629;
-111.0000;0.0871;-0.8629;
-110.7000;0.0895;-0.8607;
-110.4000;0.0863;-0.8675;
-110.1000;0.0790;-0.8856;
-109.8000;0.0863;-0.8720;
-109.5000;0.0855;-0.8720;
-109.2000;0.0863;-0.8743;
-108.9000;0.0863;-0.8697;
-108.6000;0.0887;-0.8629;
-108.3000;0.0887;-0.8607;
-108.0000;0.0871;-0.8652;
-107.7000;0.0879;-0.8584;
-107.4000;0.0838;-0.8765;
-107.1000;0.0912;-0.8584;
-106.8000;0.0855;-0.8720;
-106.5000;0.0855;-0.8675;
-106.2000;0.0830;-0.8788;
-105.9000;0.0863;-0.8810;
-105.6000;0.0879;-0.8743;
-105.3000;0.0806;-0.8924;
-105.0000;0.0790;-0.8878;
-104.7000;0.0847;-0.8697;
-104.4000;0.0855;-0.8720;
-104.1000;0.0814;-0.8833;
-103.8000;0.0838;-0.8743;
-103.5000;0.0847;-0.8584;
-103.2000;0.0863;-0.8493;
-102.9000;0.0847;-0.8516;
-102.6000;0.0879;-0.8471;
-102.3000;0.0895;-0.8539;
-102.0000;0.0847;-0.8697;
-101.7000;0.0863;-0.8652;
-101.4000;0.0863;-0.8652;
-101.1000;0.0847;-0.8675;
-100.8000;0.0863;-0.8675;
-100.5000;0.0863;-0.8720;
-100.2000;0.0822;-0.8743;
-99.9000;0.0879;-0.8675;
-99.6000;0.0863;-0.8675;
-99.3000;0.0863;-0.8584;
-99.0000;0.0855;-0.8539;
-98.7000;0.0879;-0.8425;
-98.4000;0.0879;-0.8403;
-98.1000;0.0912;-0.8448;
-97.8000;0.0855;-0.8697;
-97.5000;0.0855;-0.8629;
-97.2000;0.0806;-0.8720;
-96.9000;0.0838;-0.8743;
-96.6000;0.0822;-0.8856;
-96.3000;0.0863;-0.8720;
-96.0000;0.0863;-0.8743;
-95.7000;0.0806;-0.8924;
-95.4000;0.0847;-0.8765;
-95.1000;0.0871;-0.8697;
-94.8000;0.0887;-0.8584;
-94.5000;0.0863;-0.8720;
-94.2000;0.0863;-0.8720;
-93.9000;0.0847;-0.8788;
-93.6000;0.0863;-0.8697;
-93.3000;0.0847;-0.8697;
-93.0000;0.0847;-0.8675;
-92.7000;0.0855;-0.8697;
-92.4000;0.0871;-0.8675;
-92.1000;0.0847;-0.8697;
-91.8000;0.0830;-0.8697;
-91.5000;0.0847;-0.8652;
-91.2000;0.0847;-0.8607;
-90.9000;0.0871;-0.8584;
-90.6000;0.0887;-0.8607;
-90.3000;0.0863;-0.8629;
-90.0000;0.0863;-0.8584;
-89.7000;0.0863;-0.8561;
-89.4000;0.0920;-0.8471;
-89.1000;0.0855;-0.8607;
-88.8000;0.0871;-0.8561;
-88.5000;0.0855;-0.8584;
-88.2000;0.0806;-0.8607;
-87.9000;0.0863;-0.8425;
-87.6000;0.0855;-0.8539;
-87.3000;0.0855;-0.8607;
-87.0000;0.0855;-0.8516;
-86.7000;0.0855;-0.8403;
-86.4000;0.0855;-0.8380;
-86.1000;0.0879;-0.8358;
-85.8000;0.0871;-0.8425;
-85.5000;0.0961;-0.8335;
-85.2000;0.0765;-0.8810;
-84.9000;0.0855;-0.8493;
-84.6000;0.0822;-0.8539;
-84.3000;0.0822;-0.8516;
-84.0000;0.0847;-0.8516;
-83.7000;0.0879;-0.8539;
-83.4000;0.0838;-0.8675;
-83.1000;0.0830;-0.8788;
-82.8000;0.0830;-0.8675;
-82.5000;0.0863;-0.8607;
-82.2000;0.0847;-0.8629;
-81.9000;0.0863;-0.8607;
-81.6000;0.0952;-0.8380;
-81.3000;0.0830;-0.8697;
-81.0000;0.0847;-0.8720;
-80.7000;0.0814;-0.8788;
-80.4000;0.0863;-0.8629;
-80.1000;0.0871;-0.8652;
-79.8000;0.0838;-0.8833;
-79.5000;0.0863;-0.8788;
-79.2000;0.0855;-0.8765;
-78.9000;0.0822;-0.8878;
-78.6000;0.0879;-0.8788;
-78.3000;0.0847;-0.8901;
-78.0000;0.0895;-0.8788;
-77.7000;0.0863;-0.8810;
-77.4000;0.0879;-0.8833;
-77.1000;0.0895;-0.8788;
-76.8000;0.0887;-0.8810;
-76.5000;0.0863;-0.8833;
-76.2000;0.0871;-0.8810;
-75.9000;0.0863;-0.8788;
-75.6000;0.0879;-0.8675;
-75.3000;0.0838;-0.8765;
-75.0000;0.0838;-0.8788;
-74.7000;0.0855;-0.8720;
-74.4000;0.0863;-0.8652;
-74.1000;0.0798;-0.8810;
-73.8000;0.0863;-0.8652;
-73.5000;0.0855;-0.8629;
-73.2000;0.0912;-0.8471;
-72.9000;0.0847;-0.8652;
-72.6000;0.0863;-0.8675;
-72.3000;0.0806;-0.8743;
-72.0000;0.0871;-0.8629;
-71.7000;0.0830;-0.8743;
-71.4000;0.0879;-0.8561;
-71.1000;0.0838;-0.8561;
-70.8000;0.0863;-0.8471;
-70.5000;0.0863;-0.8425;
-70.2000;0.0871;-0.8471;
-69.9000;0.0887;-0.8380;
-69.6000;0.0863;-0.8403;
-69.3000;0.0855;-0.8358;
-69.0000;0.0887;-0.8312;
-68.7000;0.0830;-0.8448;
-68.4000;0.0855;-0.8380;
-68.1000;0.0895;-0.8335;
-67.8000;0.0847;-0.8493;
-67.5000;0.0855;-0.8561;
-67.2000;0.0863;-0.8471;
-66.9000;0.0879;-0.8448;
-66.6000;0.0944;-0.8222;
-66.3000;0.0855;-0.8493;
-66.0000;0.0814;-0.8561;
-65.7000;0.0863;-0.8312;
-65.4000;0.0944;-0.8154;
-65.1000;0.0855;-0.8539;
-64.8000;0.0830;-0.8629;
-64.5000;0.0822;-0.8652;
-64.2000;0.0895;-0.8380;
-63.9000;0.0871;-0.8358;
-63.6000;0.0733;-0.8720;
-63.3000;0.0847;-0.8493;
-63.0000;0.0830;-0.8516;
-62.7000;0.0863;-0.8448;
-62.4000;0.0830;-0.8516;
-62.1000;0.0830;-0.8584;
-61.8000;0.0871;-0.8539;
-61.5000;0.0863;-0.8584;
-61.2000;0.0847;-0.8584;
-60.9000;0.0855;-0.8539;
-60.6000;0.0887;-0.8539;
-60.3000;0.0879;-0.8539;
-60.0000;0.0781;-0.8720;
-59.7000;0.0871;-0.8629;
-59.4000;0.0871;-0.8629;
-59.1000;0.0863;-0.8652;
-58.8000;0.0863;-0.8607;
-58.5000;0.0871;-0.8607;
-58.2000;0.0887;-0.8493;
-57.9000;0.0855;-0.8516;
-57.6000;0.0863;-0.8539;
-57.3000;0.0863;-0.8493;
-57.0000;0.0863;-0.8516;
-56.7000;0.0855;-0.8607;
-56.4000;0.0863;-0.8629;
-56.1000;0.0863;-0.8675;
-55.8000;0.0863;-0.8652;
-55.5000;0.0895;-0.8675;
-55.2000;0.0863;-0.8765;
-54.9000;0.0879;-0.8607;
-54.6000;0.0814;-0.8743;
-54.3000;0.0847;-0.8675;
-54.0000;0.0838;-0.8743;
-53.7000;0.0847;-0.8833;
-53.4000;0.0855;-0.8788;
-53.1000;0.0871;-0.8720;
-52.8000;0.0863;-0.8788;
-52.5000;0.0855;-0.8765;
-52.2000;0.0887;-0.8607;
-51.9000;0.0879;-0.8584;
-51.6000;0.0863;-0.8675;
-51.3000;0.0806;-0.8833;
-51.0000;0.0814;-0.8765;
-50.7000;0.0855;-0.8629;
-50.4000;0.0863;-0.8539;
-50.1000;0.0847;-0.8516;
-49.8000;0.0847;-0.8539;
-49.5000;0.0871;-0.8403;
-49.2000;0.0863;-0.8403;
-48.9000;0.0879;-0.8425;
-48.6000;0.0806;-0.8675;
-48.3000;0.0993;-0.8199;
-48.0000;0.0871;-0.8425;
-47.7000;0.0871;-0.8403;
-47.4000;0.0895;-0.8358;
-47.1000;0.0847;-0.8471;
-46.8000;0.0855;-0.8403;
-46.5000;0.0863;-0.8358;
-46.2000;0.0895;-0.8267;
-45.9000;0.0863;-0.8380;
-45.6000;0.0871;-0.8358;
-45.3000;0.0863;-0.8425;
-45.0000;0.0838;-0.8448;
-44.7000;0.0863;-0.8358;
-44.4000;0.0871;-0.8380;
-44.1000;0.0879;-0.8403;
-43.8000;0.0863;-0.8539;
-43.5000;0.0871;-0.8607;
-43.2000;0.0847;-0.8561;
-42.9000;0.0879;-0.8516;
-42.6000;0.0920;-0.8493;
-42.3000;0.0855;-0.8652;
-42.0000;0.0895;-0.8652;
-41.7000;0.0855;-0.8743;
-41.4000;0.0863;-0.8720;
-41.1000;0.0822;-0.8924;
-40.8000;0.0863;-0.8833;
-40.5000;0.0920;-0.8697;
-40.2000;0.0920;-0.8743;
-39.9000;0.0871;-0.8810;
-39.6000;0.0798;-0.8878;
-39.3000;0.0855;-0.8697;
-39.0000;0.0879;-0.8675;
-38.7000;0.0871;-0.8675;
-38.4000;0.0895;-0.8629;
-38.1000;0.0871;-0.8652;
-37.8000;0.0838;-0.8629;
-37.5000;0.0814;-0.8675;
-37.2000;0.0855;-0.8629;
-36.9000;0.0838;-0.8629;
-36.6000;0.0936;-0.8516;
-36.3000;0.0879;-0.8810;
-36.0000;0.0781;-0.9037;
-35.7000;0.0855;-0.8833;
-35.4000;0.0863;-0.8675;
-35.1000;0.0749;-0.8878;
-34.8000;0.0871;-0.8629;
-34.5000;0.0847;-0.8697;
-34.2000;0.0895;-0.8516;
-33.9000;0.0863;-0.8607;
-33.6000;0.0814;-0.8743;
-33.3000;0.0855;-0.8539;
-33.0000;0.0847;-0.8561;
-32.7000;0.0871;-0.8561;
-32.4000;0.0871;-0.8471;
-32.1000;0.0830;-0.8607;
-31.8000;0.0871;-0.8516;
-31.5000;0.0879;-0.8471;
-31.2000;0.0879;-0.8471;
-30.9000;0.0879;-0.8425;
-30.6000;0.0871;-0.8539;
-30.3000;0.0830;-0.8539;
-30.0000;0.0895;-0.8335;
-29.7000;0.0863;-0.8403;
-29.4000;0.0847;-0.8561;
-29.1000;0.0920;-0.8335;
-28.8000;0.0847;-0.8539;
-28.5000;0.0855;-0.8607;
-28.2000;0.0871;-0.8493;
-27.9000;0.0912;-0.8403;
-27.6000;0.0871;-0.8403;
-27.3000;0.0871;-0.8380;
-27.0000;0.0879;-0.8312;
-26.7000;0.0830;-0.8516;
-26.4000;0.0863;-0.8403;
-26.1000;0.0887;-0.8380;
-25.8000;0.0847;-0.8493;
-25.5000;0.0887;-0.8471;
-25.2000;0.0855;-0.8539;
-24.9000;0.0985;-0.8222;
-24.6000;0.0887;-0.8471;
-24.3000;0.0838;-0.8629;
-24.0000;0.0871;-0.8539;
-23.7000;0.0838;-0.8516;
-23.4000;0.0838;-0.8493;
-23.1000;0.0871;-0.8425;
-22.8000;0.0855;-0.8471;
-22.5000;0.0830;-0.8561;
-22.2000;0.0847;-0.8471;
-21.9000;0.0855;-0.8358;
-21.6000;0.0838;-0.8425;
-21.3000;0.0863;-0.8380;
-21.0000;0.0879;-0.8267;
-20.7000;0.0855;-0.8358;
-20.4000;0.0863;-0.8358;
-20.1000;0.0863;-0.8312;
-19.8000;0.0871;-0.8290;
-19.5000;0.0879;-0.8267;
-19.2000;0.0863;-0.8335;
-18.9000;0.0814;-0.8561;
-18.6000;0.0830;-0.8561;
-18.3000;0.0871;-0.8539;
-18.0000;0.0822;-0.8607;
-17.7000;0.0928;-0.8312;
-17.4000;0.0863;-0.8493;
-17.1000;0.0920;-0.8380;
-16.8000;0.0790;-0.8720;
-16.5000;0.0879;-0.8584;
-16.2000;0.0847;-0.8675;
-15.9000;0.0863;-0.8629;
-15.6000;0.0879;-0.8584;
-15.3000;0.0871;-0.8561;
-15.0000;0.0887;-0.8516;
-14.7000;0.0830;-0.8561;
-14.4000;0.0879;-0.8425;
-14.1000;0.0863;-0.8425;
-13.8000;0.0822;-0.8493;
-13.5000;0.0847;-0.8516;
-13.2000;0.0790;-0.8720;
-12.9000;0.0863;-0.8652;
-12.6000;0.0838;-0.8765;
-12.3000;0.0879;-0.8675;
-12.0000;0.0887;-0.8629;
-11.7000;0.0912;-0.8471;
-11.4000;0.0879;-0.8493;
-11.1000;0.0879;-0.8448;
-10.8000;0.0847;-0.8561;
-10.5000;0.0781;-0.8720;
-10.2000;0.0879;-0.8448;
-9.9000;0.0863;-0.8516;
-9.6000;0.0855;-0.8629;
-9.3000;0.0855;-0.8629;
-9.0000;0.0879;-0.8629;
-8.7000;0.0855;-0.8697;
-8.4000;0.0814;-0.8743;
-8.1000;0.0863;-0.8697;
-7.8000;0.0838;-0.8697;
-7.5000;0.0855;-0.8539;
-7.2000;0.0887;-0.8516;
-6.9000;0.0871;-0.8516;
-6.6000;0.0822;-0.8652;
-6.3000;0.0879;-0.8629;
-6.0000;0.0887;-0.8743;
-5.7000;0.0863;-0.8765;
-5.4000;0.0830;-0.8810;
-5.1000;0.0871;-0.8765;
-4.8000;0.0887;-0.8697;
-4.5000;0.0863;-0.8720;
-4.2000;0.0863;-0.8629;
-3.9000;0.0879;-0.8629;
-3.6000;0.0871;-0.8607;
-3.3000;0.0863;-0.8493;
-3.0000;0.0830;-0.8607;
-2.7000;0.0863;-0.8448;
-2.4000;0.0879;-0.8425;
-2.1000;0.0871;-0.8425;
-1.8000;0.0847;-0.8539;
-1.5000;0.0838;-0.8675;
-1.2000;0.0871;-0.8584;
-0.9000;0.0871;-0.8493;
-0.6000;0.0904;-0.8358;
-0.3000;0.0879;-0.8425;
0.0000;0.0879;-0.8425;
0.3000;0.0871;-0.8584;
0.6000;0.0887;-0.8448;
0.9000;0.0887;-0.8380;
1.2000;0.0895;-0.8222;
1.5000;0.0887;-0.8131;
1.8000;0.0904;-0.8063;
2.1000;0.0887;-0.8086;
2.4000;0.0904;-0.7950;
2.7000;0.0904;-0.7905;
3.0000;0.0781;-0.8222;
3.3000;0.0847;-0.7950;
3.6000;0.0904;-0.7814;
3.9000;0.0904;-0.7746;
4.2000;0.1001;-0.7587;
4.5000;0.0920;-0.7701;
4.8000;0.0895;-0.7678;
5.1000;0.0887;-0.7678;
5.4000;0.0904;-0.7701;
5.7000;0.0887;-0.7678;
6.0000;0.0895;-0.7655;
6.3000;0.0879;-0.7655;
6.6000;0.0895;-0.7587;
6.9000;0.0944;-0.7497;
7.2000;0.0887;-0.7610;
7.5000;0.0904;-0.7565;
7.8000;0.0895;-0.7519;
8.1000;0.0887;-0.7497;
8.4000;0.0912;-0.7519;
8.7000;0.1001;-0.7406;
9.0000;0.0863;-0.7655;
9.3000;0.0952;-0.7565;
9.6000;0.0912;-0.7633;
9.9000;0.0904;-0.7678;
10.2000;0.0904;-0.7678;
10.5000;0.0985;-0.7542;
10.8000;0.0847;-0.7950;
11.1000;0.0904;-0.7859;
11.4000;0.0969;-0.7701;
11.7000;0.0879;-0.7814;
12.0000;0.0969;-0.7542;
12.3000;0.0912;-0.7633;
12.6000;0.0904;-0.7723;
12.9000;0.0895;-0.7746;
13.2000;0.0928;-0.7746;
13.5000;0.0928;-0.7814;
13.8000;0.0895;-0.7859;
14.1000;0.0895;-0.7791;
14.4000;0.0920;-0.7723;
14.7000;0.0912;-0.7678;
15.0000;0.0920;-0.7633;
15.3000;0.0920;-0.7610;
15.6000;0.0928;-0.7633;
15.9000;0.0912;-0.7678;
16.2000;0.0920;-0.7610;
16.5000;0.0895;-0.7655;
16.8000;0.0928;-0.7610;
17.1000;0.0936;-0.7565;
17.4000;0.0904;-0.7633;
17.7000;0.0871;-0.7746;
18.0000;0.0871;-0.7723;
18.3000;0.0920;-0.7497;
18.6000;0.0985;-0.7361;
18.9000;0.0904;-0.7542;
19.2000;0.0912;-0.7497;
19.5000;0.0912;-0.7587;
19.8000;0.0847;-0.7814;
20.1000;0.0912;-0.7678;
20.4000;0.0912;-0.7633;
20.7000;0.0847;-0.7746;
21.0000;0.0928;-0.7542;
21.3000;0.0936;-0.7565;
21.6000;0.0936;-0.7542;
21.9000;0.0920;-0.7610;
22.2000;0.0928;-0.7610;
22.5000;0.0920;-0.7633;
22.8000;0.0928;-0.7610;
23.1000;0.0904;-0.7633;
23.4000;0.0912;-0.7565;
23.7000;0.0928;-0.7497;
24.0000;0.0912;-0.7452;
24.3000;0.0887;-0.7497;
24.6000;0.0944;-0.7316;
24.9000;0.0936;-0.7361;
25.2000;0.0928;-0.7384;
25.5000;0.0912;-0.7519;
25.8000;0.0928;-0.7474;
26.1000;0.0895;-0.7701;
26.4000;0.0912;-0.7633;
26.7000;0.0928;-0.7519;
27.0000;0.0912;-0.7519;
27.3000;0.0912;-0.7406;
27.6000;0.0895;-0.7429;
27.9000;0.0912;-0.7406;
28.2000;0.0993;-0.7248;
28.5000;0.0806;-0.7701;
28.8000;0.0855;-0.7542;
29.1000;0.0912;-0.7429;
29.4000;0.0912;-0.7452;
29.7000;0.0912;-0.7474;
30.0000;0.0920;-0.7429;
30.3000;0.0944;-0.7384;
30.6000;0.0944;-0.7406;
30.9000;0.0985;-0.7406;
31.2000;0.0912;-0.7542;
31.5000;0.0895;-0.7587;
31.8000;0.0912;-0.7565;
32.1000;0.0920;-0.7542;
32.4000;0.0928;-0.7542;
32.7000;0.0912;-0.7542;
33.0000;0.0904;-0.7474;
33.3000;0.0912;-0.7384;
33.6000;0.0912;-0.7429;
33.9000;0.0936;-0.7406;
34.2000;0.0936;-0.7384;
34.5000;0.0920;-0.7406;
34.8000;0.0944;-0.7384;
35.1000;0.0887;-0.7542;
35.4000;0.0928;-0.7452;
35.7000;0.0944;-0.7474;
36.0000;0.0936;-0.7497;
36.3000;0.0961;-0.7452;
36.6000;0.0912;-0.7542;
36.9000;0.0920;-0.7519;
37.2000;0.0912;-0.7565;
37.5000;0.0904;-0.7587;
37.8000;0.0904;-0.7587;
38.1000;0.0920;-0.7542;
38.4000;0.0936;-0.7474;
38.7000;0.0928;-0.7474;
39.0000;0.0936;-0.7406;
39.3000;0.0904;-0.7497;
39.6000;0.0912;-0.7497;
39.9000;0.0928;-0.7452;
40.2000;0.0936;-0.7406;
40.5000;0.0887;-0.7565;
40.8000;0.0920;-0.7497;
41.1000;0.0904;-0.7655;
41.4000;0.0936;-0.7565;
41.7000;0.0920;-0.7542;
42.0000;0.0887;-0.7610;
42.3000;0.0920;-0.7633;
42.6000;0.0952;-0.7610;
42.9000;0.0887;-0.7769;
43.2000;0.0855;-0.7905;
43.5000;0.0904;-0.7859;
43.8000;0.0936;-0.7701;
44.1000;0.0895;-0.7769;
44.4000;0.0895;-0.7678;
44.7000;0.0847;-0.7746;
45.0000;0.0912;-0.7587;
45.3000;0.0895;-0.7633;
45.6000;0.0912;-0.7610;
45.9000;0.0904;-0.7587;
46.2000;0.0904;-0.7565;
46.5000;0.0912;-0.7565;
46.8000;0.0879;-0.7701;
47.1000;0.0904;-0.7655;
47.4000;0.0904;-0.7701;
47.7000;0.0904;-0.7723;
48.0000;0.0912;-0.7678;
48.3000;0.0920;-0.7701;
48.6000;0.0920;-0.7746;
48.9000;0.0936;-0.7769;
49.2000;0.0944;-0.7723;
49.5000;0.0912;-0.7791;
49.8000;0.0912;-0.7746;
50.1000;0.0912;-0.7746;
50.4000;0.0944;-0.7633;
50.7000;0.0928;-0.7655;
51.0000;0.0944;-0.7678;
51.3000;0.0920;-0.7723;
51.6000;0.0855;-0.7972;
51.9000;0.0904;-0.7791;
52.2000;0.0904;-0.7769;
52.5000;0.0985;-0.7497;
52.8000;0.0904;-0.7633;
53.1000;0.0912;-0.7565;
53.4000;0.0904;-0.7542;
53.7000;0.0904;-0.7542;
54.0000;0.0920;-0.7542;
54.3000;0.0985;-0.7361;
54.6000;0.0944;-0.7429;
54.9000;0.0912;-0.7452;
55.2000;0.0904;-0.7497;
55.5000;0.0961;-0.7316;
55.8000;0.0961;-0.7338;
56.1000;0.0912;-0.7519;
56.4000;0.0920;-0.7497;
56.7000;0.0912;-0.7542;
57.0000;0.0887;-0.7542;
57.3000;0.0969;-0.7361;
57.6000;0.0912;-0.7474;
57.9000;0.0879;-0.7497;
58.2000;0.0912;-0.7474;
58.5000;0.0985;-0.7293;
58.8000;0.0830;-0.7655;
59.1000;0.0912;-0.7474;
59.4000;0.0928;-0.7497;
59.7000;0.0895;-0.7497;
60.0000;0.0920;-0.7474;
60.3000;0.0928;-0.7474;
60.6000;0.0920;-0.7384;
60.9000;0.0895;-0.7338;
61.2000;0.0904;-0.7316;
61.5000;0.0912;-0.7248;
61.8000;0.0928;-0.7270;
62.1000;0.0920;-0.7338;
62.4000;0.0895;-0.7384;
62.7000;0.0904;-0.7406;
63.0000;0.0961;-0.7180;
63.3000;0.0887;-0.7452;
63.6000;0.0904;-0.7542;
63.9000;0.0936;-0.7429;
64.2000;0.0912;-0.7542;
64.5000;0.0928;-0.7542;
64.8000;0.0847;-0.7723;
65.1000;0.0912;-0.7610;
65.4000;0.0904;-0.7610;
65.7000;0.0977;-0.7452;
66.0000;0.0936;-0.7610;
66.3000;0.0912;-0.7655;
66.6000;0.0977;-0.7497;
66.9000;0.0944;-0.7497;
67.2000;0.0912;-0.7452;
67.5000;0.0879;-0.7497;
67.8000;0.0912;-0.7406;
68.1000;0.0920;-0.7452;
68.4000;0.0822;-0.7610;
68.7000;0.0936;-0.7429;
69.0000;0.0920;-0.7406;
69.3000;0.0928;-0.7384;
69.6000;0.0912;-0.7338;
69.9000;0.0895;-0.7429;
70.2000;0.0952;-0.7384;
70.5000;0.0912;-0.7565;
70.8000;0.0936;-0.7519;
71.1000;0.0912;-0.7542;
71.4000;0.0904;-0.7542;
71.7000;0.0904;-0.7542;
72.0000;0.0920;-0.7519;
72.3000;0.0912;-0.7565;
72.6000;0.0879;-0.7723;
72.9000;0.0912;-0.7633;
73.2000;0.0920;-0.7587;
73.5000;0.0904;-0.7610;
73.8000;0.0920;-0.7610;
74.1000;0.0912;-0.7633;
74.4000;0.0895;-0.7610;
74.7000;0.0920;-0.7565;
75.0000;0.0928;-0.7565;
75.3000;0.0920;-0.7655;
75.6000;0.0936;-0.7746;
75.9000;0.0887;-0.7655;
76.2000;0.0944;-0.7565;
76.5000;0.0887;-0.7655;
76.8000;0.0904;-0.7587;
77.1000;0.0912;-0.7474;
77.4000;0.0904;-0.7610;
77.7000;0.0863;-0.7678;
78.0000;0.0928;-0.7474;
78.3000;0.0928;-0.7316;
78.6000;0.0920;-0.7248;
78.9000;0.0912;-0.7202;
79.2000;0.0895;-0.7270;
79.5000;0.0920;-0.7270;
79.8000;0.0904;-0.7338;
80.1000;0.0920;-0.7384;
80.4000;0.0830;-0.7610;
80.7000;0.0936;-0.7225;
81.0000;0.0904;-0.7384;
81.3000;0.0871;-0.7452;
81.6000;0.0887;-0.7406;
81.9000;0.0912;-0.7338;
82.2000;0.0912;-0.7361;
82.5000;0.0961;-0.7293;
82.8000;0.0952;-0.7384;
83.1000;0.0928;-0.7429;
83.4000;0.0977;-0.7429;
83.7000;0.0920;-0.7474;
84.0000;0.0920;-0.7474;
84.3000;0.0879;-0.7474;
84.6000;0.0895;-0.7406;
84.9000;0.0928;-0.7293;
85.2000;0.0936;-0.7406;
85.5000;0.0928;-0.7384;
85.8000;0.0936;-0.7406;
86.1000;0.0920;-0.7429;
86.4000;0.0912;-0.7384;
86.7000;0.0944;-0.7225;
87.0000;0.0969;-0.7157;
87.3000;0.0920;-0.7293;
87.6000;0.0895;-0.7384;
87.9000;0.0936;-0.7293;
88.2000;0.0928;-0.7338;
88.5000;0.0912;-0.7293;
88.8000;0.0912;-0.7361;
89.1000;0.0969;-0.7248;
89.4000;0.0920;-0.7361;
89.7000;0.0847;-0.7497;
90.0000;0.0904;-0.7429;
90.3000;0.0928;-0.7361;
90.6000;0.0952;-0.7384;
90.9000;0.0904;-0.7452;
91.2000;0.0985;-0.7338;
91.5000;0.0895;-0.7587;
91.8000;0.0863;-0.7678;
92.1000;0.0879;-0.7633;
92.4000;0.0887;-0.7519;
92.7000;0.0904;-0.7497;
93.0000;0.0879;-0.7565;
93.3000;0.0912;-0.7587;
93.6000;0.0855;-0.7723;
93.9000;0.0920;-0.7542;
94.2000;0.0920;-0.7587;
94.5000;0.0904;-0.7655;
94.8000;0.0936;-0.7542;
95.1000;0.0928;-0.7587;
95.4000;0.1009;-0.7361;
95.7000;0.0920;-0.7519;
96.0000;0.0904;-0.7633;
96.3000;0.0806;-0.7905;
96.6000;0.0895;-0.7655;
96.9000;0.0904;-0.7678;
97.2000;0.0936;-0.7701;
97.5000;0.0912;-0.7701;
97.8000;0.1001;-0.7361;
98.1000;0.0904;-0.7565;
98.4000;0.0928;-0.7565;
98.7000;0.0936;-0.7429;
99.0000;0.0928;-0.7406;
99.3000;0.0952;-0.7406;
99.6000;0.0920;-0.7452;
99.9000;0.0936;-0.7406;
100.2000;0.0928;-0.7361;
100.5000;0.0920;-0.7406;
100.8000;0.0985;-0.7293;
101.1000;0.0944;-0.7474;
101.4000;0.0912;-0.7587;
101.7000;0.0920;-0.7587;
102.0000;0.0944;-0.7497;
102.3000;0.0863;-0.7723;
102.6000;0.0912;-0.7587;
102.9000;0.0952;-0.7497;
103.2000;0.0822;-0.7837;
103.5000;0.0920;-0.7519;
103.8000;0.0912;-0.7519;
104.1000;0.0912;-0.7565;
104.4000;0.0871;-0.7655;
104.7000;0.0936;-0.7565;
105.0000;0.0871;-0.7678;
105.3000;0.0879;-0.7655;
105.6000;0.0895;-0.7633;
105.9000;0.0928;-0.7542;
106.2000;0.0904;-0.7519;
106.5000;0.0928;-0.7565;
106.8000;0.0847;-0.7791;
107.1000;0.0961;-0.7519;
107.4000;0.0904;-0.7678;
107.7000;0.0912;-0.7678;
108.0000;0.0822;-0.7814;
108.3000;0.0936;-0.7519;
108.6000;0.0928;-0.7497;
108.9000;0.0904;-0.7519;
109.2000;0.0871;-0.7519;
109.5000;0.0920;-0.7338;
109.8000;0.0920;-0.7384;
110.1000;0.0879;-0.7497;
110.4000;0.0912;-0.7452;
110.7000;0.0912;-0.7429;
111.0000;0.0904;-0.7519;
111.3000;0.0904;-0.7655;
111.6000;0.0961;-0.7497;
111.9000;0.0912;-0.7655;
112.2000;0.0936;-0.7565;
112.5000;0.0912;-0.7565;
112.8000;0.0838;-0.7746;
113.1000;0.0912;-0.7678;
113.4000;0.0912;-0.7633;
113.7000;0.0936;-0.7610;
114.0000;0.0936;-0.7633;
114.3000;0.0928;-0.7655;
114.6000;0.0936;-0.7542;
114.9000;0.0912;-0.7565;
115.2000;0.0920;-0.7565;
115.5000;0.0928;-0.7519;
115.8000;0.0895;-0.7655;
116.1000;0.0920;-0.7610;
116.4000;0.0887;-0.7655;
116.7000;0.0887;-0.7633;
117.0000;0.0920;-0.7565;
117.3000;0.0936;-0.7474;
117.6000;0.0912;-0.7587;
117.9000;0.0895;-0.7633;
118.2000;0.0904;-0.7587;
118.5000;0.0920;-0.7587;
118.8000;0.0904;-0.7678;
119.1000;0.0961;-0.7497;
119.4000;0.0928;-0.7565;
119.7000;0.0920;-0.7587;
120.0000;0.0912;-0.7542;
120.3000;0.0871;-0.7542;
120.6000;0.0920;-0.7429;
120.9000;0.0887;-0.7678;
121.2000;0.0871;-0.7723;
121.5000;0.0912;-0.7587;
121.8000;0.0904;-0.7610;
122.1000;0.0912;-0.7542;
122.4000;0.0814;-0.7746;
122.7000;0.0920;-0.7497;
123.0000;0.0904;-0.7610;
123.3000;0.0920;-0.7565;
123.6000;0.0912;-0.7452;
123.9000;0.0928;-0.7406;
124.2000;0.0895;-0.7474;
124.5000;0.0928;-0.7452;
124.8000;0.0928;-0.7361;
125.1000;0.0920;-0.7384;
125.4000;0.0928;-0.7338;
125.7000;0.0928;-0.7316;
126.0000;0.0928;-0.7316;
126.3000;0.0847;-0.7452;
126.6000;0.0920;-0.7293;
126.9000;0.0912;-0.7293;
127.2000;0.0912;-0.7338;
127.5000;0.0912;-0.7384;
127.8000;0.0895;-0.7429;
128.1000;0.0887;-0.7497;
128.4000;0.0895;-0.7406;
128.7000;0.0920;-0.7338;
129.0000;0.0863;-0.7474;
129.3000;0.0904;-0.7361;
129.6000;0.0904;-0.7406;
129.9000;0.0920;-0.7406;
130.2000;0.0912;-0.7519;
130.5000;0.0904;-0.7542;
130.8000;0.0912;-0.7452;
131.1000;0.0912;-0.7542;
131.4000;0.0944;-0.7452;
131.7000;0.0936;-0.7406;
132.0000;0.0928;-0.7361;
132.3000;0.0879;-0.7474;
132.6000;0.0920;-0.7316;
132.9000;0.0920;-0.7293;
133.2000;0.0952;-0.7180;
133.5000;0.0920;-0.7316;
133.8000;0.0928;-0.7202;
134.1000;0.0936;-0.7248;
134.4000;0.0895;-0.7406;
134.7000;0.0879;-0.7542;
135.0000;0.0912;-0.7497;
135.3000;0.0936;-0.7429;
135.6000;0.0838;-0.7723;
135.9000;0.0871;-0.7587;
136.2000;0.0904;-0.7497;
136.5000;0.0912;-0.7452;
136.8000;0.0912;-0.7452;
137.1000;0.0855;-0.7542;
137.4000;0.0904;-0.7384;
137.7000;0.0977;-0.7157;
138.0000;0.0904;-0.7270;
138.3000;0.0936;-0.7202;
138.6000;0.0920;-0.7270;
138.9000;0.0912;-0.7248;
139.2000;0.0912;-0.7293;
139.5000;0.0904;-0.7338;
139.8000;0.0895;-0.7316;
140.1000;0.0912;-0.7338;
140.4000;0.0904;-0.7338;
140.7000;0.0920;-0.7270;
141.0000;0.0936;-0.7293;
141.3000;0.1001;-0.7112;
141.6000;0.0928;-0.7293;
141.9000;0.0928;-0.7180;
142.2000;0.0928;-0.7225;
142.5000;0.0895;-0.7270;
142.8000;0.0912;-0.7202;
143.1000;0.0920;-0.7225;
143.4000;0.0814;-0.7610;
143.7000;0.0879;-0.7429;
144.0000;0.0879;-0.7452;
144.3000;0.0969;-0.7225;
144.6000;0.0904;-0.7270;
144.9000;0.0928;-0.7248;
145.2000;0.0936;-0.7202;
145.5000;0.0920;-0.7134;
145.8000;0.0895;-0.7202;
146.1000;0.0895;-0.7202;
146.4000;0.0920;-0.7112;
146.7000;0.0920;-0.7202;
147.0000;0.0895;-0.7316;
147.3000;0.0920;-0.7316;
147.6000;0.0912;-0.7338;
147.9000;0.0912;-0.7406;
148.2000;0.0904;-0.7429;
148.5000;0.0904;-0.7452;
148.8000;0.0936;-0.7361;
149.1000;0.0944;-0.7316;
149.4000;0.0912;-0.7293;
149.7000;0.0904;-0.7361;
150.0000;0.0887;-0.7361;
150.3000;0.0855;-0.7429;
150.6000;0.0920;-0.7361;
150.9000;0.0920;-0.7406;
151.2000;0.0936;-0.7384;
151.5000;0.0912;-0.7565;
151.8000;0.0806;-0.7814;
152.1000;0.0920;-0.7610;
152.4000;0.0944;-0.7497;
152.7000;0.0912;-0.7587;
153.0000;0.0969;-0.7361;
153.3000;0.1066;-0.7202;
153.6000;0.0928;-0.7610;
153.9000;0.0912;-0.7610;
154.2000;0.0904;-0.7633;
154.5000;0.0912;-0.7565;
154.8000;0.0895;-0.7565;
155.1000;0.0912;-0.7542;
155.4000;0.0895;-0.7633;
155.7000;0.0895;-0.7519;
156.0000;0.0895;-0.7474;
156.3000;0.0895;-0.7519;
156.6000;0.0920;-0.7361;
156.9000;0.0920;-0.7225;
157.2000;0.0879;-0.7361;
157.5000;0.0895;-0.7316;
157.8000;0.0904;-0.7316;
158.1000;0.0830;-0.7497;
158.4000;0.0904;-0.7225;
158.7000;0.0936;-0.7089;
159.0000;0.0920;-0.7180;
159.3000;0.0912;-0.7180;
159.6000;0.0806;-0.7429;
159.9000;0.0928;-0.7202;
160.2000;0.0928;-0.7180;
160.5000;0.0936;-0.7180;
160.8000;0.0887;-0.7338;
161.1000;0.0912;-0.7384;
161.4000;0.0936;-0.7270;
161.7000;0.0952;-0.7134;
162.0000;0.0920;-0.7180;
162.3000;0.0895;-0.7180;
162.6000;0.0912;-0.7157;
162.9000;0.1026;-0.6863;
163.2000;0.0912;-0.7202;
163.5000;0.0895;-0.7293;
163.8000;0.0887;-0.7338;
164.1000;0.0912;-0.7361;
164.4000;0.0912;-0.7270;
164.7000;0.0928;-0.7316;
165.0000;0.0920;-0.7361;
165.3000;0.0887;-0.7406;
165.6000;0.0928;-0.7248;
165.9000;0.0977;-0.6999;
166.2000;0.0895;-0.7248;
166.5000;0.0895;-0.7202;
166.8000;0.0895;-0.7293;
167.1000;0.0928;-0.7225;
167.4000;0.0790;-0.7587;
167.7000;0.0904;-0.7361;
168.0000;0.0928;-0.7316;
168.3000;0.0887;-0.7361;
168.6000;0.0920;-0.7293;
168.9000;0.0904;-0.7225;
169.2000;0.0904;-0.7180;
169.5000;0.0912;-0.7112;
169.8000;0.0863;-0.7338;
170.1000;0.0936;-0.7248;
170.4000;0.0944;-0.7270;
170.7000;0.0944;-0.7248;
171.0000;0.0928;-0.7338;
171.3000;0.0904;-0.7384;
171.6000;0.0912;-0.7384;
171.9000;0.0887;-0.7429;
172.2000;0.0928;-0.7316;
172.5000;0.0912;-0.7270;
172.8000;0.0830;-0.7519;
173.1000;0.0920;-0.7384;
173.4000;0.0863;-0.7474;
173.7000;0.0920;-0.7452;
174.0000;0.0879;-0.7519;
174.3000;0.0904;-0.7497;
174.6000;0.0936;-0.7474;
174.9000;0.0928;-0.7429;
175.2000;0.0920;-0.7429;
175.5000;0.1001;-0.7316;
175.8000;0.0912;-0.7587;
176.1000;0.0920;-0.7452;
176.4000;0.1034;-0.7202;
176.7000;0.0912;-0.7519;
177.0000;0.0912;-0.7497;
177.3000;0.0936;-0.7429;
177.6000;0.0904;-0.7452;
177.9000;0.0855;-0.7587;
178.2000;0.0920;-0.7497;
178.5000;0.0847;-0.7655;
178.8000;0.0928;-0.7384;
179.1000;0.0895;-0.7406;
179.4000;0.0920;-0.7338;
179.7000;0.0928;-0.7293;
180.0000;0.0838;-0.7519;
180.3000;0.0887;-0.7361;
180.6000;0.0847;-0.7497;
180.9000;0.0904;-0.7361;
181.2000;0.0928;-0.7270;
181.5000;0.0904;-0.7406;
181.8000;0.0895;-0.7452;
182.1000;0.0912;-0.7406;
182.4000;0.0912;-0.7406;
182.7000;0.0912;-0.7429;
183.0000;0.0928;-0.7384;
183.3000;0.0928;-0.7361;
183.6000;0.0920;-0.7384;
183.9000;0.0920;-0.7338;
184.2000;0.0904;-0.7384;
184.5000;0.0936;-0.7384;
184.8000;0.0912;-0.7384;
185.1000;0.0895;-0.7497;
185.4000;0.0936;-0.7361;
185.7000;0.0993;-0.7202;
186.0000;0.0887;-0.7474;
186.3000;0.0887;-0.7406;
186.6000;0.0904;-0.7361;
186.9000;0.0895;-0.7429;
187.2000;0.0838;-0.7655;
187.5000;0.0912;-0.7452;
187.8000;0.0904;-0.7474;
188.1000;0.0904;-0.7474;
188.4000;0.0904;-0.7474;
188.7000;0.0936;-0.7338;
189.0000;0.0920;-0.7384;
189.3000;0.0879;-0.7452;
189.6000;0.0904;-0.7361;
189.9000;0.0961;-0.7225;
190.2000;0.0887;-0.7361;
190.5000;0.0904;-0.7384;
190.8000;0.0920;-0.7270;
191.1000;0.0944;-0.7202;
191.4000;0.0928;-0.7157;
191.7000;0.0904;-0.7067;
192.0000;0.0944;-0.7021;
192.3000;0.0912;-0.7089;
192.6000;0.0895;-0.7225;
192.9000;0.0863;-0.7316;
193.2000;0.0904;-0.7316;
193.5000;0.0895;-0.7384;
193.8000;0.0936;-0.7270;
194.1000;0.0904;-0.7429;
194.4000;0.0847;-0.7587;
194.7000;0.0936;-0.7293;
195.0000;0.0928;-0.7429;
195.3000;0.0912;-0.7497;
195.6000;0.0912;-0.7519;
195.9000;0.0863;-0.7587;
196.2000;0.0904;-0.7565;
196.5000;0.0952;-0.7429;
196.8000;0.0920;-0.7519;
197.1000;0.0895;-0.7542;
197.4000;0.0904;-0.7429;
197.7000;0.0912;-0.7429;
198.0000;0.0887;-0.7474;
198.3000;0.0871;-0.7497;
198.6000;0.0936;-0.7338;
198.9000;0.0944;-0.7248;
199.2000;0.0912;-0.7293;
199.5000;0.0863;-0.7429;
199.8000;0.0912;-0.7316;
200.1000;0.0904;-0.7293;
200.4000;0.0912;-0.7293;
200.7000;0.0920;-0.7248;
201.0000;0.1034;-0.6999;
201.3000;0.0920;-0.7406;
201.6000;0.0895;-0.7474;
201.9000;0.0855;-0.7678;
202.2000;0.0920;-0.7542;
202.5000;0.0895;-0.7610;
202.8000;0.0920;-0.7587;
203.1000;0.0944;-0.7587;
203.4000;0.0920;-0.7565;
203.7000;0.0920;-0.7587;
204.0000;0.0912;-0.7474;
204.3000;0.0904;-0.7565;
204.6000;0.0895;-0.7610;
204.9000;0.0855;-0.7837;
205.2000;0.0920;-0.7610;
205.5000;0.0920;-0.7542;
205.8000;0.0912;-0.7519;
206.1000;0.0830;-0.7678;
206.4000;0.0928;-0.7406;
206.7000;0.0904;-0.7452;
207.0000;0.0895;-0.7429;
207.3000;0.0912;-0.7338;
207.6000;0.0969;-0.7248;
207.9000;0.0912;-0.7452;
208.2000;0.0887;-0.7542;
208.5000;0.0879;-0.7587;
208.8000;0.0928;-0.7406;
209.1000;0.0920;-0.7406;
209.4000;0.0895;-0.7429;
209.7000;0.0904;-0.7384;
210.0000;0.0912;-0.7429;
210.3000;0.0895;-0.7497;
210.6000;0.0920;-0.7452;
210.9000;0.0904;-0.7542;
211.2000;0.0912;-0.7497;
211.5000;0.0936;-0.7429;
211.8000;0.0887;-0.7519;
212.1000;0.0928;-0.7384;
212.4000;0.0887;-0.7542;
212.7000;0.0912;-0.7452;
213.0000;0.0936;-0.7361;
213.3000;0.0920;-0.7406;
213.6000;0.0912;-0.7452;
213.9000;0.0822;-0.7610;
214.2000;0.0936;-0.7361;
214.5000;0.0920;-0.7497;
214.8000;0.0944;-0.7519;
215.1000;0.0912;-0.7542;
215.4000;0.0944;-0.7474;
215.7000;0.0904;-0.7678;
216.0000;0.0969;-0.7497;
216.3000;0.0928;-0.7587;
216.6000;0.0936;-0.7587;
216.9000;0.0961;-0.7497;
217.2000;0.0904;-0.7587;
217.5000;0.0887;-0.7610;
217.8000;0.0838;-0.7678;
218.1000;0.0904;-0.7497;
218.4000;0.0920;-0.7406;
218.7000;0.0936;-0.7316;
219.0000;0.0904;-0.7429;
219.3000;0.0920;-0.7338;
219.6000;0.0920;-0.7316;
219.9000;0.0781;-0.7678;
220.2000;0.0936;-0.7316;
220.5000;0.0904;-0.7384;
220.8000;0.1042;-0.7089;
221.1000;0.0887;-0.7406;
221.4000;0.0895;-0.7429;
221.7000;0.0928;-0.7338;
222.0000;0.0912;-0.7384;
222.3000;0.0928;-0.7406;
222.6000;0.0912;-0.7474;
222.9000;0.0920;-0.7406;
223.2000;0.0895;-0.7452;
223.5000;0.0904;-0.7497;
223.8000;0.0904;-0.7474;
224.1000;0.0920;-0.7406;
224.4000;0.0920;-0.7406;
224.7000;0.0936;-0.7384;
225.0000;0.0912;-0.7429;
225.3000;0.0912;-0.7429;
225.6000;0.0961;-0.7316;
225.9000;0.0936;-0.7361;
226.2000;0.0904;-0.7474;
226.5000;0.0912;-0.7497;
226.8000;0.0936;-0.7338;
227.1000;0.0944;-0.7361;
227.4000;0.0920;-0.7406;
227.7000;0.0928;-0.7384;
228.0000;0.0920;-0.7406;
228.3000;0.0904;-0.7519;
228.6000;0.0847;-0.7723;
228.9000;0.0928;-0.7497;
229.2000;0.0904;-0.7452;
229.5000;0.0904;-0.7497;
229.8000;0.0936;-0.7406;
230.1000;0.0904;-0.7429;
230.4000;0.0936;-0.7384;
230.7000;0.0928;-0.7497;
231.0000;0.0928;-0.7519;
231.3000;0.0904;-0.7565;
231.6000;0.0993;-0.7248;
231.9000;0.0912;-0.7406;
232.2000;0.0838;-0.7542;
232.5000;0.0887;-0.7497;
232.8000;0.0936;-0.7474;
233.1000;0.0912;-0.7519;
233.4000;0.0887;-0.7610;
233.7000;0.0904;-0.7565;
234.0000;0.0920;-0.7587;
234.3000;0.0944;-0.7587;
234.6000;0.0912;-0.7610;
234.9000;0.0895;-0.7701;
235.2000;0.0952;-0.7542;
235.5000;0.0920;-0.7587;
235.8000;0.0920;-0.7542;
236.1000;0.0855;-0.7701;
236.4000;0.0863;-0.7701;
236.7000;0.0936;-0.7497;
237.0000;0.0895;-0.7497;
237.3000;0.0961;-0.7316;
237.6000;0.0847;-0.7633;
237.9000;0.0904;-0.7519;
238.2000;0.0920;-0.7406;
238.5000;0.0936;-0.7429;
238.8000;0.0879;-0.7610;
239.1000;0.0912;-0.7587;
239.4000;0.0961;-0.7384;
239.7000;0.0936;-0.7452;
240.0000;0.0887;-0.7474;
240.3000;0.0928;-0.7338;
240.6000;0.0936;-0.7429;
240.9000;0.0944;-0.7429;
241.2000;0.0944;-0.7406;
241.5000;0.0912;-0.7587;
241.8000;0.0920;-0.7542;
242.1000;0.1009;-0.7270;
242.4000;0.0944;-0.7429;
242.7000;0.0879;-0.7497;
243.0000;0.0904;-0.7474;
243.3000;0.0912;-0.7429;
243.6000;0.0895;-0.7452;
243.9000;0.0977;-0.7316;
244.2000;0.0830;-0.7633;
244.5000;0.0912;-0.7361;
244.8000;0.0936;-0.7316;
245.1000;0.0904;-0.7406;
245.4000;0.0928;-0.7338;
245.7000;0.0904;-0.7361;
246.0000;0.0928;-0.7248;
246.3000;0.0904;-0.7316;
246.6000;0.0887;-0.7406;
246.9000;0.0838;-0.7519;
247.2000;0.0920;-0.7338;
247.5000;0.0871;-0.7429;
247.8000;0.0904;-0.7384;
248.1000;0.0920;-0.7338;
248.4000;0.0912;-0.7316;
248.7000;0.0928;-0.7316;
249.0000;0.0928;-0.7248;
249.3000;0.0904;-0.7248;
249.6000;0.0904;-0.7270;
249.9000;0.0944;-0.7248;
250.2000;0.0920;-0.7293;
250.5000;0.0920;-0.7316;
250.8000;0.0920;-0.7384;
251.1000;0.0904;-0.7338;
251.4000;0.0879;-0.7429;
251.7000;0.0961;-0.7316;
252.0000;0.0920;-0.7519;
252.3000;0.0904;-0.7474;
252.6000;0.0912;-0.7316;
252.9000;0.0887;-0.7338;
253.2000;0.0920;-0.7270;
253.5000;0.0895;-0.7338;
253.8000;0.0928;-0.7338;
254.1000;0.0895;-0.7474;
254.4000;0.0895;-0.7474;
254.7000;0.0773;-0.7791;
255.0000;0.0928;-0.7429;
255.3000;0.0912;-0.7474;
255.6000;0.0920;-0.7429;
255.9000;0.0920;-0.7452;
256.2000;0.0928;-0.7497;
256.5000;0.0887;-0.7519;
256.8000;0.0879;-0.7587;
257.1000;0.0904;-0.7610;
257.4000;0.0936;-0.7542;
257.7000;0.0920;-0.7610;
258.0000;0.0912;-0.7542;
258.3000;0.0920;-0.7452;
258.6000;0.0969;-0.7270;
258.9000;0.0838;-0.7565;
259.2000;0.1018;-0.7202;
259.5000;0.0944;-0.7406;
259.8000;0.0904;-0.7542;
260.1000;0.0871;-0.7519;
260.4000;0.0936;-0.7293;
260.7000;0.0928;-0.7293;
261.0000;0.0928;-0.7293;
261.3000;0.0895;-0.7384;
261.6000;0.0920;-0.7361;
261.9000;0.0904;-0.7452;
262.2000;0.0895;-0.7497;
262.5000;0.0912;-0.7497;
262.8000;0.0904;-0.7542;
263.1000;0.0904;-0.7474;
263.4000;0.0936;-0.7406;
263.7000;0.0912;-0.7429;
264.0000;0.0904;-0.7406;
264.3000;0.0928;-0.7452;
264.6000;0.0920;-0.7542;
264.9000;0.0952;-0.7474;
265.2000;0.0969;-0.7338;
265.5000;0.0936;-0.7384;
265.8000;0.0912;-0.7406;
266.1000;0.0822;-0.7678;
266.4000;0.0936;-0.7361;
266.7000;0.0920;-0.7361;
267.0000;0.0936;-0.7361;
267.3000;0.0969;-0.7270;
267.6000;0.0928;-0.7338;
267.9000;0.0863;-0.7542;
268.2000;0.0895;-0.7384;
268.5000;0.0920;-0.7361;
268.8000;0.0952;-0.7316;
269.1000;0.0904;-0.7406;
269.4000;0.0920;-0.7361;
269.7000;0.0928;-0.7316;
270.0000;0.0822;-0.7655;
270.3000;0.0944;-0.7384;
270.6000;0.0912;-0.7452;
270.9000;0.0912;-0.7497;
271.2000;0.0920;-0.7610;
271.5000;0.0936;-0.7587;
271.8000;0.0904;-0.7633;
272.1000;0.0912;-0.7565;
272.4000;0.0920;-0.7474;
272.7000;0.0912;-0.7406;
273.0000;0.0912;-0.7384;
273.3000;0.0928;-0.7361;
273.6000;0.0879;-0.7587;
273.9000;0.0912;-0.7497;
274.2000;0.0904;-0.7542;
274.5000;0.0887;-0.7474;
274.8000;0.0928;-0.7497;
275.1000;0.0912;-0.7565;
275.4000;0.0920;-0.7542;
275.7000;0.0928;-0.7587;
276.0000;0.0936;-0.7587;
276.3000;0.0895;-0.7633;
276.6000;0.0952;-0.7452;
276.9000;0.0912;-0.7452;
277.2000;0.0895;-0.7565;
277.5000;0.0912;-0.7542;
277.8000;0.0920;-0.7519;
278.1000;0.0912;-0.7587;
278.4000;0.0895;-0.7633;
278.7000;0.0904;-0.7633;
279.0000;0.0904;-0.7519;
279.3000;0.0912;-0.7452;
279.6000;0.0887;-0.7429;
279.9000;0.0928;-0.7406;
280.2000;0.0904;-0.7429;
280.5000;0.0936;-0.7338;
280.8000;0.0928;-0.7452;
281.1000;0.0887;-0.7497;
281.4000;0.0944;-0.7316;
281.7000;0.0912;-0.7429;
282.0000;0.0920;-0.7474;
282.3000;0.0871;-0.7542;
282.6000;0.0928;-0.7384;
282.9000;0.0928;-0.7338;
283.2000;0.0920;-0.7361;
283.5000;0.0904;-0.7429;
283.8000;0.0904;-0.7429;
284.1000;0.0904;-0.7406;
284.4000;0.0912;-0.7338;
284.7000;0.0895;-0.7384;
285.0000;0.0904;-0.7293;
285.3000;0.0912;-0.7338;
285.6000;0.0904;-0.7361;
285.9000;0.0920;-0.7384;
286.2000;0.0912;-0.7338;
286.5000;0.0912;-0.7384;
286.8000;0.0887;-0.7452;
287.1000;0.0879;-0.7497;
287.4000;0.0895;-0.7452;
287.7000;0.0871;-0.7497;
288.0000;0.0920;-0.7429;
288.3000;0.0887;-0.7542;
288.6000;0.0912;-0.7542;
288.9000;0.0920;-0.7633;
289.2000;0.0961;-0.7474;
289.5000;0.0952;-0.7406;
289.8000;0.0887;-0.7519;
290.1000;0.0928;-0.7452;
290.4000;0.0936;-0.7452;
290.7000;0.0920;-0.7542;
291.0000;0.0904;-0.7610;
291.3000;0.0838;-0.7769;
291.6000;0.0904;-0.7519;
291.9000;0.0912;-0.7429;
292.2000;0.0936;-0.7406;
292.5000;0.0920;-0.7565;
292.8000;0.0904;-0.7655;
293.1000;0.0904;-0.7610;
293.4000;0.1009;-0.7406;
293.7000;0.0912;-0.7610;
294.0000;0.0928;-0.7474;
294.3000;0.0830;-0.7633;
294.6000;0.0920;-0.7406;
294.9000;0.0904;-0.7519;
295.2000;0.0904;-0.7565;
295.5000;0.0904;-0.7565;
295.8000;0.0920;-0.7519;
296.1000;0.0944;-0.7452;
296.4000;0.0904;-0.7587;
296.7000;0.0904;-0.7519;
297.0000;0.0887;-0.7678;
297.3000;0.0904;-0.7633;
297.6000;0.0887;-0.7723;
297.9000;0.0928;-0.7587;
298.2000;0.0912;-0.7633;
298.5000;0.0895;-0.7655;
298.8000;0.0887;-0.7610;
299.1000;0.0855;-0.7791;
299.4000;0.0904;-0.7565;
299.7000;0.0920;-0.7519;
300.0000;0.0912;-0.7519;
300.3000;0.0920;-0.7610;
300.6000;0.0912;-0.7701;
300.9000;0.0904;-0.7701;
301.2000;0.0944;-0.7655;
301.5000;0.0912;-0.7655;
301.8000;0.0928;-0.7610;
302.1000;0.0912;-0.7519;
302.4000;0.0920;-0.7497;
302.7000;0.0928;-0.7474;
303.0000;0.0920;-0.7497;
303.3000;0.0912;-0.7497;
303.6000;0.0928;-0.7361;
303.9000;0.0887;-0.7406;
304.2000;0.0887;-0.7406;
304.5000;0.0944;-0.7270;
304.8000;0.0920;-0.7293;
305.1000;0.0920;-0.7384;
305.4000;0.0936;-0.7384;
305.7000;0.0928;-0.7429;
306.0000;0.0961;-0.7270;
306.3000;0.0904;-0.7429;
306.6000;0.0944;-0.7361;
306.9000;0.0895;-0.7497;
307.2000;0.0928;-0.7406;
307.5000;0.0855;-0.7610;
307.8000;0.0936;-0.7452;
308.1000;0.1009;-0.7248;
308.4000;0.0879;-0.7565;
308.7000;0.0895;-0.7542;
309.0000;0.0912;-0.7452;
309.3000;0.0895;-0.7474;
309.6000;0.0912;-0.7519;
309.9000;0.0830;-0.7678;
310.2000;0.0920;-0.7519;
310.5000;0.0928;-0.7542;
310.8000;0.0855;-0.7701;
311.1000;0.0895;-0.7633;
311.4000;0.0928;-0.7587;
311.7000;0.0985;-0.7429;
312.0000;0.0887;-0.7587;
312.3000;0.0904;-0.7542;
312.6000;0.0912;-0.7474;
312.9000;0.1018;-0.7225;
313.2000;0.0904;-0.7429;
313.5000;0.0961;-0.7338;
313.8000;0.0928;-0.7406;
314.1000;0.0920;-0.7406;
314.4000;0.0936;-0.7361;
314.7000;0.0944;-0.7406;
315.0000;0.0847;-0.7655;
315.3000;0.0936;-0.7429;
315.6000;0.0928;-0.7406;
315.9000;0.0871;-0.7701;
316.2000;0.0977;-0.7452;
316.5000;0.0985;-0.7429;
316.8000;0.0895;-0.7746;
317.1000;0.0952;-0.7565;
317.4000;0.0928;-0.7655;
317.7000;0.0904;-0.7701;
318.0000;0.0920;-0.7655;
318.3000;0.0936;-0.7565;
318.6000;0.0895;-0.7587;
318.9000;0.0912;-0.7565;
319.2000;0.0928;-0.7542;
319.5000;0.0895;-0.7565;
319.8000;0.0920;-0.7542;
320.1000;0.0912;-0.7610;
320.4000;0.0928;-0.7542;
320.7000;0.0961;-0.7452;
321.0000;0.0961;-0.7497;
321.3000;0.0887;-0.7633;
321.6000;0.0879;-0.7769;
321.9000;0.0928;-0.7655;
322.2000;0.0928;-0.7723;
322.5000;0.0920;-0.7610;
322.8000;0.0985;-0.7452;
323.1000;0.0936;-0.7655;
323.4000;0.0920;-0.7723;
323.7000;0.0912;-0.7723;
324.0000;0.0887;-0.7769;
324.3000;0.0855;-0.7859;
324.6000;0.0944;-0.7565;
324.9000;0.0912;-0.7655;
325.2000;0.0928;-0.7519;
325.5000;0.0904;-0.7519;
325.8000;0.0985;-0.7270;
326.1000;0.0895;-0.7474;
326.4000;0.0912;-0.7406;
326.7000;0.0920;-0.7429;
327.0000;0.0912;-0.7474;
327.3000;0.0904;-0.7610;
327.6000;0.0895;-0.7633;
327.9000;0.0912;-0.7633;
328.2000;0.0936;-0.7610;
328.5000;0.0904;-0.7678;
328.8000;0.0920;-0.7565;
329.1000;0.0920;-0.7587;
329.4000;0.0936;-0.7633;
329.7000;0.0920;-0.7701;
330.0000;0.0904;-0.7610;
330.3000;0.0928;-0.7474;
330.6000;0.0912;-0.7497;
330.9000;0.0920;-0.7429;
331.2000;0.0773;-0.7814;
331.5000;0.0904;-0.7542;
331.8000;0.0936;-0.7452;
332.1000;0.0912;-0.7497;
332.4000;0.0920;-0.7519;
332.7000;0.0904;-0.7610;
333.0000;0.0912;-0.7587;
333.3000;0.0936;-0.7429;
333.6000;0.0912;-0.7429;
333.9000;0.0928;-0.7429;
334.2000;0.0928;-0.7429;
334.5000;0.0895;-0.7452;
334.8000;0.0936;-0.7384;
335.1000;0.0920;-0.7361;
335.4000;0.0936;-0.7316;
335.7000;0.0887;-0.7429;
336.0000;0.0936;-0.7338;
336.3000;0.0944;-0.7293;
336.6000;0.0904;-0.7406;
336.9000;0.1058;-0.7021;
337.2000;0.0904;-0.7474;
337.5000;0.0904;-0.7474;
337.8000;0.0928;-0.7474;
338.1000;0.0920;-0.7519;
338.4000;0.0936;-0.7519;
338.7000;0.0912;-0.7497;
339.0000;0.0904;-0.7497;
339.3000;0.0904;-0.7452;
339.6000;0.0879;-0.7542;
339.9000;0.0928;-0.7361;
340.2000;0.0920;-0.7384;
340.5000;0.0920;-0.7316;
340.8000;0.0936;-0.7361;
341.1000;0.0936;-0.7361;
341.4000;0.0895;-0.7497;
341.7000;0.0912;-0.7474;
342.0000;0.0904;-0.7406;
342.3000;0.0904;-0.7338;
342.6000;0.0912;-0.7293;
342.9000;0.0895;-0.7293;
343.2000;0.0895;-0.7293;
343.5000;0.0895;-0.7316;
343.8000;0.0879;-0.7361;
344.1000;0.0936;-0.7248;
344.4000;0.0920;-0.7384;
344.7000;0.0879;-0.7497;
345.0000;0.0928;-0.7519;
345.3000;0.0928;-0.7519;
345.6000;0.0895;-0.7474;
345.9000;0.0920;-0.7406;
346.2000;0.0863;-0.7633;
346.5000;0.0895;-0.7633;
346.8000;0.1026;-0.7338;
347.1000;0.0912;-0.7542;
347.4000;0.0928;-0.7519;
347.7000;0.0928;-0.7474;
348.0000;0.0993;-0.7361;
348.3000;0.0855;-0.7633;
348.6000;0.0838;-0.7497;
348.9000;0.0985;-0.7134;
349.2000;0.0920;-0.7293;
349.5000;0.0895;-0.7361;
349.8000;0.1026;-0.7157;
350.1000;0.0928;-0.7452;
350.4000;0.0895;-0.7497;
350.7000;0.0904;-0.7519;
351.0000;0.0912;-0.7452;
351.3000;0.0920;-0.7406;
351.6000;0.0912;-0.7361;
351.9000;0.0920;-0.7338;
352.2000;0.0904;-0.7452;
352.5000;0.0944;-0.7293;
352.8000;0.0912;-0.7384;
353.1000;0.0912;-0.7384;
353.4000;0.0904;-0.7384;
353.7000;0.0936;-0.7270;
354.0000;0.0928;-0.7384;
354.3000;0.0928;-0.7361;
354.6000;0.0920;-0.7316;
354.9000;0.0920;-0.7248;
355.2000;0.0904;-0.7293;
355.5000;0.0920;-0.7338;
355.8000;0.0904;-0.7429;
356.1000;0.0912;-0.7452;
356.4000;0.0977;-0.7248;
356.7000;0.0904;-0.7452;
357.0000;0.0920;-0.7429;
357.3000;0.0904;-0.7361;
357.6000;0.0904;-0.7384;
357.9000;0.0928;-0.7293;
358.2000;0.0871;-0.7497;
358.5000;0.0912;-0.7406;
358.8000;0.0912;-0.7429;
359.1000;0.0887;-0.7565;
359.4000;0.0895;-0.7610;
359.7000;0.0887;-0.7542;
360.0000;0.0871;-0.7610;
360.3000;0.0928;-0.7452;
360.6000;0.0920;-0.7474;
360.9000;0.0879;-0.7565;
361.2000;0.0895;-0.7610;
361.5000;0.0936;-0.7474;
361.8000;0.0904;-0.7474;
362.1000;0.0904;-0.7452;
362.4000;0.0920;-0.7361;
362.7000;0.0912;-0.7384;
363.0000;0.0928;-0.7384;
363.3000;0.0904;-0.7384;
363.6000;0.0920;-0.7361;
363.9000;0.0920;-0.7384;
364.2000;0.0895;-0.7384;
364.5000;0.0904;-0.7406;
364.8000;0.0895;-0.7474;
365.1000;0.0928;-0.7361;
365.4000;0.0912;-0.7406;
365.7000;0.0936;-0.7452;
366.0000;0.0912;-0.7474;
366.3000;0.0944;-0.7429;
366.6000;0.0912;-0.7542;
366.9000;0.0920;-0.7474;
367.2000;0.0952;-0.7361;
367.5000;0.0944;-0.7361;
367.8000;0.0895;-0.7474;
368.1000;0.0895;-0.7452;
368.4000;0.0912;-0.7316;
368.7000;0.0847;-0.7429;
369.0000;0.0977;-0.7089;
369.3000;0.0895;-0.7248;
369.6000;0.0895;-0.7225;
369.9000;0.0920;-0.7202;
370.2000;0.0904;-0.7270;
370.5000;0.0895;-0.7316;
370.8000;0.0855;-0.7406;
371.1000;0.1001;-0.7067;
371.4000;0.0912;-0.7225;
371.7000;0.0920;-0.7180;
372.0000;0.0871;-0.7316;
372.3000;0.0920;-0.7248;
372.6000;0.0912;-0.7338;
372.9000;0.0928;-0.7338;
373.2000;0.0838;-0.7610;
373.5000;0.0895;-0.7565;
373.8000;0.0912;-0.7452;
374.1000;0.0887;-0.7429;
374.4000;0.0895;-0.7361;
374.7000;0.0912;-0.7384;
375.0000;0.0912;-0.7429;
375.3000;0.0904;-0.7497;
375.6000;0.0912;-0.7361;
375.9000;0.0920;-0.7270;
376.2000;0.0936;-0.7202;
376.5000;0.0977;-0.7067;
376.8000;0.0936;-0.7134;
377.1000;0.0904;-0.7134;
377.4000;0.0904;-0.7067;
377.7000;0.0952;-0.6908;
378.0000;0.0920;-0.6999;
378.3000;0.0936;-0.7067;
378.6000;0.0920;-0.7089;
378.9000;0.0928;-0.7044;
379.2000;0.0928;-0.6999;
379.5000;0.0920;-0.7044;
379.8000;0.0944;-0.7067;
380.1000;0.0912;-0.7157;
380.4000;0.0920;-0.7089;
380.7000;0.0904;-0.7089;
381.0000;0.0936;-0.7044;
381.3000;0.0895;-0.7248;
381.6000;0.0928;-0.7157;
381.9000;0.0920;-0.7225;
382.2000;0.0887;-0.7384;
382.5000;0.0904;-0.7338;
382.8000;0.0912;-0.7361;
383.1000;0.0887;-0.7361;
383.4000;0.0838;-0.7452;
383.7000;0.0936;-0.7270;
384.0000;0.0904;-0.7338;
384.3000;0.1018;-0.7089;
384.6000;0.0920;-0.7270;
384.9000;0.0952;-0.7202;
385.2000;0.0920;-0.7338;
385.5000;0.0969;-0.7202;
385.8000;0.0928;-0.7361;
386.1000;0.0920;-0.7361;
386.4000;0.0830;-0.7587;
386.7000;0.0936;-0.7361;
387.0000;0.0904;-0.7361;
387.3000;0.0952;-0.7270;
387.6000;0.0920;-0.7406;
387.9000;0.0928;-0.7429;
388.2000;0.0936;-0.7384;
388.5000;0.0936;-0.7316;
388.8000;0.0895;-0.7406;
389.1000;0.0895;-0.7429;
389.4000;0.0895;-0.7338;
389.7000;0.0887;-0.7316;
390.0000;0.0863;-0.7384;
390.3000;0.0895;-0.7361;
390.6000;0.0904;-0.7316;
390.9000;0.0928;-0.7202;
391.2000;0.0928;-0.7202;
391.5000;0.0904;-0.7293;
391.8000;0.0904;-0.7338;
392.1000;0.0961;-0.7225;
392.4000;0.0920;-0.7293;
392.7000;0.0904;-0.7429;
393.0000;0.0912;-0.7384;
393.3000;0.0928;-0.7338;
393.6000;0.0904;-0.7429;
393.9000;0.0895;-0.7452;
394.2000;0.0920;-0.7497;
394.5000;0.0912;-0.7452;
394.8000;0.0912;-0.7406;
395.1000;0.0895;-0.7474;
395.4000;0.0920;-0.7429;
395.7000;0.0985;-0.7248;
396.0000;0.0904;-0.7452;
396.3000;0.0920;-0.7384;
396.6000;0.0928;-0.7406;
396.9000;0.0904;-0.7406;
397.2000;0.0928;-0.7270;
397.5000;0.0936;-0.7157;
397.8000;0.1001;-0.7021;
398.1000;0.0920;-0.7270;
398.4000;0.0895;-0.7384;
398.7000;0.0912;-0.7384;
399.0000;0.0904;-0.7429;
399.3000;0.0928;-0.7384;
399.6000;0.0920;-0.7429;
399.9000;0.0895;-0.7452;
400.2000;0.0920;-0.7361;
400.5000;0.0993;-0.7134;
400.8000;0.0920;-0.7293;
401.1000;0.0952;-0.7270;
401.4000;0.0847;-0.7429;
401.7000;0.0936;-0.7180;
402.0000;0.0847;-0.7452;
402.3000;0.0863;-0.7406;
402.6000;0.0904;-0.7384;
402.9000;0.0904;-0.7406;
403.2000;0.0895;-0.7338;
403.5000;0.0920;-0.7338;
403.8000;0.0895;-0.7406;
404.1000;0.0879;-0.7429;
404.4000;0.0912;-0.7361;
404.7000;0.0798;-0.7587;
405.0000;0.0920;-0.7225;
405.3000;0.0928;-0.7248;
405.6000;0.0895;-0.7452;
405.9000;0.0936;-0.7361;
406.2000;0.0895;-0.7474;
406.5000;0.0887;-0.7497;
406.8000;0.0830;-0.7587;
407.1000;0.0879;-0.7429;
407.4000;0.0961;-0.7157;
407.7000;0.0887;-0.7293;
408.0000;0.0904;-0.7316;
408.3000;0.0985;-0.7157;
408.6000;0.0895;-0.7384;
408.9000;0.1009;-0.7134;
409.2000;0.0920;-0.7361;
409.5000;0.0944;-0.7270;
409.8000;0.0920;-0.7225;
410.1000;0.0928;-0.7225;
410.4000;0.0912;-0.7248;
410.7000;0.0928;-0.7225;
411.0000;0.0944;-0.7202;
411.3000;0.0855;-0.7452;
411.6000;0.0871;-0.7384;
411.9000;0.0904;-0.7316;
412.2000;0.0904;-0.7384;
412.5000;0.0928;-0.7361;
412.8000;0.0912;-0.7361;
413.1000;0.0944;-0.7293;
413.4000;0.0912;-0.7361;
413.7000;0.0912;-0.7293;
414.0000;0.0847;-0.7429;
414.3000;0.0920;-0.7270;
414.6000;0.0936;-0.7338;
414.9000;0.0887;-0.7384;
415.2000;0.0904;-0.7384;
415.5000;0.0904;-0.7316;
415.8000;0.0928;-0.7293;
416.1000;0.0928;-0.7316;
416.4000;0.0895;-0.7338;
416.7000;0.0912;-0.7338;
417.0000;0.0928;-0.7248;
417.3000;0.0904;-0.7293;
417.6000;0.0912;-0.7248;
417.9000;0.0912;-0.7270;
418.2000;0.0977;-0.7112;
418.5000;0.0912;-0.7293;
418.8000;0.0985;-0.7134;
419.1000;0.0912;-0.7316;
419.4000;0.0895;-0.7338;
419.7000;0.0887;-0.7338;
420.0000;0.0920;-0.7225;
420.3000;0.0912;-0.7202;
420.6000;0.0871;-0.7270;
420.9000;0.0879;-0.7270;
421.2000;0.0895;-0.7248;
421.5000;0.0904;-0.7270;
421.8000;0.0904;-0.7202;
422.1000;0.0920;-0.7134;
422.4000;0.0904;-0.7225;
422.7000;0.0920;-0.7248;
423.0000;0.0912;-0.7338;
423.3000;0.0895;-0.7316;
423.6000;0.0895;-0.7270;
423.9000;0.0895;-0.7202;
424.2000;0.0977;-0.7089;
424.5000;0.0895;-0.7361;
424.8000;0.0936;-0.7293;
425.1000;0.0912;-0.7384;
425.4000;0.0977;-0.7134;
425.7000;0.0912;-0.7384;
426.0000;0.0895;-0.7497;
426.3000;0.0904;-0.7542;
426.6000;0.0904;-0.7429;
426.9000;0.0936;-0.7361;
427.2000;0.0847;-0.7678;
427.5000;0.0920;-0.7497;
427.8000;0.0936;-0.7452;
428.1000;0.0895;-0.7519;
428.4000;0.0920;-0.7497;
428.7000;0.0961;-0.7406;
429.0000;0.0944;-0.7474;
429.3000;0.0887;-0.7610;
429.6000;0.0895;-0.7655;
429.9000;0.0920;-0.7678;
430.2000;0.0879;-0.7701;
430.5000;0.0920;-0.7519;
430.8000;0.0904;-0.7452;
431.1000;0.0912;-0.7452;
431.4000;0.0912;-0.7384;
431.7000;0.0912;-0.7361;
432.0000;0.0920;-0.7270;
432.3000;0.0952;-0.7157;
432.6000;0.0936;-0.7225;
432.9000;0.0936;-0.7270;
433.2000;0.0895;-0.7384;
433.5000;0.0879;-0.7316;
433.8000;0.0928;-0.7270;
434.1000;0.0912;-0.7452;
434.4000;0.0912;-0.7542;
434.7000;0.0895;-0.7610;
435.0000;0.0855;-0.7701;
435.3000;0.0904;-0.7542;
435.6000;0.0904;-0.7474;
435.9000;0.0920;-0.7452;
436.2000;0.0887;-0.7452;
436.5000;0.0904;-0.7384;
436.8000;0.0912;-0.7316;
437.1000;0.0863;-0.7452;
437.4000;0.0871;-0.7452;
437.7000;0.0936;-0.7338;
438.0000;0.0912;-0.7338;
438.3000;0.0879;-0.7384;
438.6000;0.0928;-0.7270;
438.9000;0.0920;-0.7270;
439.2000;0.1018;-0.7089;
439.5000;0.0928;-0.7406;
439.8000;0.0920;-0.7361;
440.1000;0.0969;-0.7225;
440.4000;0.0904;-0.7406;
440.7000;0.0879;-0.7497;
441.0000;0.0928;-0.7497;
441.3000;0.0879;-0.7633;
441.6000;0.0920;-0.7519;
441.9000;0.0912;-0.7497;
442.2000;0.0838;-0.7610;
442.5000;0.0904;-0.7519;
442.8000;0.0920;-0.7519;
443.1000;0.0928;-0.7497;
443.4000;0.0887;-0.7587;
443.7000;0.0895;-0.7452;
444.0000;0.0863;-0.7519;
444.3000;0.0904;-0.7497;
444.6000;0.0904;-0.7429;
444.9000;0.0920;-0.7384;
445.2000;0.0895;-0.7429;
445.5000;0.0904;-0.7361;
445.8000;0.0871;-0.7384;
446.1000;0.0936;-0.7248;
446.4000;0.0920;-0.7452;
446.7000;0.0920;-0.7452;
447.0000;0.0887;-0.7587;
447.3000;0.0855;-0.7542;
447.6000;0.0830;-0.7610;
447.9000;0.0928;-0.7406;
448.2000;0.0855;-0.7587;
448.5000;0.0904;-0.7497;
448.8000;0.0920;-0.7452;
449.1000;0.0904;-0.7429;
449.4000;0.0871;-0.7474;
449.7000;0.0912;-0.7316;
450.0000;0.0920;-0.7270;
450.3000;0.0928;-0.7202;
450.6000;0.0920;-0.7293;
450.9000;0.0920;-0.7270;
451.2000;0.0904;-0.7316;
451.5000;0.0904;-0.7338;
451.8000;0.0904;-0.7270;
452.1000;0.0928;-0.7134;
452.4000;0.0912;-0.7248;
452.7000;0.0912;-0.7338;
453.0000;0.0936;-0.7270;
453.3000;0.0912;-0.7338;
453.6000;0.0920;-0.7384;
453.9000;0.0904;-0.7384;
454.2000;0.0936;-0.7361;
454.5000;0.0912;-0.7384;
454.8000;0.0895;-0.7361;
455.1000;0.0928;-0.7270;
455.4000;0.0920;-0.7270;
455.7000;0.0936;-0.7248;
456.0000;0.0912;-0.7270;
456.3000;0.0936;-0.7180;
456.6000;0.0920;-0.7225;
456.9000;0.0895;-0.7270;
457.2000;0.0928;-0.7248;
457.5000;0.0904;-0.7293;
457.8000;0.0895;-0.7293;
458.1000;0.0912;-0.7293;
458.4000;0.0904;-0.7270;
458.7000;0.0895;-0.7270;
459.0000;0.0920;-0.7225;
459.3000;0.0920;-0.7270;
459.6000;0.0895;-0.7316;
459.9000;0.0912;-0.7338;
460.2000;0.0904;-0.7316;
460.5000;0.0912;-0.7248;
460.8000;0.0895;-0.7316;
461.1000;0.0961;-0.7225;
461.4000;0.0904;-0.7361;
461.7000;0.0936;-0.7384;
462.0000;0.0928;-0.7384;
462.3000;0.0928;-0.7384;
462.6000;0.0822;-0.7610;
462.9000;0.0928;-0.7316;
463.2000;0.0887;-0.7406;
463.5000;0.0912;-0.7406;
463.8000;0.0961;-0.7248;
464.1000;0.0985;-0.7225;
464.4000;0.0904;-0.7452;
464.7000;0.0928;-0.7384;
465.0000;0.0920;-0.7406;
465.3000;0.0912;-0.7361;
465.6000;0.0952;-0.7293;
465.9000;0.0944;-0.7293;
466.2000;0.0904;-0.7270;
466.5000;0.0920;-0.7180;
466.8000;0.1066;-0.6885;
467.1000;0.0920;-0.7248;
467.4000;0.0912;-0.7248;
467.7000;0.0912;-0.7225;
468.0000;0.0904;-0.7270;
468.3000;0.0928;-0.7180;
468.6000;0.0928;-0.7202;
468.9000;0.0904;-0.7202;
469.2000;0.0912;-0.7225;
469.5000;0.0928;-0.7202;
469.8000;0.0920;-0.7270;
470.1000;0.0928;-0.7248;
470.4000;0.0895;-0.7248;
470.7000;0.0928;-0.7180;
471.0000;0.0912;-0.7134;
471.3000;0.0912;-0.7270;
471.6000;0.0781;-0.7610;
471.9000;0.0912;-0.7361;
472.2000;0.0920;-0.7293;
472.5000;0.0912;-0.7248;
472.8000;0.0920;-0.7134;
473.1000;0.0928;-0.7134;
473.4000;0.0928;-0.7180;
473.7000;0.0912;-0.7338;
474.0000;0.0863;-0.7429;
474.3000;0.0928;-0.7157;
474.6000;0.0928;-0.7180;
474.9000;0.0904;-0.7338;
475.2000;0.0944;-0.7270;
475.5000;0.0920;-0.7316;
475.8000;0.0944;-0.7316;
476.1000;0.0928;-0.7361;
476.4000;0.0928;-0.7316;
476.7000;0.0920;-0.7338;
477.0000;0.0936;-0.7293;
477.3000;0.0920;-0.7338;
477.6000;0.0904;-0.7361;
477.9000;0.0887;-0.7429;
478.2000;0.0879;-0.7497;
478.5000;0.0912;-0.7338;
478.8000;0.0928;-0.7316;
479.1000;0.0904;-0.7361;
479.4000;0.0912;-0.7361;
479.7000;0.0887;-0.7361;
480.0000;0.0912;-0.7338;
480.3000;0.0928;-0.7316;
480.6000;0.0944;-0.7225;
480.9000;0.0928;-0.7270;
481.2000;0.0928;-0.7270;
481.5000;0.0904;-0.7270;
481.8000;0.0928;-0.7157;
482.1000;0.0961;-0.7067;
482.4000;0.0920;-0.7067;
482.7000;0.0928;-0.7089;
483.0000;0.0920;-0.7044;
483.3000;0.0912;-0.7112;
483.6000;0.0944;-0.7134;
483.9000;0.0904;-0.7202;
484.2000;0.0936;-0.7202;
484.5000;0.0912;-0.7293;
484.8000;0.0928;-0.7270;
485.1000;0.0863;-0.7316;
485.4000;0.0985;-0.7021;
485.7000;0.0936;-0.7134;
486.0000;0.1074;-0.6772;
486.3000;0.0912;-0.7202;
486.6000;0.0944;-0.7202;
486.9000;0.0944;-0.7248;
487.2000;0.0887;-0.7293;
487.5000;0.0920;-0.7225;
487.8000;0.0928;-0.7248;
488.1000;0.0830;-0.7406;
488.4000;0.0920;-0.7202;
488.7000;0.0944;-0.7157;
489.0000;0.0904;-0.7202;
489.3000;0.0912;-0.7157;
489.6000;0.0781;-0.7452;
489.9000;0.0895;-0.7270;
490.2000;0.0912;-0.7202;
490.5000;0.0765;-0.7452;
490.8000;0.0920;-0.7157;
491.1000;0.0904;-0.7293;
491.4000;0.0928;-0.7270;
491.7000;0.0912;-0.7270;
492.0000;0.0912;-0.7225;
492.3000;0.0920;-0.7157;
492.6000;0.0912;-0.7180;
492.9000;0.0912;-0.7157;
493.2000;0.0863;-0.7293;
493.5000;0.0863;-0.7248;
493.8000;0.0936;-0.7134;
494.1000;0.0912;-0.7202;
494.4000;0.0895;-0.7338;
494.7000;0.0912;-0.7293;
495.0000;0.0895;-0.7361;
495.3000;0.0895;-0.7361;
495.6000;0.0871;-0.7406;
495.9000;0.0920;-0.7316;
496.2000;0.0912;-0.7361;
496.5000;0.0928;-0.7225;
496.8000;0.0936;-0.7180;
497.1000;0.0928;-0.7248;
497.4000;0.0904;-0.7361;
497.7000;0.0961;-0.7225;
498.0000;0.0928;-0.7338;
498.3000;0.0920;-0.7361;
498.6000;0.0928;-0.7338;
498.9000;0.0895;-0.7429;
499.2000;0.0928;-0.7361;
499.5000;0.0912;-0.7316;
499.8000;0.0928;-0.7270;
500.1000;0.0904;-0.7452;
500.4000;0.0912;-0.7519;
500.7000;0.0912;-0.7474;
501.0000;0.0912;-0.7474;
501.3000;0.0920;-0.7338;
501.6000;0.0928;-0.7293;
501.9000;0.0904;-0.7361;
502.2000;0.0936;-0.7384;
502.5000;0.0928;-0.7361;
502.8000;0.0920;-0.7429;
503.1000;0.0920;-0.7429;
503.4000;0.0920;-0.7361;
503.7000;0.0912;-0.7406;
504.0000;0.0814;-0.7610;
504.3000;0.0895;-0.7452;
504.6000;0.0904;-0.7519;
504.9000;0.0822;-0.7678;
505.2000;0.0920;-0.7452;
505.5000;0.0928;-0.7429;
505.8000;0.0928;-0.7474;
506.1000;0.0822;-0.7769;
506.4000;0.0912;-0.7587;
506.7000;0.0920;-0.7519;
507.0000;0.0920;-0.7497;
507.3000;0.0928;-0.7452;
507.6000;0.0895;-0.7429;
507.9000;0.0912;-0.7384;
508.2000;0.0822;-0.7633;
508.5000;0.0855;-0.7542;
508.8000;0.0920;-0.7384;
509.1000;0.0936;-0.7361;
509.4000;0.0887;-0.7406;
509.7000;0.0920;-0.7338;
510.0000;0.0952;-0.7316;
510.3000;0.0936;-0.7316;
510.6000;0.0920;-0.7406;
510.9000;0.0920;-0.7429;
511.2000;0.0887;-0.7497;
511.5000;0.0847;-0.7542;
511.8000;0.0944;-0.7361;
512.1000;0.0928;-0.7384;
512.4000;0.0920;-0.7497;
512.7000;0.0912;-0.7565;
513.0000;0.0912;-0.7429;
513.3000;0.0904;-0.7384;
513.6000;0.0912;-0.7384;
513.9000;0.0879;-0.7452;
514.2000;0.0920;-0.7293;
514.5000;0.0928;-0.7225;
514.8000;0.0904;-0.7316;
515.1000;0.0895;-0.7361;
515.4000;0.0847;-0.7429;
515.7000;0.0912;-0.7316;
516.0000;0.0920;-0.7361;
516.3000;0.0952;-0.7248;
516.6000;0.0993;-0.7157;
516.9000;0.0912;-0.7316;
517.2000;0.0920;-0.7225;
517.5000;0.0993;-0.7134;
517.8000;0.0912;-0.7406;
518.1000;0.0985;-0.7225;
518.4000;0.0944;-0.7248;
518.7000;0.0928;-0.7157;
519.0000;0.0944;-0.7180;
519.3000;0.0871;-0.7316;
519.6000;0.0944;-0.7270;
519.9000;0.0887;-0.7316;
520.2000;0.1018;-0.7067;
520.5000;0.0928;-0.7248;
520.8000;0.0912;-0.7270;
521.1000;0.0912;-0.7316;
521.4000;0.0895;-0.7384;
521.7000;0.0904;-0.7293;
522.0000;0.0887;-0.7316;
522.3000;0.0887;-0.7248;
522.6000;0.0928;-0.7157;
522.9000;0.1018;-0.6953;
523.2000;0.0920;-0.7270;
523.5000;0.0904;-0.7384;
523.8000;0.1058;-0.6999;
524.1000;0.0904;-0.7293;
524.4000;0.0928;-0.7248;
524.7000;0.0895;-0.7406;
525.0000;0.0920;-0.7384;
525.3000;0.0912;-0.7270;
525.6000;0.0920;-0.7225;
525.9000;0.0944;-0.7134;
526.2000;0.0928;-0.7134;
526.5000;0.0920;-0.7180;
526.8000;0.0936;-0.7089;
527.1000;0.0936;-0.7112;
527.4000;0.0895;-0.7270;
527.7000;0.0895;-0.7338;
528.0000;0.0912;-0.7293;
528.3000;0.0895;-0.7338;
528.6000;0.0887;-0.7474;
528.9000;0.0879;-0.7452;
529.2000;0.0920;-0.7474;
529.5000;0.0904;-0.7587;
529.8000;0.0887;-0.7633;
530.1000;0.0920;-0.7587;
530.4000;0.0944;-0.7474;
530.7000;0.0895;-0.7565;
531.0000;0.0904;-0.7542;
531.3000;0.0912;-0.7519;
531.6000;0.0895;-0.7542;
531.9000;0.0855;-0.7610;
532.2000;0.0920;-0.7406;
532.5000;0.0904;-0.7429;
532.8000;0.0936;-0.7316;
533.1000;0.0871;-0.7497;
533.4000;0.0920;-0.7429;
533.7000;0.0895;-0.7519;
534.0000;0.0904;-0.7542;
534.3000;0.0904;-0.7542;
534.6000;0.0969;-0.7338;
534.9000;0.0920;-0.7429;
535.2000;0.0904;-0.7429;
535.5000;0.0855;-0.7587;
535.8000;0.0920;-0.7406;
536.1000;0.0920;-0.7452;
536.4000;0.0944;-0.7338;
536.7000;0.0936;-0.7429;
537.0000;0.0936;-0.7542;
537.3000;0.0879;-0.7655;
537.6000;0.0904;-0.7655;
537.9000;0.0952;-0.7542;
538.2000;0.0904;-0.7610;
538.5000;0.0944;-0.7474;
538.8000;0.0904;-0.7565;
539.1000;0.0887;-0.7610;
539.4000;0.0773;-0.7859;
539.7000;0.0912;-0.7497;
540.0000;0.0895;-0.7587;
540.3000;0.0855;-0.7610;
540.6000;0.0920;-0.7565;
540.9000;0.0920;-0.7610;
541.2000;0.0838;-0.7769;
541.5000;0.0855;-0.7655;
541.8000;0.0961;-0.7429;
542.1000;0.0920;-0.7519;
542.4000;0.0871;-0.7497;
542.7000;0.0895;-0.7406;
543.0000;0.0887;-0.7519;
543.3000;0.0936;-0.7338;
543.6000;0.0904;-0.7542;
543.9000;0.0855;-0.7633;
544.2000;0.0928;-0.7429;
544.5000;0.0912;-0.7519;
544.8000;0.0928;-0.7474;
545.1000;0.0912;-0.7429;
545.4000;0.0879;-0.7542;
545.7000;0.0912;-0.7429;
546.0000;0.0928;-0.7452;
546.3000;0.0944;-0.7474;
546.6000;0.0920;-0.7565;
546.9000;0.0887;-0.7633;
547.2000;0.0887;-0.7565;
547.5000;0.0920;-0.7519;
547.8000;0.1001;-0.7293;
548.1000;0.0912;-0.7610;
548.4000;0.0952;-0.7497;
548.7000;0.0904;-0.7587;
549.0000;0.0904;-0.7655;
549.3000;0.0879;-0.7633;
549.6000;0.0920;-0.7610;
549.9000;0.0936;-0.7519;
550.2000;0.0895;-0.7587;
550.5000;0.0912;-0.7452;
550.8000;0.0904;-0.7519;
551.1000;0.0969;-0.7361;
551.4000;0.0895;-0.7519;
551.7000;0.0920;-0.7497;
552.0000;0.0944;-0.7429;
552.3000;0.0912;-0.7474;
552.6000;0.0928;-0.7384;
552.9000;0.0912;-0.7429;
553.2000;0.0781;-0.7746;
553.5000;0.0952;-0.7406;
553.8000;0.0904;-0.7474;
554.1000;0.0944;-0.7384;
554.4000;0.0944;-0.7406;
554.7000;0.0847;-0.7701;
555.0000;0.0895;-0.7610;
555.3000;0.0912;-0.7587;
555.6000;0.0904;-0.7519;
555.9000;0.0895;-0.7565;
556.2000;0.0920;-0.7497;
556.5000;0.0920;-0.7542;
556.8000;0.0952;-0.7497;
557.1000;0.0944;-0.7474;
557.4000;0.0969;-0.7406;
557.7000;0.0904;-0.7633;
558.0000;0.0904;-0.7701;
558.3000;0.0928;-0.7746;
558.6000;0.0871;-0.7814;
558.9000;0.0895;-0.7882;
559.2000;0.0912;-0.7723;
559.5000;0.0904;-0.7791;
559.8000;0.0904;-0.7814;
560.1000;0.0895;-0.7678;
560.4000;0.0936;-0.7542;
560.7000;0.0912;-0.7587;
561.0000;0.0912;-0.7633;
561.3000;0.0936;-0.7633;
561.6000;0.1058;-0.7225;
561.9000;0.0920;-0.7587;
562.2000;0.0928;-0.7610;
562.5000;0.0895;-0.7678;
562.8000;0.0920;-0.7678;
563.1000;0.0895;-0.7769;
563.4000;0.0936;-0.7746;
563.7000;0.0920;-0.7769;
564.0000;0.0757;-0.8154;
564.3000;0.0904;-0.7701;
564.6000;0.0879;-0.7791;
564.9000;0.0920;-0.7723;
565.2000;0.0863;-0.7837;
565.5000;0.0887;-0.7769;
565.8000;0.0887;-0.7791;
566.1000;0.0920;-0.7769;
566.4000;0.0863;-0.7972;
566.7000;0.0920;-0.7859;
567.0000;0.0895;-0.7950;
567.3000;0.0928;-0.7882;
567.6000;0.0920;-0.7769;
567.9000;0.0887;-0.7859;
568.2000;0.0936;-0.7723;
568.5000;0.0895;-0.7791;
568.8000;0.0920;-0.7769;
569.1000;0.0895;-0.7791;
569.4000;0.0904;-0.7837;
569.7000;0.0920;-0.7791;
570.0000;0.0969;-0.7678;
570.3000;0.0904;-0.7723;
570.6000;0.0912;-0.7701;
570.9000;0.0928;-0.7678;
571.2000;0.0920;-0.7746;
571.5000;0.0904;-0.7791;
571.8000;0.0936;-0.7655;
572.1000;0.0895;-0.7723;
572.4000;0.0936;-0.7565;
572.7000;0.0936;-0.7723;
573.0000;0.0887;-0.7769;
573.3000;0.0936;-0.7723;
573.6000;0.0928;-0.7678;
573.9000;0.0895;-0.7746;
574.2000;0.0904;-0.7769;
574.5000;0.0904;-0.7882;
574.8000;0.0928;-0.7859;
575.1000;0.0936;-0.7814;
575.4000;0.0952;-0.7769;
575.7000;0.0928;-0.7859;
576.0000;0.0952;-0.7769;
576.3000;0.0928;-0.7837;
576.6000;0.0904;-0.7905;
576.9000;0.0936;-0.7837;
577.2000;0.0920;-0.7882;
577.5000;0.0814;-0.8199;
577.8000;0.0887;-0.7972;
578.1000;0.0920;-0.7972;
578.4000;0.0928;-0.7972;
578.7000;0.0871;-0.8131;
579.0000;0.0895;-0.7995;
579.3000;0.0871;-0.8018;
579.6000;0.0904;-0.7972;
579.9000;0.0904;-0.7950;
580.2000;0.0961;-0.7859;
580.5000;0.0887;-0.7972;
580.8000;0.0912;-0.7927;
581.1000;0.0977;-0.7791;
581.4000;0.0993;-0.7701;
581.7000;0.0920;-0.7859;
582.0000;0.0920;-0.7882;
582.3000;0.0985;-0.7678;
582.6000;0.0928;-0.7791;
582.9000;0.0904;-0.7769;
583.2000;0.0904;-0.7723;
583.5000;0.0928;-0.7655;
583.8000;0.0904;-0.7610;
584.1000;0.0936;-0.7565;
584.4000;0.0879;-0.7655;
584.7000;0.0944;-0.7497;
585.0000;0.0944;-0.7497;
585.3000;0.0920;-0.7610;
585.6000;0.0993;-0.7474;
585.9000;0.0920;-0.7746;
586.2000;0.0928;-0.7723;
586.5000;0.0912;-0.7791;
586.8000;0.0920;-0.7791;
587.1000;0.0920;-0.7814;
587.4000;0.1001;-0.7610;
587.7000;0.0904;-0.7746;
588.0000;0.0936;-0.7723;
588.3000;0.0928;-0.7723;
588.6000;0.0904;-0.7791;
588.9000;0.0920;-0.7746;
589.2000;0.0904;-0.7791;
589.5000;0.0920;-0.7814;
589.8000;0.0912;-0.7837;
590.1000;0.0920;-0.7746;
590.4000;0.0814;-0.7972;
590.7000;0.0936;-0.7633;
591.0000;0.1042;-0.7384;
591.3000;0.0912;-0.7655;
591.6000;0.0895;-0.7678;
591.9000;0.0904;-0.7519;
592.2000;0.0912;-0.7452;
592.5000;0.0920;-0.7474;
592.8000;0.0920;-0.7542;
593.1000;0.0912;-0.7565;
593.4000;0.0895;-0.7542;
593.7000;0.0912;-0.7519;
594.0000;0.0895;-0.7587;
594.3000;0.0895;-0.7587;
594.6000;0.0887;-0.7655;
594.9000;0.0895;-0.7678;
595.2000;0.0936;-0.7610;
595.5000;0.0904;-0.7723;
595.8000;0.0928;-0.7746;
596.1000;0.0904;-0.7746;
596.4000;0.0920;-0.7587;
596.7000;0.0920;-0.7587;
597.0000;0.0920;-0.7565;
597.3000;0.0904;-0.7678;
597.6000;0.0920;-0.7723;
597.9000;0.0920;-0.7655;
598.2000;0.0920;-0.7655;
598.5000;0.0920;-0.7769;
598.8000;0.0928;-0.7769;
599.1000;0.0928;-0.7723;
599.4000;0.0936;-0.7655;
599.7000;0.0928;-0.7723;
600.0000;0.0887;-0.7859;
600.3000;0.0912;-0.7837;
600.6000;0.0944;-0.7859;
600.9000;0.0928;-0.7882;
601.2000;0.0904;-0.7995;
601.5000;0.0969;-0.7950;
601.8000;0.0887;-0.8176;
602.1000;0.0871;-0.8244;
602.4000;0.0863;-0.8358;
602.7000;0.0871;-0.8380;
603.0000;0.0871;-0.8448;
603.3000;0.0879;-0.8516;
603.6000;0.0855;-0.8629;
603.9000;0.0822;-0.8765;
604.2000;0.0912;-0.8539;
604.5000;0.0773;-0.8924;
604.8000;0.0855;-0.8765;
605.1000;0.0692;-0.9105;
605.4000;0.0863;-0.8765;
605.7000;0.0863;-0.8765;
606.0000;0.0863;-0.8675;
606.3000;0.0838;-0.8720;
606.6000;0.0847;-0.8765;
606.9000;0.0879;-0.8765;
607.2000;0.0847;-0.8878;
607.5000;0.0814;-0.8924;
607.8000;0.0847;-0.8856;
608.1000;0.0822;-0.8946;
608.4000;0.0847;-0.8992;
608.7000;0.0822;-0.9014;
609.0000;0.0944;-0.8720;
609.3000;0.0814;-0.9082;
609.6000;0.0830;-0.9060;
609.9000;0.0806;-0.9082;
610.2000;0.0741;-0.9218;
610.5000;0.0741;-0.9241;
610.8000;0.0830;-0.9037;
611.1000;0.0773;-0.9218;
611.4000;0.0773;-0.9196;
611.7000;0.0814;-0.9173;
612.0000;0.0822;-0.9173;
612.3000;0.0773;-0.9263;
612.6000;0.0822;-0.9128;
612.9000;0.0790;-0.9128;
613.2000;0.0773;-0.9218;
613.5000;0.0741;-0.9286;
613.8000;0.0790;-0.9173;
614.1000;0.0790;-0.9150;
614.4000;0.0749;-0.9263;
614.7000;0.0985;-0.8788;
615.0000;0.0814;-0.9218;
615.3000;0.0806;-0.9218;
615.6000;0.0814;-0.9218;
615.9000;0.0724;-0.9445;
616.2000;0.0790;-0.9173;
616.5000;0.0790;-0.9241;
616.8000;0.0757;-0.9331;
617.1000;0.0749;-0.9354;
617.4000;0.0814;-0.9150;
617.7000;0.0855;-0.8992;
618.0000;0.0830;-0.9105;
618.3000;0.0798;-0.9150;
618.6000;0.0798;-0.9105;
618.9000;0.0806;-0.8992;
619.2000;0.0757;-0.9150;
619.5000;0.0773;-0.9150;
619.8000;0.0814;-0.9173;
620.1000;0.0790;-0.9218;
620.4000;0.0781;-0.9196;
620.7000;0.0798;-0.9128;
621.0000;0.0765;-0.9128;
621.3000;0.0790;-0.9037;
621.6000;0.0806;-0.8946;
621.9000;0.0830;-0.8765;
622.2000;0.0790;-0.8810;
622.5000;0.0814;-0.8743;
622.8000;0.0806;-0.8833;
623.1000;0.0790;-0.8946;
623.4000;0.0814;-0.8924;
623.7000;0.0790;-0.8878;
624.0000;0.0790;-0.8901;
624.3000;0.0806;-0.8878;
624.6000;0.0790;-0.8924;
624.9000;0.0822;-0.8878;
625.2000;0.0765;-0.9014;
625.5000;0.0798;-0.9105;
625.8000;0.0781;-0.9241;
626.1000;0.0822;-0.9173;
626.4000;0.0838;-0.9037;
626.7000;0.0700;-0.9422;
627.0000;0.0830;-0.9082;
627.3000;0.0806;-0.9128;
627.6000;0.0895;-0.8901;
627.9000;0.0790;-0.9128;
628.2000;0.0781;-0.9196;
628.5000;0.0830;-0.9105;
628.8000;0.0790;-0.9105;
629.1000;0.0781;-0.9173;
629.4000;0.0765;-0.9173;
629.7000;0.0781;-0.9082;
630.0000;0.0806;-0.9014;
630.3000;0.0781;-0.9060;
630.6000;0.0806;-0.9082;
630.9000;0.0790;-0.9128;
631.2000;0.0814;-0.9037;
631.5000;0.0773;-0.9082;
631.8000;0.0790;-0.9037;
632.1000;0.0798;-0.8992;
632.4000;0.0798;-0.9014;
632.7000;0.0781;-0.8992;
633.0000;0.0806;-0.8946;
633.3000;0.0676;-0.9263;
633.6000;0.0733;-0.9150;
633.9000;0.0790;-0.8969;
634.2000;0.0798;-0.8924;
634.5000;0.0765;-0.9128;
634.8000;0.0798;-0.9060;
635.1000;0.0781;-0.9150;
635.4000;0.0855;-0.8992;
635.7000;0.0781;-0.9060;
636.0000;0.0798;-0.9037;
636.3000;0.0944;-0.8629;
636.6000;0.0838;-0.8878;
636.9000;0.0781;-0.8992;
637.2000;0.0716;-0.9105;
637.5000;0.0790;-0.8946;
637.8000;0.0790;-0.8992;
638.1000;0.0773;-0.9037;
638.4000;0.0790;-0.8924;
638.7000;0.0781;-0.8969;
639.0000;0.0773;-0.9014;
639.3000;0.0749;-0.9037;
639.6000;0.0790;-0.8924;
639.9000;0.0757;-0.9014;
640.2000;0.0749;-0.9014;
640.5000;0.0757;-0.8992;
640.8000;0.0773;-0.8946;
641.1000;0.0773;-0.8992;
641.4000;0.0781;-0.8969;
641.7000;0.0781;-0.9082;
642.0000;0.0765;-0.9060;
642.3000;0.0741;-0.9150;
642.6000;0.0781;-0.9037;
642.9000;0.0773;-0.8969;
643.2000;0.0790;-0.8924;
643.5000;0.0765;-0.9014;
643.8000;0.0733;-0.9128;
644.1000;0.0741;-0.9060;
644.4000;0.0790;-0.8946;
644.7000;0.0790;-0.8901;
645.0000;0.0781;-0.8969;
645.3000;0.0749;-0.8946;
645.6000;0.0765;-0.8992;
645.9000;0.0765;-0.9060;
646.2000;0.0806;-0.8969;
646.5000;0.0773;-0.8946;
646.8000;0.0814;-0.8810;
647.1000;0.0757;-0.8924;
647.4000;0.0749;-0.8969;
647.7000;0.0773;-0.8901;
648.0000;0.0773;-0.8901;
648.3000;0.0733;-0.8992;
648.6000;0.0708;-0.9014;
648.9000;0.0798;-0.8788;
649.2000;0.0765;-0.8833;
649.5000;0.0716;-0.8969;
649.8000;0.0757;-0.8946;
650.1000;0.0781;-0.8878;
650.4000;0.0757;-0.8924;
650.7000;0.0765;-0.8856;
651.0000;0.0781;-0.8833;
651.3000;0.0781;-0.8878;
651.6000;0.0757;-0.8969;
651.9000;0.0765;-0.9037;
652.2000;0.0781;-0.8992;
652.5000;0.0708;-0.9196;
652.8000;0.0838;-0.8833;
653.1000;0.0773;-0.8992;
653.4000;0.0790;-0.9014;
653.7000;0.0765;-0.9105;
654.0000;0.0781;-0.9128;
654.3000;0.0871;-0.8788;
654.6000;0.0765;-0.9082;
654.9000;0.0781;-0.9060;
655.2000;0.0781;-0.9037;
655.5000;0.0838;-0.8878;
655.8000;0.0790;-0.9014;
656.1000;0.0765;-0.9037;
656.4000;0.0822;-0.8878;
656.7000;0.0757;-0.9014;
657.0000;0.0773;-0.8992;
657.3000;0.0790;-0.8946;
657.6000;0.0781;-0.8901;
657.9000;0.0692;-0.9150;
658.2000;0.0781;-0.8946;
658.5000;0.0716;-0.9105;
658.8000;0.0781;-0.8901;
659.1000;0.0749;-0.8992;
659.4000;0.0724;-0.9082;
659.7000;0.0773;-0.8969;
660.0000;0.0765;-0.8992;
660.3000;0.0781;-0.8992;
660.6000;0.0749;-0.9060;
660.9000;0.0765;-0.9014;
661.2000;0.0773;-0.8992;
661.5000;0.0765;-0.9082;
661.8000;0.0773;-0.9060;
662.1000;0.0765;-0.9105;
662.4000;0.0765;-0.9128;
662.7000;0.0790;-0.9060;
663.0000;0.0773;-0.9173;
663.3000;0.0790;-0.9150;
663.6000;0.0757;-0.9241;
663.9000;0.0765;-0.9196;
664.2000;0.0724;-0.9218;
664.5000;0.0765;-0.9060;
664.8000;0.0773;-0.8969;
665.1000;0.0781;-0.8901;
665.4000;0.0773;-0.8946;
665.7000;0.0757;-0.8946;
666.0000;0.0765;-0.8856;
666.3000;0.0749;-0.8946;
666.6000;0.0790;-0.8901;
666.9000;0.0773;-0.8992;
667.2000;0.0781;-0.8946;
667.5000;0.0773;-0.8946;
667.8000;0.0781;-0.8924;
668.1000;0.0749;-0.8992;
668.4000;0.0765;-0.8901;
668.7000;0.0773;-0.8856;
669.0000;0.0765;-0.8924;
669.3000;0.0757;-0.8992;
669.6000;0.0749;-0.8969;
669.9000;0.0757;-0.8946;
670.2000;0.0757;-0.8992;
670.5000;0.0741;-0.8969;
670.8000;0.0773;-0.8946;
671.1000;0.0798;-0.8878;
671.4000;0.0692;-0.9082;
671.7000;0.0773;-0.9014;
672.0000;0.0781;-0.9037;
672.3000;0.0847;-0.8833;
672.6000;0.0765;-0.9014;
672.9000;0.0773;-0.8969;
673.2000;0.0716;-0.9037;
673.5000;0.0594;-0.9309;
673.8000;0.0781;-0.8810;
674.1000;0.0749;-0.8810;
674.4000;0.0741;-0.8810;
674.7000;0.0830;-0.8697;
675.0000;0.0749;-0.8924;
675.3000;0.0684;-0.9196;
675.6000;0.0765;-0.8878;
675.9000;0.0757;-0.9037;
676.2000;0.0765;-0.8992;
676.5000;0.0773;-0.8969;
676.8000;0.0757;-0.8992;
677.1000;0.0667;-0.9150;
677.4000;0.0773;-0.8969;
677.7000;0.0619;-0.9331;
678.0000;0.0741;-0.9105;
678.3000;0.0773;-0.8969;
678.6000;0.0724;-0.9060;
678.9000;0.0773;-0.8924;
679.2000;0.0765;-0.8969;
679.5000;0.0765;-0.8901;
679.8000;0.0733;-0.8992;
680.1000;0.0757;-0.8856;
680.4000;0.0757;-0.8856;
680.7000;0.0757;-0.8833;
681.0000;0.0773;-0.8833;
681.3000;0.0757;-0.8924;
681.6000;0.0741;-0.8969;
681.9000;0.0741;-0.8924;
682.2000;0.0724;-0.9014;
682.5000;0.0773;-0.8901;
682.8000;0.0765;-0.8924;
683.1000;0.0708;-0.8969;
683.4000;0.0765;-0.8992;
683.7000;0.0781;-0.8992;
684.0000;0.0749;-0.9037;
684.3000;0.0724;-0.9037;
684.6000;0.0724;-0.9037;
684.9000;0.0798;-0.8856;
685.2000;0.0757;-0.8901;
685.5000;0.0781;-0.8810;
685.8000;0.0773;-0.8810;
686.1000;0.0765;-0.8833;
686.4000;0.0757;-0.8856;
686.7000;0.0773;-0.8810;
687.0000;0.0724;-0.8878;
687.3000;0.0765;-0.8788;
687.6000;0.0749;-0.8765;
687.9000;0.0749;-0.8856;
688.2000;0.0741;-0.8856;
688.5000;0.0741;-0.8924;
688.8000;0.0749;-0.8901;
689.1000;0.0765;-0.8833;
689.4000;0.0749;-0.8901;
689.7000;0.0749;-0.8946;
690.0000;0.0773;-0.8833;
690.3000;0.0790;-0.8878;
690.6000;0.0749;-0.8946;
690.9000;0.0749;-0.8992;
691.2000;0.0765;-0.8901;
691.5000;0.0757;-0.9014;
691.8000;0.0749;-0.9060;
692.1000;0.0773;-0.9060;
692.4000;0.0765;-0.9105;
692.7000;0.0781;-0.9037;
693.0000;0.0757;-0.9014;
693.3000;0.0749;-0.9082;
693.6000;0.0773;-0.9014;
693.9000;0.0765;-0.9037;
694.2000;0.0790;-0.9014;
694.5000;0.0773;-0.8992;
694.8000;0.0651;-0.9354;
695.1000;0.0781;-0.9082;
695.4000;0.0904;-0.8697;
695.7000;0.0757;-0.9082;
696.0000;0.0749;-0.9082;
696.3000;0.0749;-0.9128;
696.6000;0.0781;-0.9014;
696.9000;0.0773;-0.9037;
697.2000;0.0635;-0.9422;
697.5000;0.0781;-0.9196;
697.8000;0.0773;-0.9060;
698.1000;0.0781;-0.9082;
698.4000;0.0733;-0.9128;
698.7000;0.0806;-0.8924;
699.0000;0.0790;-0.8901;
699.3000;0.0790;-0.8924;
699.6000;0.0814;-0.8856;
699.9000;0.0708;-0.9060;
700.2000;0.0741;-0.8992;
700.5000;0.0741;-0.8969;
700.8000;0.0749;-0.8924;
701.1000;0.0733;-0.8946;
701.4000;0.0757;-0.8901;
701.7000;0.0765;-0.8833;
702.0000;0.0790;-0.8833;
702.3000;0.0781;-0.8946;
702.6000;0.0773;-0.8992;
702.9000;0.0724;-0.9150;
703.2000;0.0757;-0.9060;
703.5000;0.0765;-0.8992;
703.8000;0.0773;-0.8969;
704.1000;0.0700;-0.9173;
704.4000;0.0773;-0.9037;
704.7000;0.0765;-0.9037;
705.0000;0.0716;-0.9218;
705.3000;0.0741;-0.9173;
705.6000;0.0757;-0.9218;
705.9000;0.0757;-0.9241;
706.2000;0.0692;-0.9399;
706.5000;0.0765;-0.9173;
706.8000;0.0741;-0.9196;
707.1000;0.0757;-0.9173;
707.4000;0.0749;-0.9196;
707.7000;0.0733;-0.9241;
708.0000;0.0733;-0.9241;
708.3000;0.0765;-0.9196;
708.6000;0.0757;-0.9105;
708.9000;0.0741;-0.9150;
709.2000;0.0757;-0.9128;
709.5000;0.0724;-0.9196;
709.8000;0.0749;-0.9128;
710.1000;0.0733;-0.9150;
710.4000;0.0741;-0.9128;
710.7000;0.0773;-0.9037;
711.0000;0.0708;-0.9173;
711.3000;0.0733;-0.9037;
711.6000;0.0773;-0.8924;
711.9000;0.0724;-0.9014;
712.2000;0.0757;-0.9014;
712.5000;0.0708;-0.9173;
712.8000;0.0757;-0.9014;
713.1000;0.0814;-0.8856;
713.4000;0.0741;-0.9173;
713.7000;0.0749;-0.9060;
714.0000;0.0757;-0.9150;
714.3000;0.0757;-0.9082;
714.6000;0.0749;-0.9128;
714.9000;0.0757;-0.9037;
715.2000;0.0676;-0.9286;
715.5000;0.0757;-0.9128;
715.8000;0.0781;-0.9082;
716.1000;0.0806;-0.9014;
716.4000;0.0757;-0.9082;
716.7000;0.0733;-0.9218;
717.0000;0.0749;-0.9173;
717.3000;0.0741;-0.9128;
717.6000;0.0757;-0.9037;
717.9000;0.0765;-0.9150;
718.2000;0.0773;-0.9105;
718.5000;0.0757;-0.9196;
718.8000;0.0741;-0.9196;
719.1000;0.0749;-0.9082;
719.4000;0.0733;-0.9082;
719.7000;0.0749;-0.9082;
720.0000;0.0733;-0.9060;
720.3000;0.0806;-0.8878;
720.6000;0.0741;-0.9196;
720.9000;0.0773;-0.9082;
721.2000;0.0741;-0.9105;
721.5000;0.0684;-0.9377;
721.8000;0.0716;-0.9263;
722.1000;0.0765;-0.9105;
722.4000;0.0757;-0.9128;
722.7000;0.0724;-0.9128;
723.0000;0.0716;-0.9150;
723.3000;0.0659;-0.9286;
723.6000;0.0757;-0.9150;
723.9000;0.0724;-0.9196;
724.2000;0.0830;-0.8924;
724.5000;0.0741;-0.9150;
724.8000;0.0757;-0.9105;
725.1000;0.0733;-0.9150;
725.4000;0.0700;-0.9286;
725.7000;0.0749;-0.9173;
726.0000;0.0781;-0.9105;
726.3000;0.0749;-0.9173;
726.6000;0.0659;-0.9399;
726.9000;0.0741;-0.9128;
727.2000;0.0863;-0.8901;
727.5000;0.0757;-0.9173;
727.8000;0.0757;-0.9150;
728.1000;0.0749;-0.9241;
728.4000;0.0781;-0.9128;
728.7000;0.0773;-0.9128;
729.0000;0.0773;-0.9082;
729.3000;0.0733;-0.9150;
729.6000;0.0830;-0.8924;
729.9000;0.0830;-0.8856;
730.2000;0.0741;-0.9014;
730.5000;0.0749;-0.9037;
730.8000;0.0773;-0.9037;
731.1000;0.0814;-0.9014;
731.4000;0.0757;-0.9082;
731.7000;0.0814;-0.8924;
732.0000;0.0838;-0.8856;
732.3000;0.0749;-0.9014;
732.6000;0.0765;-0.8901;
732.9000;0.0749;-0.8946;
733.2000;0.0741;-0.8901;
733.5000;0.0757;-0.8833;
733.8000;0.0798;-0.8856;
734.1000;0.0741;-0.9014;
734.4000;0.0676;-0.9218;
734.7000;0.0847;-0.8856;
735.0000;0.0790;-0.8946;
735.3000;0.0733;-0.9173;
735.6000;0.0741;-0.9286;
735.9000;0.0733;-0.9331;
736.2000;0.0708;-0.9399;
736.5000;0.0773;-0.9263;
736.8000;0.0757;-0.9218;
737.1000;0.0757;-0.9241;
737.4000;0.0765;-0.9173;
737.7000;0.0741;-0.9196;
738.0000;0.0757;-0.9105;
738.3000;0.0765;-0.9173;
738.6000;0.0757;-0.9218;
738.9000;0.0724;-0.9331;
739.2000;0.0765;-0.9309;
739.5000;0.0724;-0.9286;
739.8000;0.0724;-0.9241;
740.1000;0.0749;-0.9105;
740.4000;0.0724;-0.9150;
740.7000;0.0716;-0.9128;
741.0000;0.0773;-0.8878;
741.3000;0.0708;-0.9082;
741.6000;0.0765;-0.8901;
741.9000;0.0733;-0.8992;
742.2000;0.0749;-0.8969;
742.5000;0.0749;-0.9037;
742.8000;0.0765;-0.8969;
743.1000;0.0724;-0.9014;
743.4000;0.0716;-0.8992;
743.7000;0.0757;-0.9014;
744.0000;0.0741;-0.9014;
744.3000;0.0741;-0.8992;
744.6000;0.0724;-0.9082;
744.9000;0.0798;-0.8992;
745.2000;0.0749;-0.9060;
745.5000;0.0724;-0.8992;
745.8000;0.0741;-0.8992;
746.1000;0.0773;-0.8901;
746.4000;0.0684;-0.9060;
746.7000;0.0749;-0.8901;
747.0000;0.0724;-0.9037;
747.3000;0.0757;-0.8969;
747.6000;0.0749;-0.8901;
747.9000;0.0733;-0.8992;
748.2000;0.0741;-0.8878;
748.5000;0.0757;-0.8788;
748.8000;0.0773;-0.8810;
749.1000;0.0749;-0.8833;
749.4000;0.0733;-0.8924;
749.7000;0.0741;-0.8969;
750.0000;0.0733;-0.9060;
750.3000;0.0757;-0.9060;
750.6000;0.0757;-0.9014;
750.9000;0.0765;-0.8969;
751.2000;0.0822;-0.8810;
751.5000;0.0611;-0.9354;
751.8000;0.0741;-0.9014;
752.1000;0.0692;-0.9060;
752.4000;0.0879;-0.8448;
752.7000;0.0757;-0.8833;
753.0000;0.0757;-0.8856;
753.3000;0.0781;-0.8743;
753.6000;0.0716;-0.8878;
753.9000;0.0757;-0.8901;
754.2000;0.0757;-0.8901;
754.5000;0.0741;-0.8946;
754.8000;0.0724;-0.8969;
755.1000;0.0830;-0.8675;
755.4000;0.0724;-0.8901;
755.7000;0.0741;-0.8878;
756.0000;0.0741;-0.8878;
756.3000;0.0773;-0.8788;
756.6000;0.0741;-0.8833;
756.9000;0.0757;-0.8856;
757.2000;0.0749;-0.8878;
757.5000;0.0716;-0.9037;
757.8000;0.0765;-0.8833;
758.1000;0.0749;-0.8810;
758.4000;0.0733;-0.8743;
758.7000;0.0741;-0.8743;
759.0000;0.0773;-0.8765;
759.3000;0.0757;-0.8901;
759.6000;0.0749;-0.8946;
759.9000;0.0757;-0.8924;
760.2000;0.0847;-0.8652;
760.5000;0.0757;-0.8946;
760.8000;0.0773;-0.8878;
761.1000;0.0757;-0.9014;
761.4000;0.0724;-0.9082;
761.7000;0.0765;-0.9014;
762.0000;0.0741;-0.9150;
762.3000;0.0757;-0.9105;
762.6000;0.0757;-0.9128;
762.9000;0.0724;-0.9173;
763.2000;0.0781;-0.8969;
763.5000;0.0741;-0.9082;
763.8000;0.0773;-0.8946;
764.1000;0.0790;-0.8924;
764.4000;0.0749;-0.9060;
764.7000;0.0773;-0.8901;
765.0000;0.0749;-0.8924;
765.3000;0.0757;-0.8992;
765.6000;0.0757;-0.8992;
765.9000;0.0741;-0.8969;
766.2000;0.0692;-0.9082;
766.5000;0.0765;-0.8878;
766.8000;0.0822;-0.8788;
767.1000;0.0798;-0.8743;
767.4000;0.0749;-0.8878;
767.7000;0.0838;-0.8584;
768.0000;0.0741;-0.8810;
768.3000;0.0961;-0.8358;
768.6000;0.0822;-0.8720;
768.9000;0.0741;-0.8969;
769.2000;0.0708;-0.9037;
769.5000;0.0765;-0.8788;
769.8000;0.0757;-0.8810;
770.1000;0.0749;-0.8833;
770.4000;0.0692;-0.8992;
770.7000;0.0684;-0.9037;
771.0000;0.0741;-0.8946;
771.3000;0.0724;-0.8969;
771.6000;0.0757;-0.8924;
771.9000;0.0749;-0.8946;
772.2000;0.0790;-0.8788;
772.5000;0.0790;-0.8833;
772.8000;0.0765;-0.8946;
773.1000;0.0773;-0.8946;
773.4000;0.0757;-0.8969;
773.7000;0.0757;-0.8946;
774.0000;0.0757;-0.8901;
774.3000;0.0741;-0.9014;
774.6000;0.0733;-0.9037;
774.9000;0.0757;-0.8946;
775.2000;0.0749;-0.8924;
775.5000;0.0757;-0.8743;
775.8000;0.0741;-0.8743;
776.1000;0.0684;-0.8833;
776.4000;0.0708;-0.8833;
776.7000;0.0733;-0.8810;
777.0000;0.0749;-0.8697;
777.3000;0.0765;-0.8652;
777.6000;0.0667;-0.8878;
777.9000;0.0765;-0.8720;
778.2000;0.0733;-0.8878;
778.5000;0.0716;-0.8856;
778.8000;0.0773;-0.8833;
779.1000;0.0741;-0.8924;
779.4000;0.0716;-0.8992;
779.7000;0.0741;-0.8924;
780.0000;0.0708;-0.8969;
780.3000;0.0798;-0.8765;
780.6000;0.0724;-0.8969;
780.9000;0.0757;-0.8901;
781.2000;0.0806;-0.8743;
781.5000;0.0773;-0.8901;
781.8000;0.0749;-0.8969;
782.1000;0.0757;-0.8992;
782.4000;0.0741;-0.9014;
782.7000;0.0765;-0.9037;
783.0000;0.0749;-0.9037;
783.3000;0.0765;-0.8992;
783.6000;0.0741;-0.9060;
783.9000;0.0716;-0.9082;
784.2000;0.0773;-0.8856;
784.5000;0.0741;-0.8924;
784.8000;0.0757;-0.8833;
785.1000;0.0708;-0.8878;
785.4000;0.0716;-0.8810;
785.7000;0.0749;-0.8697;
786.0000;0.0635;-0.8901;
786.3000;0.0757;-0.8584;
786.6000;0.0741;-0.8493;
786.9000;0.0749;-0.8584;
787.2000;0.0708;-0.8743;
787.5000;0.0749;-0.8743;
787.8000;0.0724;-0.8810;
788.1000;0.0749;-0.8810;
788.4000;0.0659;-0.8946;
788.7000;0.0733;-0.8810;
789.0000;0.0806;-0.8584;
789.3000;0.0716;-0.8878;
789.6000;0.0757;-0.8788;
789.9000;0.0806;-0.8720;
790.2000;0.0757;-0.8743;
790.5000;0.0757;-0.8720;
790.8000;0.0757;-0.8810;
791.1000;0.0749;-0.8788;
791.4000;0.0684;-0.8946;
791.7000;0.0692;-0.8856;
792.0000;0.0757;-0.8675;
792.3000;0.0765;-0.8652;
792.6000;0.0716;-0.8675;
792.9000;0.0733;-0.8607;
793.2000;0.0741;-0.8516;
793.5000;0.0676;-0.8788;
793.8000;0.0741;-0.8675;
794.1000;0.0749;-0.8607;
794.4000;0.0830;-0.8448;
794.7000;0.0790;-0.8607;
795.0000;0.0733;-0.8810;
795.3000;0.0757;-0.8743;
795.6000;0.0733;-0.8788;
795.9000;0.0749;-0.8743;
796.2000;0.0749;-0.8788;
796.5000;0.0757;-0.8765;
796.8000;0.0798;-0.8584;
797.1000;0.0765;-0.8629;
797.4000;0.0814;-0.8448;
797.7000;0.0733;-0.8697;
798.0000;0.0749;-0.8629;
798.3000;0.0733;-0.8561;
798.6000;0.0741;-0.8539;
798.9000;0.0741;-0.8493;
799.2000;0.0765;-0.8561;
799.5000;0.0757;-0.8652;
799.8000;0.0757;-0.8697;
800.1000;0.0749;-0.8697;
800.4000;0.0757;-0.8629;
800.7000;0.0749;-0.8539;
801.0000;0.0765;-0.8539;
801.3000;0.0773;-0.8561;
801.6000;0.0741;-0.8652;
801.9000;0.0765;-0.8539;
802.2000;0.0773;-0.8675;
802.5000;0.0773;-0.8607;
802.8000;0.0757;-0.8652;
803.1000;0.0708;-0.8833;
803.4000;0.0733;-0.8878;
803.7000;0.0773;-0.8697;
804.0000;0.0741;-0.8810;
804.3000;0.0741;-0.8810;
804.6000;0.0765;-0.8743;
804.9000;0.0765;-0.8788;
805.2000;0.0733;-0.8765;
805.5000;0.0790;-0.8584;
805.8000;0.0749;-0.8675;
806.1000;0.0749;-0.8743;
806.4000;0.0757;-0.8697;
806.7000;0.0716;-0.8856;
807.0000;0.0757;-0.8675;
807.3000;0.0757;-0.8675;
807.6000;0.0773;-0.8652;
807.9000;0.0716;-0.8810;
808.2000;0.0798;-0.8629;
808.5000;0.0765;-0.8697;
808.8000;0.0749;-0.8765;
809.1000;0.0749;-0.8833;
809.4000;0.0798;-0.8788;
809.7000;0.0749;-0.8810;
810.0000;0.0822;-0.8652;
810.3000;0.0741;-0.8856;
810.6000;0.0741;-0.8901;
810.9000;0.0773;-0.8788;
811.2000;0.0798;-0.8675;
811.5000;0.0749;-0.8788;
811.8000;0.0741;-0.8810;
812.1000;0.0708;-0.8946;
812.4000;0.0659;-0.9082;
812.7000;0.0749;-0.8810;
813.0000;0.0741;-0.8788;
813.3000;0.0822;-0.8652;
813.6000;0.0757;-0.8765;
813.9000;0.0847;-0.8471;
814.2000;0.0749;-0.8629;
814.5000;0.0838;-0.8358;
814.8000;0.0757;-0.8607;
815.1000;0.0830;-0.8493;
815.4000;0.0749;-0.8720;
815.7000;0.0700;-0.8810;
816.0000;0.0651;-0.9014;
816.3000;0.0757;-0.8675;
816.6000;0.0765;-0.8697;
816.9000;0.0659;-0.8946;
817.2000;0.0765;-0.8720;
817.5000;0.0822;-0.8652;
817.8000;0.0667;-0.9014;
818.1000;0.0708;-0.8901;
818.4000;0.0790;-0.8675;
818.7000;0.0757;-0.8788;
819.0000;0.0716;-0.8856;
819.3000;0.0741;-0.8788;
819.6000;0.0773;-0.8675;
819.9000;0.0790;-0.8629;
820.2000;0.0741;-0.8833;
820.5000;0.0733;-0.8878;
820.8000;0.0749;-0.8878;
821.1000;0.0757;-0.8833;
821.4000;0.0847;-0.8584;
821.7000;0.0749;-0.8810;
822.0000;0.0757;-0.8878;
822.3000;0.0749;-0.8924;
822.6000;0.0879;-0.8561;
822.9000;0.0757;-0.8878;
823.2000;0.0741;-0.8924;
823.5000;0.0757;-0.8833;
823.8000;0.0741;-0.8901;
824.1000;0.0741;-0.8946;
824.4000;0.0749;-0.8810;
824.7000;0.0781;-0.8810;
825.0000;0.0790;-0.8788;
825.3000;0.0765;-0.8856;
825.6000;0.0765;-0.8856;
825.9000;0.0749;-0.8810;
826.2000;0.0765;-0.8743;
826.5000;0.0781;-0.8675;
826.8000;0.0781;-0.8743;
827.1000;0.0757;-0.8833;
827.4000;0.0749;-0.8901;
827.7000;0.0741;-0.8833;
828.0000;0.0871;-0.8607;
828.3000;0.0749;-0.8901;
828.6000;0.0765;-0.8856;
828.9000;0.0749;-0.8901;
829.2000;0.0733;-0.8924;
829.5000;0.0733;-0.8924;
829.8000;0.0741;-0.8810;
830.1000;0.0790;-0.8720;
830.4000;0.0724;-0.8878;
830.7000;0.0749;-0.8788;
831.0000;0.0716;-0.8856;
831.3000;0.0773;-0.8810;
831.6000;0.0749;-0.8856;
831.9000;0.0684;-0.9060;
832.2000;0.0773;-0.8765;
832.5000;0.0741;-0.8788;
832.8000;0.0692;-0.8856;
833.1000;0.0781;-0.8743;
833.4000;0.0757;-0.8924;
833.7000;0.0765;-0.8969;
834.0000;0.0773;-0.8924;
834.3000;0.0773;-0.8969;
834.6000;0.0700;-0.9309;
834.9000;0.0757;-0.9082;
835.2000;0.0765;-0.8946;
835.5000;0.0749;-0.8878;
835.8000;0.0765;-0.8878;
836.1000;0.0733;-0.8856;
836.4000;0.0790;-0.8697;
836.7000;0.0781;-0.8743;
837.0000;0.0741;-0.8765;
837.3000;0.0749;-0.8697;
837.6000;0.0749;-0.8697;
837.9000;0.0667;-0.8969;
838.2000;0.0757;-0.8810;
838.5000;0.0684;-0.9060;
838.8000;0.0765;-0.8833;
839.1000;0.0741;-0.8856;
839.4000;0.0757;-0.8810;
839.7000;0.0806;-0.8675;
840.0000;0.0733;-0.8878;
840.3000;0.0757;-0.8833;
840.6000;0.0765;-0.8788;
840.9000;0.0708;-0.8924;
841.2000;0.0765;-0.8810;
841.5000;0.0773;-0.8720;
841.8000;0.0814;-0.8607;
842.1000;0.0757;-0.8675;
842.4000;0.0765;-0.8516;
842.7000;0.0749;-0.8584;
843.0000;0.0749;-0.8539;
843.3000;0.0741;-0.8675;
843.6000;0.0749;-0.8697;
843.9000;0.0765;-0.8743;
844.2000;0.0765;-0.8765;
844.5000;0.0741;-0.8810;
844.8000;0.0716;-0.8856;
845.1000;0.0733;-0.8697;
845.4000;0.0822;-0.8516;
845.7000;0.0765;-0.8743;
846.0000;0.0757;-0.8743;
846.3000;0.0765;-0.8833;
846.6000;0.0773;-0.8901;
846.9000;0.0757;-0.8924;
847.2000;0.0798;-0.8878;
847.5000;0.0773;-0.8856;
847.8000;0.0765;-0.8901;
848.1000;0.0749;-0.8992;
848.4000;0.0724;-0.9082;
848.7000;0.0749;-0.9037;
849.0000;0.0830;-0.8856;
849.3000;0.0749;-0.9060;
849.6000;0.0757;-0.9037;
849.9000;0.0741;-0.9014;
850.2000;0.0749;-0.9060;
850.5000;0.0773;-0.8992;
850.8000;0.0757;-0.8992;
851.1000;0.0765;-0.8992;
851.4000;0.0741;-0.9060;
851.7000;0.0749;-0.9037;
852.0000;0.0708;-0.9128;
852.3000;0.0733;-0.9037;
852.6000;0.0741;-0.8946;
852.9000;0.0741;-0.8878;
853.2000;0.0749;-0.8810;
853.5000;0.0749;-0.8810;
853.8000;0.0757;-0.8856;
854.1000;0.0773;-0.8901;
854.4000;0.0724;-0.8924;
854.7000;0.0757;-0.8765;
855.0000;0.0757;-0.8833;
855.3000;0.0741;-0.8878;
855.6000;0.0765;-0.8878;
855.9000;0.0741;-0.8901;
856.2000;0.0773;-0.8765;
856.5000;0.0765;-0.8833;
856.8000;0.0757;-0.8924;
857.1000;0.0757;-0.8856;
857.4000;0.0733;-0.8924;
857.7000;0.0765;-0.8901;
858.0000;0.0692;-0.8992;
858.3000;0.0757;-0.8810;
858.6000;0.0692;-0.8992;
858.9000;0.0733;-0.8901;
859.2000;0.0733;-0.8946;
859.5000;0.0741;-0.8946;
859.8000;0.0847;-0.8697;
860.1000;0.0692;-0.9128;
860.4000;0.0733;-0.9014;
860.7000;0.0806;-0.8788;
861.0000;0.0773;-0.8946;
861.3000;0.0651;-0.9150;
861.6000;0.0798;-0.8833;
861.9000;0.0708;-0.9060;
862.2000;0.0741;-0.8924;
862.5000;0.0724;-0.9060;
862.8000;0.0643;-0.9309;
863.1000;0.0733;-0.9014;
863.4000;0.0749;-0.8856;
863.7000;0.0733;-0.8878;
864.0000;0.0741;-0.8946;
864.3000;0.0765;-0.8946;
864.6000;0.0765;-0.9014;
864.9000;0.0749;-0.9037;
865.2000;0.0724;-0.9128;
865.5000;0.0627;-0.9331;
865.8000;0.0757;-0.8969;
866.1000;0.0741;-0.8992;
866.4000;0.0790;-0.8924;
866.7000;0.0765;-0.8901;
867.0000;0.0749;-0.8946;
867.3000;0.0765;-0.8901;
867.6000;0.0627;-0.9263;
867.9000;0.0724;-0.9060;
868.2000;0.0757;-0.9060;
868.5000;0.0765;-0.9105;
868.8000;0.0708;-0.9241;
869.1000;0.0757;-0.9082;
869.4000;0.0757;-0.9150;
869.7000;0.0749;-0.9218;
870.0000;0.0757;-0.9241;
870.3000;0.0765;-0.9105;
870.6000;0.0773;-0.8969;
870.9000;0.0724;-0.9082;
871.2000;0.0773;-0.8878;
871.5000;0.0733;-0.8901;
871.8000;0.0773;-0.8788;
872.1000;0.0757;-0.8743;
872.4000;0.0749;-0.8743;
872.7000;0.0741;-0.8946;
873.0000;0.0765;-0.9037;
873.3000;0.0773;-0.8946;
873.6000;0.0749;-0.8992;
873.9000;0.0765;-0.8924;
874.2000;0.0708;-0.9014;
874.5000;0.0749;-0.8924;
874.8000;0.0741;-0.8946;
875.1000;0.0733;-0.9014;
875.4000;0.0749;-0.9014;
875.7000;0.0765;-0.8924;
876.0000;0.0741;-0.8969;
876.3000;0.0602;-0.9286;
876.6000;0.0741;-0.8946;
876.9000;0.0724;-0.9037;
877.2000;0.0806;-0.8856;
877.5000;0.0757;-0.8992;
877.8000;0.0765;-0.8946;
878.1000;0.0757;-0.8969;
878.4000;0.0806;-0.8969;
878.7000;0.0757;-0.9105;
879.0000;0.0733;-0.9196;
879.3000;0.0708;-0.9286;
879.6000;0.0724;-0.9150;
879.9000;0.0724;-0.9082;
880.2000;0.0749;-0.8924;
880.5000;0.0716;-0.8969;
880.8000;0.0733;-0.8901;
881.1000;0.0814;-0.8675;
881.4000;0.0749;-0.8833;
881.7000;0.0757;-0.8901;
882.0000;0.0741;-0.8901;
882.3000;0.0741;-0.8946;
882.6000;0.0790;-0.8856;
882.9000;0.0749;-0.8901;
883.2000;0.0741;-0.8924;
883.5000;0.0667;-0.9128;
883.8000;0.0724;-0.9037;
884.1000;0.0765;-0.8969;
884.4000;0.0716;-0.9105;
884.7000;0.0773;-0.8901;
885.0000;0.0757;-0.8924;
885.3000;0.0724;-0.9060;
885.6000;0.0733;-0.8992;
885.9000;0.0773;-0.8856;
886.2000;0.0749;-0.8833;
886.5000;0.0570;-0.9196;
886.8000;0.0798;-0.8584;
887.1000;0.0749;-0.8697;
887.4000;0.0765;-0.8652;
887.7000;0.0765;-0.8743;
888.0000;0.0765;-0.8765;
888.3000;0.0757;-0.8788;
888.6000;0.0806;-0.8584;
888.9000;0.0741;-0.8788;
889.2000;0.0749;-0.8810;
889.5000;0.0749;-0.8833;
889.8000;0.0790;-0.8743;
890.1000;0.0790;-0.8743;
890.4000;0.0838;-0.8675;
890.7000;0.0765;-0.8856;
891.0000;0.0757;-0.8878;
891.3000;0.0773;-0.8810;
891.6000;0.0733;-0.8924;
891.9000;0.0757;-0.8901;
892.2000;0.0773;-0.8833;
892.5000;0.0749;-0.8810;
892.8000;0.0773;-0.8697;
893.1000;0.0741;-0.8652;
893.4000;0.0781;-0.8607;
893.7000;0.0773;-0.8675;
894.0000;0.0741;-0.8697;
894.3000;0.0757;-0.8720;
894.6000;0.0765;-0.8697;
894.9000;0.0798;-0.8629;
895.2000;0.0733;-0.8810;
895.5000;0.0765;-0.8697;
895.8000;0.0749;-0.8720;
896.1000;0.0724;-0.8720;
896.4000;0.0741;-0.8652;
896.7000;0.0765;-0.8652;
897.0000;0.0733;-0.8810;
897.3000;0.0765;-0.8788;
897.6000;0.0724;-0.8946;
897.9000;0.0724;-0.8992;
898.2000;0.0716;-0.9014;
898.5000;0.0757;-0.8743;
898.8000;0.0724;-0.8833;
899.1000;0.0708;-0.8946;
899.4000;0.0749;-0.8856;
899.7000;0.0773;-0.8788;
900.0000;0.0757;-0.8856;
900.3000;0.0757;-0.8833;
900.6000;0.0733;-0.8946;
900.9000;0.0724;-0.8901;
901.2000;0.0757;-0.8946;
901.5000;0.0773;-0.8946;
901.8000;0.0716;-0.9060;
902.1000;0.0855;-0.8765;
902.4000;0.0773;-0.8878;
902.7000;0.0765;-0.8992;
903.0000;0.0733;-0.9060;
903.3000;0.0708;-0.9060;
903.6000;0.0724;-0.9037;
903.9000;0.0741;-0.8992;
904.2000;0.0684;-0.9128;
904.5000;0.0749;-0.8969;
904.8000;0.0741;-0.8992;
905.1000;0.0757;-0.8901;
905.4000;0.0773;-0.8833;
905.7000;0.0773;-0.8810;
906.0000;0.0724;-0.8878;
906.3000;0.0733;-0.8969;
906.6000;0.0741;-0.8924;
906.9000;0.0733;-0.8946;
907.2000;0.0724;-0.8969;
907.5000;0.0830;-0.8561;
907.8000;0.0757;-0.8743;
908.1000;0.0749;-0.8765;
908.4000;0.0749;-0.8833;
908.7000;0.0716;-0.8878;
909.0000;0.0749;-0.8878;
909.3000;0.0741;-0.8924;
909.6000;0.0757;-0.8833;
909.9000;0.0749;-0.8878;
910.2000;0.0733;-0.8856;
910.5000;0.0619;-0.9218;
910.8000;0.0765;-0.8878;
911.1000;0.0773;-0.8924;
911.4000;0.0765;-0.8901;
911.7000;0.0814;-0.8675;
912.0000;0.0757;-0.8810;
912.3000;0.0757;-0.8856;
912.6000;0.0765;-0.8924;
912.9000;0.0773;-0.8924;
913.2000;0.0733;-0.8992;
913.5000;0.0741;-0.8946;
913.8000;0.0741;-0.8924;
914.1000;0.0741;-0.8924;
914.4000;0.0741;-0.8833;
914.7000;0.0724;-0.8901;
915.0000;0.0773;-0.8788;
915.3000;0.0749;-0.8833;
915.6000;0.0838;-0.8539;
915.9000;0.0749;-0.8765;
916.2000;0.0765;-0.8675;
916.5000;0.0814;-0.8652;
916.8000;0.0741;-0.8901;
917.1000;0.0773;-0.8833;
917.4000;0.0757;-0.8810;
917.7000;0.0765;-0.8765;
918.0000;0.0741;-0.8765;
918.3000;0.0773;-0.8743;
918.6000;0.0749;-0.8788;
918.9000;0.0781;-0.8697;
919.2000;0.0741;-0.8697;
919.5000;0.0724;-0.8697;
919.8000;0.0749;-0.8652;
920.1000;0.0733;-0.8629;
920.4000;0.0806;-0.8403;
920.7000;0.0733;-0.8675;
921.0000;0.0700;-0.8765;
921.3000;0.0741;-0.8607;
921.6000;0.0724;-0.8629;
921.9000;0.0741;-0.8561;
922.2000;0.0659;-0.8878;
922.5000;0.0733;-0.8720;
922.8000;0.0773;-0.8629;
923.1000;0.0806;-0.8607;
923.4000;0.0871;-0.8471;
923.7000;0.0724;-0.8765;
924.0000;0.0765;-0.8675;
924.3000;0.0830;-0.8493;
924.6000;0.0733;-0.8788;
924.9000;0.0790;-0.8675;
925.2000;0.0741;-0.8765;
925.5000;0.0757;-0.8788;
925.8000;0.0765;-0.8810;
926.1000;0.0798;-0.8675;
926.4000;0.0781;-0.8720;
926.7000;0.0757;-0.8675;
927.0000;0.0741;-0.8743;
927.3000;0.0757;-0.8720;
927.6000;0.0765;-0.8720;
927.9000;0.0741;-0.8697;
928.2000;0.0749;-0.8697;
928.5000;0.0773;-0.8652;
928.8000;0.0773;-0.8652;
929.1000;0.0757;-0.8697;
929.4000;0.0749;-0.8652;
929.7000;0.0749;-0.8675;
930.0000;0.0724;-0.8743;
930.3000;0.0733;-0.8629;
930.6000;0.0773;-0.8516;
930.9000;0.0822;-0.8335;
931.2000;0.0733;-0.8561;
931.5000;0.0733;-0.8629;
931.8000;0.0757;-0.8607;
932.1000;0.0741;-0.8720;
932.4000;0.0773;-0.8697;
932.7000;0.0773;-0.8607;
933.0000;0.0765;-0.8584;
933.3000;0.0757;-0.8629;
933.6000;0.0757;-0.8584;
933.9000;0.0667;-0.8788;
934.2000;0.0773;-0.8584;
934.5000;0.0765;-0.8584;
934.8000;0.0733;-0.8697;
935.1000;0.0749;-0.8720;
935.4000;0.0757;-0.8607;
935.7000;0.0814;-0.8425;
936.0000;0.0708;-0.8629;
936.3000;0.0733;-0.8561;
936.6000;0.0676;-0.8788;
936.9000;0.0757;-0.8584;
937.2000;0.0757;-0.8493;
937.5000;0.0724;-0.8675;
937.8000;0.0749;-0.8629;
938.1000;0.0773;-0.8561;
938.4000;0.0724;-0.8561;
938.7000;0.0749;-0.8448;
939.0000;0.0773;-0.8380;
939.3000;0.0749;-0.8380;
939.6000;0.0790;-0.8244;
939.9000;0.0741;-0.8493;
940.2000;0.0749;-0.8561;
940.5000;0.0757;-0.8629;
940.8000;0.0692;-0.8720;
941.1000;0.0773;-0.8516;
941.4000;0.0741;-0.8675;
941.7000;0.0757;-0.8652;
942.0000;0.0765;-0.8607;
942.3000;0.0765;-0.8607;
942.6000;0.0773;-0.8584;
942.9000;0.0757;-0.8652;
943.2000;0.0757;-0.8697;
943.5000;0.0749;-0.8743;
943.8000;0.0724;-0.8833;
944.1000;0.0724;-0.8810;
944.4000;0.0733;-0.8675;
944.7000;0.0781;-0.8516;
945.0000;0.0667;-0.8788;
945.3000;0.0733;-0.8584;
945.6000;0.0765;-0.8493;
945.9000;0.0757;-0.8493;
946.2000;0.0708;-0.8697;
946.5000;0.0733;-0.8607;
946.8000;0.0749;-0.8652;
947.1000;0.0733;-0.8652;
947.4000;0.0716;-0.8652;
947.7000;0.0724;-0.8652;
948.0000;0.0749;-0.8493;
948.3000;0.0765;-0.8380;
948.6000;0.0741;-0.8403;
948.9000;0.0724;-0.8471;
949.2000;0.0733;-0.8493;
949.5000;0.0724;-0.8697;
949.8000;0.0765;-0.8629;
950.1000;0.0741;-0.8584;
950.4000;0.0749;-0.8629;
950.7000;0.0741;-0.8607;
951.0000;0.0733;-0.8652;
951.3000;0.0765;-0.8584;
951.6000;0.0724;-0.8697;
951.9000;0.0724;-0.8743;
952.2000;0.0659;-0.8856;
952.5000;0.0757;-0.8584;
952.8000;0.0627;-0.8878;
953.1000;0.0871;-0.8358;
953.4000;0.0798;-0.8652;
953.7000;0.0741;-0.8720;
954.0000;0.0765;-0.8720;
954.3000;0.0798;-0.8652;
954.6000;0.0757;-0.8788;
954.9000;0.0757;-0.8810;
955.2000;0.0765;-0.8810;
955.5000;0.0749;-0.8969;
955.8000;0.0773;-0.8946;
956.1000;0.0700;-0.9014;
956.4000;0.0749;-0.8946;
956.7000;0.0749;-0.8901;
957.0000;0.0749;-0.8856;
957.3000;0.0733;-0.8946;
957.6000;0.0757;-0.8788;
957.9000;0.0773;-0.8675;
958.2000;0.0790;-0.8607;
958.5000;0.0790;-0.8652;
958.8000;0.0757;-0.8810;
959.1000;0.0757;-0.8765;
959.4000;0.0757;-0.8788;
959.7000;0.0773;-0.8833;
960.0000;0.0773;-0.8810;
960.3000;0.0733;-0.8878;
960.6000;0.0692;-0.8924;
960.9000;0.0765;-0.8788;
961.2000;0.0757;-0.8788;
961.5000;0.0765;-0.8675;
961.8000;0.0733;-0.8743;
962.1000;0.0733;-0.8652;
962.4000;0.0798;-0.8539;
962.7000;0.0757;-0.8471;
963.0000;0.0757;-0.8403;
963.3000;0.0757;-0.8448;
963.6000;0.0838;-0.8176;
963.9000;0.0757;-0.8425;
964.2000;0.0676;-0.8697;
964.5000;0.0749;-0.8607;
964.8000;0.0692;-0.8720;
965.1000;0.0765;-0.8471;
965.4000;0.0765;-0.8493;
965.7000;0.0757;-0.8629;
966.0000;0.0765;-0.8584;
966.3000;0.0749;-0.8493;
966.6000;0.0724;-0.8629;
966.9000;0.0716;-0.8652;
967.2000;0.0733;-0.8607;
967.5000;0.0741;-0.8584;
967.8000;0.0741;-0.8629;
968.1000;0.0757;-0.8629;
968.4000;0.0773;-0.8584;
968.7000;0.0757;-0.8584;
969.0000;0.0757;-0.8607;
969.3000;0.0733;-0.8652;
969.6000;0.0724;-0.8720;
969.9000;0.0757;-0.8743;
970.2000;0.0757;-0.8765;
970.5000;0.0708;-0.8878;
970.8000;0.0741;-0.8788;
971.1000;0.0822;-0.8493;
971.4000;0.0716;-0.8743;
971.7000;0.0741;-0.8629;
972.0000;0.0757;-0.8539;
972.3000;0.0757;-0.8629;
972.6000;0.0798;-0.8516;
972.9000;0.0765;-0.8584;
973.2000;0.0733;-0.8516;
973.5000;0.0733;-0.8471;
973.8000;0.0757;-0.8448;
974.1000;0.0749;-0.8516;
974.4000;0.0757;-0.8493;
974.7000;0.0749;-0.8516;
975.0000;0.0733;-0.8561;
975.3000;0.0733;-0.8607;
975.6000;0.0724;-0.8720;
975.9000;0.0684;-0.8810;
976.2000;0.0904;-0.8358;
976.5000;0.0757;-0.8765;
976.8000;0.0741;-0.8765;
977.1000;0.0700;-0.8788;
977.4000;0.0773;-0.8629;
977.7000;0.0757;-0.8629;
978.0000;0.0781;-0.8539;
978.3000;0.0765;-0.8561;
978.6000;0.0700;-0.8833;
978.9000;0.0724;-0.8833;
979.2000;0.0716;-0.8878;
979.5000;0.0757;-0.8833;
979.8000;0.0741;-0.8697;
980.1000;0.0733;-0.8743;
980.4000;0.0757;-0.8765;
980.7000;0.0708;-0.8969;
981.0000;0.0773;-0.8765;
981.3000;0.0749;-0.8765;
981.6000;0.0700;-0.8878;
981.9000;0.0724;-0.8788;
982.2000;0.0814;-0.8539;
982.5000;0.0855;-0.8493;
982.8000;0.0773;-0.8652;
983.1000;0.0733;-0.8810;
983.4000;0.0757;-0.8833;
983.7000;0.0741;-0.8878;
984.0000;0.0757;-0.8856;
984.3000;0.0757;-0.8788;
984.6000;0.0765;-0.8720;
984.9000;0.0773;-0.8743;
985.2000;0.0741;-0.8810;
985.5000;0.0765;-0.8810;
985.8000;0.0749;-0.8788;
986.1000;0.0749;-0.8788;
986.4000;0.0822;-0.8561;
986.7000;0.0765;-0.8788;
987.0000;0.0773;-0.8765;
987.3000;0.0741;-0.8833;
987.6000;0.0741;-0.8810;
987.9000;0.0765;-0.8697;
988.2000;0.0733;-0.8675;
988.5000;0.0749;-0.8607;
988.8000;0.0733;-0.8675;
989.1000;0.0716;-0.8720;
989.4000;0.0757;-0.8539;
989.7000;0.0724;-0.8607;
990.0000;0.0724;-0.8652;
990.3000;0.0757;-0.8561;
990.6000;0.0716;-0.8720;
990.9000;0.0733;-0.8697;
991.2000;0.0798;-0.8561;
991.5000;0.0749;-0.8833;
991.8000;0.0757;-0.8856;
992.1000;0.0708;-0.8924;
992.4000;0.0749;-0.8810;
992.7000;0.0757;-0.8765;
993.0000;0.0733;-0.8878;
993.3000;0.0733;-0.8924;
993.6000;0.0765;-0.8856;
993.9000;0.0798;-0.8810;
994.2000;0.0733;-0.8901;
994.5000;0.0757;-0.8788;
994.8000;0.0724;-0.8810;
995.1000;0.0724;-0.8743;
995.4000;0.0765;-0.8675;
995.7000;0.0871;-0.8425;
996.0000;0.0733;-0.8697;
996.3000;0.0781;-0.8607;
996.6000;0.0724;-0.8697;
996.9000;0.0806;-0.8516;
997.2000;0.0781;-0.8561;
997.5000;0.0749;-0.8720;
997.8000;0.0765;-0.8743;
998.1000;0.0790;-0.8697;
998.4000;0.0765;-0.8720;
998.7000;0.0773;-0.8675;
999.0000;0.0757;-0.8720;
999.3000;0.0749;-0.8743;
999.6000;0.0806;-0.8675;
999.9000;0.0773;-0.8810;
1000.2000;0.0757;-0.8901;
1000.5000;0.0700;-0.9014;
1000.8000;0.0765;-0.8788;
1001.1000;0.0733;-0.8901;
1001.4000;0.0773;-0.8765;
1001.7000;0.0716;-0.8833;
1002.0000;0.0749;-0.8697;
1002.3000;0.0741;-0.8720;
1002.6000;0.0814;-0.8607;
1002.9000;0.0790;-0.8675;
1003.2000;0.0741;-0.8788;
1003.5000;0.0741;-0.8788;
1003.8000;0.0757;-0.8697;
1004.1000;0.0757;-0.8675;
1004.4000;0.0733;-0.8697;
1004.7000;0.0684;-0.8856;
1005.0000;0.0741;-0.8765;
1005.3000;0.0773;-0.8743;
1005.6000;0.0757;-0.8765;
1005.9000;0.0741;-0.8788;
1006.2000;0.0741;-0.8856;
1006.5000;0.0757;-0.8833;
1006.8000;0.0773;-0.8856;
1007.1000;0.0733;-0.8901;
1007.4000;0.0749;-0.8856;
1007.7000;0.0741;-0.8901;
1008.0000;0.0749;-0.8833;
1008.3000;0.0733;-0.8924;
1008.6000;0.0716;-0.8946;
1008.9000;0.0814;-0.8607;
1009.2000;0.0773;-0.8697;
1009.5000;0.0781;-0.8697;
1009.8000;0.0741;-0.8720;
1010.1000;0.0757;-0.8765;
1010.4000;0.0741;-0.8765;
1010.7000;0.0781;-0.8561;
1011.0000;0.0757;-0.8675;
1011.3000;0.0741;-0.8765;
1011.6000;0.0741;-0.8743;
1011.9000;0.0806;-0.8607;
1012.2000;0.0741;-0.8765;
1012.5000;0.0781;-0.8720;
1012.8000;0.0765;-0.8697;
1013.1000;0.0781;-0.8652;
1013.4000;0.0749;-0.8720;
1013.7000;0.0724;-0.8743;
1014.0000;0.0741;-0.8743;
1014.3000;0.0733;-0.8810;
1014.6000;0.0741;-0.8946;
1014.9000;0.0781;-0.8833;
1015.2000;0.0806;-0.8697;
1015.5000;0.0749;-0.8833;
1015.8000;0.0667;-0.9060;
1016.1000;0.0757;-0.8810;
1016.4000;0.0798;-0.8765;
1016.7000;0.0822;-0.8629;
1017.0000;0.0757;-0.8788;
1017.3000;0.0749;-0.8788;
1017.6000;0.0733;-0.8788;
1017.9000;0.0741;-0.8765;
1018.2000;0.0741;-0.8743;
1018.5000;0.0790;-0.8584;
1018.8000;0.0757;-0.8675;
1019.1000;0.0741;-0.8743;
1019.4000;0.0741;-0.8743;
1019.7000;0.0757;-0.8720;
1020.0000;0.0741;-0.8765;
1020.3000;0.0773;-0.8878;
1020.6000;0.0724;-0.8924;
1020.9000;0.0724;-0.8856;
1021.2000;0.0773;-0.8629;
1021.5000;0.0643;-0.8901;
1021.8000;0.0741;-0.8561;
1022.1000;0.0757;-0.8493;
1022.4000;0.0765;-0.8561;
1022.7000;0.0741;-0.8788;
1023.0000;0.0773;-0.8720;
1023.3000;0.0741;-0.8833;
1023.6000;0.0757;-0.8743;
1023.9000;0.0781;-0.8675;
1024.2000;0.0741;-0.8810;
1024.5000;0.0798;-0.8675;
1024.8000;0.0749;-0.8810;
1025.1000;0.0757;-0.8720;
1025.4000;0.0806;-0.8561;
1025.7000;0.0741;-0.8743;
1026.0000;0.0765;-0.8743;
1026.3000;0.0716;-0.8743;
1026.6000;0.0708;-0.8697;
1026.9000;0.0757;-0.8697;
1027.2000;0.0781;-0.8720;
1027.5000;0.0765;-0.8743;
1027.8000;0.0765;-0.8629;
1028.1000;0.0749;-0.8697;
1028.4000;0.0773;-0.8765;
1028.7000;0.0708;-0.8901;
1029.0000;0.0741;-0.8788;
1029.3000;0.0765;-0.8697;
1029.6000;0.0716;-0.8765;
1029.9000;0.0757;-0.8652;
1030.2000;0.0765;-0.8675;
1030.5000;0.0684;-0.8810;
1030.8000;0.0781;-0.8561;
1031.1000;0.0741;-0.8584;
1031.4000;0.0830;-0.8358;
1031.7000;0.0716;-0.8652;
1032.0000;0.0855;-0.8335;
1032.3000;0.0773;-0.8539;
1032.6000;0.0773;-0.8539;
1032.9000;0.0757;-0.8561;
1033.2000;0.0765;-0.8629;
1033.5000;0.0708;-0.8765;
1033.8000;0.0667;-0.8788;
1034.1000;0.0749;-0.8561;
1034.4000;0.0871;-0.8312;
1034.7000;0.0781;-0.8471;
1035.0000;0.0741;-0.8516;
1035.3000;0.0724;-0.8561;
1035.6000;0.0733;-0.8629;
1035.9000;0.0765;-0.8448;
1036.2000;0.0741;-0.8448;
1036.5000;0.0749;-0.8403;
1036.8000;0.0757;-0.8335;
1037.1000;0.0757;-0.8403;
1037.4000;0.0757;-0.8380;
1037.7000;0.0741;-0.8539;
1038.0000;0.0724;-0.8493;
1038.3000;0.0757;-0.8448;
1038.6000;0.0765;-0.8471;
1038.9000;0.0749;-0.8561;
1039.2000;0.0757;-0.8584;
1039.5000;0.0749;-0.8584;
1039.8000;0.0757;-0.8539;
1040.1000;0.0749;-0.8471;
1040.4000;0.0741;-0.8516;
1040.7000;0.0741;-0.8539;
1041.0000;0.0781;-0.8493;
1041.3000;0.0838;-0.8267;
1041.6000;0.0741;-0.8516;
1041.9000;0.0651;-0.8788;
1042.2000;0.0749;-0.8629;
1042.5000;0.0741;-0.8652;
1042.8000;0.0749;-0.8607;
1043.1000;0.0757;-0.8561;
1043.4000;0.0781;-0.8561;
1043.7000;0.0724;-0.8720;
1044.0000;0.0871;-0.8380;
1044.3000;0.0724;-0.8629;
1044.6000;0.0757;-0.8516;
1044.9000;0.0765;-0.8448;
1045.2000;0.0773;-0.8516;
1045.5000;0.0733;-0.8629;
1045.8000;0.0741;-0.8561;
1046.1000;0.0790;-0.8471;
1046.4000;0.0781;-0.8584;
1046.7000;0.0773;-0.8561;
1047.0000;0.0757;-0.8561;
1047.3000;0.0757;-0.8539;
1047.6000;0.0724;-0.8584;
1047.9000;0.0838;-0.8290;
1048.2000;0.0716;-0.8607;
1048.5000;0.0757;-0.8539;
1048.8000;0.0749;-0.8516;
1049.1000;0.0765;-0.8380;
1049.4000;0.0887;-0.8176;
1049.7000;0.0765;-0.8493;
1050.0000;0.0765;-0.8516;
1050.3000;0.0847;-0.8267;
1050.6000;0.0757;-0.8425;
1050.9000;0.0773;-0.8425;
1051.2000;0.0724;-0.8629;
1051.5000;0.0757;-0.8652;
1051.8000;0.0749;-0.8652;
1052.1000;0.0733;-0.8629;
1052.4000;0.0781;-0.8539;
1052.7000;0.0741;-0.8675;
1053.0000;0.0733;-0.8788;
1053.3000;0.0741;-0.8743;
1053.6000;0.0741;-0.8810;
1053.9000;0.0757;-0.8743;
1054.2000;0.0749;-0.8629;
1054.5000;0.0814;-0.8403;
1054.8000;0.0757;-0.8607;
1055.1000;0.0749;-0.8516;
1055.4000;0.0627;-0.8788;
1055.7000;0.0733;-0.8539;
1056.0000;0.0757;-0.8493;
1056.3000;0.0765;-0.8516;
1056.6000;0.0619;-0.8946;
1056.9000;0.0757;-0.8584;
1057.2000;0.0765;-0.8607;
1057.5000;0.0773;-0.8493;
1057.8000;0.0757;-0.8493;
1058.1000;0.0765;-0.8425;
1058.4000;0.0741;-0.8471;
1058.7000;0.0741;-0.8493;
1059.0000;0.0765;-0.8493;
1059.3000;0.0773;-0.8448;
1059.6000;0.0724;-0.8493;
1059.9000;0.0757;-0.8516;
1060.2000;0.0733;-0.8607;
1060.5000;0.0733;-0.8584;
1060.8000;0.0741;-0.8584;
1061.1000;0.0757;-0.8561;
1061.4000;0.0692;-0.8629;
1061.7000;0.0757;-0.8539;
1062.0000;0.0798;-0.8380;
1062.3000;0.0733;-0.8584;
1062.6000;0.0749;-0.8539;
1062.9000;0.0749;-0.8539;
1063.2000;0.0749;-0.8607;
1063.5000;0.0741;-0.8584;
1063.8000;0.0741;-0.8584;
1064.1000;0.0765;-0.8629;
1064.4000;0.0757;-0.8652;
1064.7000;0.0741;-0.8629;
1065.0000;0.0733;-0.8607;
1065.3000;0.0741;-0.8652;
1065.6000;0.0724;-0.8743;
1065.9000;0.0749;-0.8561;
1066.2000;0.0700;-0.8652;
1066.5000;0.0757;-0.8493;
1066.8000;0.0749;-0.8516;
1067.1000;0.0757;-0.8493;
1067.4000;0.0749;-0.8539;
1067.7000;0.0749;-0.8607;
1068.0000;0.0651;-0.8856;
1068.3000;0.0716;-0.8697;
1068.6000;0.0765;-0.8584;
1068.9000;0.0692;-0.8765;
1069.2000;0.0765;-0.8561;
1069.5000;0.0733;-0.8720;
1069.8000;0.0741;-0.8720;
1070.1000;0.0741;-0.8743;
1070.4000;0.0757;-0.8652;
1070.7000;0.0733;-0.8539;
1071.0000;0.0822;-0.8380;
1071.3000;0.0700;-0.8629;
1071.6000;0.0749;-0.8539;
1071.9000;0.0749;-0.8539;
1072.2000;0.0643;-0.8833;
1072.5000;0.0741;-0.8539;
1072.8000;0.0773;-0.8516;
1073.1000;0.0781;-0.8561;
1073.4000;0.0765;-0.8561;
1073.7000;0.0790;-0.8584;
1074.0000;0.0716;-0.8788;
1074.3000;0.0692;-0.8833;
1074.6000;0.0790;-0.8607;
1074.9000;0.0757;-0.8697;
1075.2000;0.0757;-0.8652;
1075.5000;0.0838;-0.8471;
1075.8000;0.0716;-0.8743;
1076.1000;0.0757;-0.8675;
1076.4000;0.0741;-0.8675;
1076.7000;0.0757;-0.8584;
1077.0000;0.0700;-0.8765;
1077.3000;0.0749;-0.8652;
1077.6000;0.0676;-0.8878;
1077.9000;0.0830;-0.8448;
1078.2000;0.0741;-0.8629;
1078.5000;0.0757;-0.8561;
1078.8000;0.0733;-0.8697;
1079.1000;0.0749;-0.8607;
1079.4000;0.0757;-0.8516;
1079.7000;0.0741;-0.8471;
1080.0000;0.0733;-0.8561;
1080.3000;0.0724;-0.8652;
1080.6000;0.0790;-0.8539;
1080.9000;0.0692;-0.8697;
1081.2000;0.0749;-0.8493;
1081.5000;0.0749;-0.8493;
1081.8000;0.0724;-0.8516;
1082.1000;0.0749;-0.8403;
1082.4000;0.0749;-0.8516;
1082.7000;0.0757;-0.8471;
1083.0000;0.0765;-0.8403;
1083.3000;0.0749;-0.8380;
1083.6000;0.0724;-0.8448;
1083.9000;0.0724;-0.8448;
1084.2000;0.0790;-0.8290;
1084.5000;0.0765;-0.8380;
1084.8000;0.0741;-0.8358;
1085.1000;0.0798;-0.8290;
1085.4000;0.0814;-0.8267;
1085.7000;0.0757;-0.8403;
1086.0000;0.0741;-0.8539;
1086.3000;0.0765;-0.8448;
1086.6000;0.0741;-0.8471;
1086.9000;0.0773;-0.8403;
1087.2000;0.0822;-0.8244;
1087.5000;0.0757;-0.8448;
1087.8000;0.0749;-0.8516;
1088.1000;0.0733;-0.8584;
1088.4000;0.0708;-0.8607;
1088.7000;0.0757;-0.8493;
1089.0000;0.0765;-0.8539;
1089.3000;0.0749;-0.8584;
1089.6000;0.0749;-0.8471;
1089.9000;0.0651;-0.8629;
1090.2000;0.0659;-0.8720;
1090.5000;0.0716;-0.8561;
1090.8000;0.0749;-0.8493;
1091.1000;0.0773;-0.8403;
1091.4000;0.0757;-0.8448;
1091.7000;0.0741;-0.8471;
1092.0000;0.0716;-0.8584;
1092.3000;0.0667;-0.8743;
1092.6000;0.0781;-0.8493;
1092.9000;0.0741;-0.8561;
1093.2000;0.0692;-0.8629;
1093.5000;0.0741;-0.8493;
1093.8000;0.0749;-0.8425;
1094.1000;0.0733;-0.8425;
1094.4000;0.0741;-0.8403;
1094.7000;0.0765;-0.8335;
1095.0000;0.0830;-0.8312;
1095.3000;0.0667;-0.8697;
1095.6000;0.0773;-0.8493;
1095.9000;0.0741;-0.8584;
1096.2000;0.0716;-0.8765;
1096.5000;0.0684;-0.8765;
1096.8000;0.0749;-0.8675;
1097.1000;0.0749;-0.8629;
1097.4000;0.0700;-0.8743;
1097.7000;0.0806;-0.8380;
1098.0000;0.0741;-0.8516;
1098.3000;0.0863;-0.8222;
1098.6000;0.0741;-0.8561;
1098.9000;0.0757;-0.8493;
1099.2000;0.0741;-0.8448;
1099.5000;0.0724;-0.8471;
1099.8000;0.0757;-0.8425;
1100.1000;0.0773;-0.8403;
1100.4000;0.0749;-0.8425;
1100.7000;0.0724;-0.8471;
1101.0000;0.0692;-0.8471;
1101.3000;0.0765;-0.8267;
1101.6000;0.0724;-0.8335;
1101.9000;0.0741;-0.8312;
1102.2000;0.0741;-0.8290;
1102.5000;0.0741;-0.8403;
1102.8000;0.0741;-0.8516;
1103.1000;0.0733;-0.8652;
1103.4000;0.0741;-0.8720;
1103.7000;0.0749;-0.8810;
1104.0000;0.0757;-0.8810;
1104.3000;0.0765;-0.8743;
1104.6000;0.0716;-0.8901;
1104.9000;0.0741;-0.8833;
1105.2000;0.0781;-0.8675;
1105.5000;0.0749;-0.8810;
1105.8000;0.0659;-0.8992;
1106.1000;0.0765;-0.8810;
1106.4000;0.0773;-0.8743;
1106.7000;0.0765;-0.8720;
1107.0000;0.0814;-0.8584;
1107.3000;0.0733;-0.8765;
1107.6000;0.0700;-0.8765;
1107.9000;0.0765;-0.8561;
1108.2000;0.0676;-0.8720;
1108.5000;0.0773;-0.8561;
1108.8000;0.0773;-0.8584;
1109.1000;0.0765;-0.8607;
1109.4000;0.0741;-0.8584;
1109.7000;0.0741;-0.8629;
1110.0000;0.0724;-0.8652;
1110.3000;0.0830;-0.8335;
1110.6000;0.0716;-0.8697;
1110.9000;0.0733;-0.8629;
1111.2000;0.0749;-0.8539;
1111.5000;0.0765;-0.8652;
1111.8000;0.0773;-0.8629;
1112.1000;0.0700;-0.8720;
1112.4000;0.0781;-0.8448;
1112.7000;0.0765;-0.8380;
1113.0000;0.0765;-0.8403;
1113.3000;0.0757;-0.8403;
1113.6000;0.0741;-0.8403;
1113.9000;0.0773;-0.8312;
1114.2000;0.0749;-0.8335;
1114.5000;0.0749;-0.8358;
1114.8000;0.0749;-0.8448;
1115.1000;0.0781;-0.8403;
1115.4000;0.0773;-0.8425;
1115.7000;0.0749;-0.8425;
1116.0000;0.0765;-0.8312;
1116.3000;0.0692;-0.8561;
1116.6000;0.0749;-0.8403;
1116.9000;0.0781;-0.8335;
1117.2000;0.0749;-0.8425;
1117.5000;0.0749;-0.8425;
1117.8000;0.0757;-0.8358;
1118.1000;0.0757;-0.8425;
1118.4000;0.0765;-0.8403;
1118.7000;0.0757;-0.8584;
1119.0000;0.0749;-0.8561;
1119.3000;0.0684;-0.8720;
1119.6000;0.0814;-0.8358;
1119.9000;0.0757;-0.8607;
1120.2000;0.0733;-0.8675;
1120.5000;0.0676;-0.8788;
1120.8000;0.0749;-0.8629;
1121.1000;0.0798;-0.8471;
1121.4000;0.0749;-0.8652;
1121.7000;0.0749;-0.8743;
1122.0000;0.0741;-0.8720;
1122.3000;0.0781;-0.8584;
1122.6000;0.0757;-0.8561;
1122.9000;0.0692;-0.8743;
1123.2000;0.0741;-0.8675;
1123.5000;0.0822;-0.8425;
1123.8000;0.0822;-0.8516;
1124.1000;0.0733;-0.8584;
1124.4000;0.0749;-0.8561;
1124.7000;0.0757;-0.8539;
1125.0000;0.0757;-0.8493;
1125.3000;0.0765;-0.8561;
1125.6000;0.0790;-0.8516;
1125.9000;0.0773;-0.8584;
1126.2000;0.0757;-0.8561;
1126.5000;0.0684;-0.8675;
1126.8000;0.0765;-0.8471;
1127.1000;0.0749;-0.8652;
1127.4000;0.0757;-0.8652;
1127.7000;0.0749;-0.8743;
1128.0000;0.0757;-0.8697;
1128.3000;0.0781;-0.8675;
1128.6000;0.0684;-0.8878;
1128.9000;0.0765;-0.8720;
1129.2000;0.0757;-0.8652;
1129.5000;0.0741;-0.8607;
1129.8000;0.0733;-0.8697;
1130.1000;0.0741;-0.8561;
1130.4000;0.0749;-0.8471;
1130.7000;0.0838;-0.8335;
1131.0000;0.0749;-0.8584;
1131.3000;0.0814;-0.8312;
1131.6000;0.0822;-0.8312;
1131.9000;0.0692;-0.8607;
1132.2000;0.0790;-0.8403;
1132.5000;0.0741;-0.8607;
1132.8000;0.0684;-0.8765;
1133.1000;0.0798;-0.8448;
1133.4000;0.0814;-0.8403;
1133.7000;0.0822;-0.8493;
1134.0000;0.0749;-0.8675;
1134.3000;0.0716;-0.8788;
1134.6000;0.0643;-0.8856;
1134.9000;0.0741;-0.8629;
1135.2000;0.0749;-0.8652;
1135.5000;0.0741;-0.8697;
1135.8000;0.0724;-0.8629;
1136.1000;0.0741;-0.8607;
1136.4000;0.0781;-0.8607;
1136.7000;0.0741;-0.8675;
1137.0000;0.0749;-0.8652;
1137.3000;0.0716;-0.8720;
1137.6000;0.0757;-0.8720;
1137.9000;0.0757;-0.8743;
1138.2000;0.0741;-0.8856;
1138.5000;0.0741;-0.8765;
1138.8000;0.0749;-0.8697;
1139.1000;0.0798;-0.8561;
1139.4000;0.0806;-0.8561;
1139.7000;0.0724;-0.8720;
1140.0000;0.0749;-0.8697;
1140.3000;0.0757;-0.8697;
1140.6000;0.0773;-0.8607;
1140.9000;0.0708;-0.8810;
1141.2000;0.0757;-0.8765;
1141.5000;0.0765;-0.8788;
1141.8000;0.0733;-0.8833;
1142.1000;0.0757;-0.8788;
1142.4000;0.0847;-0.8607;
1142.7000;0.0765;-0.8675;
1143.0000;0.0773;-0.8652;
1143.3000;0.0684;-0.8901;
1143.6000;0.0757;-0.8743;
1143.9000;0.0749;-0.8765;
1144.2000;0.0790;-0.8675;
1144.5000;0.0724;-0.8969;
1144.8000;0.0733;-0.8969;
1145.1000;0.0757;-0.8946;
1145.4000;0.0724;-0.9105;
1145.7000;0.0716;-0.8992;
1146.0000;0.0749;-0.8833;
1146.3000;0.0741;-0.8878;
1146.6000;0.0741;-0.8924;
1146.9000;0.0733;-0.8969;
1147.2000;0.0757;-0.8901;
1147.5000;0.0716;-0.9037;
1147.8000;0.0838;-0.8833;
1148.1000;0.0773;-0.8901;
1148.4000;0.0749;-0.8901;
1148.7000;0.0692;-0.9082;
1149.0000;0.0773;-0.8946;
1149.3000;0.0724;-0.9037;
1149.6000;0.0659;-0.9150;
1149.9000;0.0741;-0.8901;
1150.2000;0.0749;-0.8743;
1150.5000;0.0773;-0.8743;
1150.8000;0.0692;-0.8901;
1151.1000;0.0749;-0.8856;
1151.4000;0.0749;-0.8878;
1151.7000;0.0773;-0.8833;
1152.0000;0.0757;-0.8878;
1152.3000;0.0749;-0.8901;
1152.6000;0.0765;-0.8901;
1152.9000;0.0627;-0.9241;
1153.2000;0.0773;-0.8901;
1153.5000;0.0757;-0.8856;
1153.8000;0.0765;-0.8833;
1154.1000;0.0790;-0.8856;
1154.4000;0.0749;-0.8992;
1154.7000;0.0733;-0.9128;
1155.0000;0.0611;-0.9399;
1155.3000;0.0749;-0.9014;
1155.6000;0.0757;-0.8969;
1155.9000;0.0716;-0.9037;
1156.2000;0.0790;-0.8878;
1156.5000;0.0733;-0.9037;
1156.8000;0.0733;-0.9082;
1157.1000;0.0757;-0.8992;
1157.4000;0.0757;-0.8969;
1157.7000;0.0781;-0.8856;
1158.0000;0.0749;-0.8946;
1158.3000;0.0757;-0.8924;
1158.6000;0.0700;-0.9014;
1158.9000;0.0757;-0.8878;
1159.2000;0.0741;-0.8856;
1159.5000;0.0733;-0.8878;
1159.8000;0.0773;-0.8833;
1160.1000;0.0765;-0.8901;
1160.4000;0.0773;-0.8901;
1160.7000;0.0765;-0.8992;
1161.0000;0.0733;-0.9060;
1161.3000;0.0733;-0.9082;
1161.6000;0.0781;-0.8969;
1161.9000;0.0741;-0.8992;
1162.2000;0.0741;-0.8992;
1162.5000;0.0700;-0.9060;
1162.8000;0.0806;-0.8856;
1163.1000;0.0765;-0.8969;
1163.4000;0.0749;-0.9037;
1163.7000;0.0749;-0.9128;
1164.0000;0.0667;-0.9331;
1164.3000;0.0724;-0.9128;
1164.6000;0.0790;-0.9082;
1164.9000;0.0822;-0.8969;
1165.2000;0.0724;-0.9263;
1165.5000;0.0822;-0.9082;
1165.8000;0.0757;-0.9218;
1166.1000;0.0733;-0.9196;
1166.4000;0.0757;-0.9150;
1166.7000;0.0741;-0.9150;
1167.0000;0.0773;-0.9014;
1167.3000;0.0773;-0.8969;
1167.6000;0.0773;-0.8969;
1167.9000;0.0765;-0.8924;
1168.2000;0.0749;-0.8856;
1168.5000;0.0790;-0.8743;
1168.8000;0.0773;-0.8788;
1169.1000;0.0733;-0.8810;
1169.4000;0.0757;-0.8765;
1169.7000;0.0716;-0.8833;
1170.0000;0.0724;-0.8833;
1170.3000;0.0741;-0.8856;
1170.6000;0.0757;-0.8833;
1170.9000;0.0806;-0.8629;
1171.2000;0.0643;-0.9105;
1171.5000;0.0651;-0.9105;
1171.8000;0.0757;-0.8946;
1172.1000;0.0619;-0.9263;
1172.4000;0.0611;-0.9241;
1172.7000;0.0757;-0.8901;
1173.0000;0.0781;-0.8856;
1173.3000;0.0757;-0.8856;
1173.6000;0.0749;-0.8878;
1173.9000;0.0716;-0.8878;
1174.2000;0.0757;-0.8810;
1174.5000;0.0773;-0.8765;
1174.8000;0.0733;-0.8788;
1175.1000;0.0733;-0.8810;
1175.4000;0.0765;-0.8765;
1175.7000;0.0757;-0.8810;
1176.0000;0.0733;-0.8878;
1176.3000;0.0773;-0.8720;
1176.6000;0.0749;-0.8743;
1176.9000;0.0741;-0.8720;
1177.2000;0.0790;-0.8584;
1177.5000;0.0724;-0.8743;
1177.8000;0.0733;-0.8584;
1178.1000;0.0757;-0.8493;
1178.4000;0.0741;-0.8629;
1178.7000;0.0749;-0.8561;
1179.0000;0.0724;-0.8652;
1179.3000;0.0749;-0.8629;
1179.6000;0.0716;-0.8697;
1179.9000;0.0700;-0.8765;
1180.2000;0.0757;-0.8697;
1180.5000;0.0741;-0.8743;
1180.8000;0.0838;-0.8539;
1181.1000;0.0871;-0.8403;
1181.4000;0.0733;-0.8720;
1181.7000;0.0757;-0.8607;
1182.0000;0.0692;-0.8788;
1182.3000;0.0781;-0.8584;
1182.6000;0.0741;-0.8561;
1182.9000;0.0741;-0.8561;
1183.2000;0.0757;-0.8561;
1183.5000;0.0733;-0.8584;
1183.8000;0.0741;-0.8607;
1184.1000;0.0757;-0.8697;
1184.4000;0.0790;-0.8720;
1184.7000;0.0741;-0.8878;
1185.0000;0.0781;-0.8878;
1185.3000;0.0749;-0.8878;
1185.6000;0.0757;-0.8833;
1185.9000;0.0757;-0.8833;
1186.2000;0.0741;-0.8878;
1186.5000;0.0781;-0.8743;
1186.8000;0.0749;-0.8675;
1187.1000;0.0757;-0.8652;
1187.4000;0.0847;-0.8448;
1187.7000;0.0757;-0.8675;
1188.0000;0.0757;-0.8561;
1188.3000;0.0847;-0.8380;
1188.6000;0.0757;-0.8607;
1188.9000;0.0692;-0.8765;
1189.2000;0.0749;-0.8584;
1189.5000;0.0749;-0.8561;
1189.8000;0.0765;-0.8448;
1190.1000;0.0749;-0.8629;
1190.4000;0.0830;-0.8312;
1190.7000;0.0684;-0.8743;
1191.0000;0.0749;-0.8652;
1191.3000;0.0781;-0.8629;
1191.6000;0.0741;-0.8765;
1191.9000;0.0684;-0.8946;
1192.2000;0.0741;-0.8765;
1192.5000;0.0749;-0.8810;
1192.8000;0.0749;-0.8856;
1193.1000;0.0749;-0.8924;
1193.4000;0.0765;-0.8856;
1193.7000;0.0757;-0.8856;
1194.0000;0.0765;-0.8856;
1194.3000;0.0749;-0.8946;
1194.6000;0.0781;-0.8992;
1194.9000;0.0749;-0.8946;
1195.2000;0.0724;-0.8924;
1195.5000;0.0790;-0.8720;
1195.8000;0.0733;-0.8833;
1196.1000;0.0814;-0.8607;
1196.4000;0.0635;-0.8924;
1196.7000;0.0781;-0.8539;
1197.0000;0.0724;-0.8607;
1197.3000;0.0765;-0.8629;
1197.6000;0.0757;-0.8652;
1197.9000;0.0757;-0.8652;
1198.2000;0.0749;-0.8720;
1198.5000;0.0757;-0.8810;
1198.8000;0.0757;-0.8833;
1199.1000;0.0749;-0.8833;
1199.4000;0.0749;-0.8810;
1199.7000;0.0741;-0.8833;
1200.0000;0.0724;-0.8833;
1200.3000;0.0676;-0.8856;
1200.6000;0.0733;-0.8720;
1200.9000;0.0716;-0.8810;
1201.2000;0.0733;-0.8901;
1201.5000;0.0773;-0.8675;
1201.8000;0.0847;-0.8493;
1202.1000;0.0716;-0.8788;
1202.4000;0.0781;-0.8652;
1202.7000;0.0765;-0.8629;
1203.0000;0.0757;-0.8675;
1203.3000;0.0651;-0.8878;
1203.6000;0.0773;-0.8539;
1203.9000;0.0741;-0.8743;
1204.2000;0.0602;-0.9105;
1204.5000;0.0741;-0.8810;
1204.8000;0.0741;-0.8810;
1205.1000;0.0733;-0.8878;
1205.4000;0.0757;-0.8856;
1205.7000;0.0741;-0.8901;
1206.0000;0.0838;-0.8607;
1206.3000;0.0611;-0.9105;
1206.6000;0.0733;-0.8765;
1206.9000;0.0733;-0.8720;
1207.2000;0.0716;-0.8765;
1207.5000;0.0741;-0.8765;
1207.8000;0.0773;-0.8720;
1208.1000;0.0708;-0.8901;
1208.4000;0.0741;-0.8856;
1208.7000;0.0733;-0.8856;
1209.0000;0.0773;-0.8743;
1209.3000;0.0741;-0.8810;
1209.6000;0.0741;-0.8833;
1209.9000;0.0741;-0.8743;
1210.2000;0.0757;-0.8720;
1210.5000;0.0773;-0.8720;
1210.8000;0.0537;-0.9331;
1211.1000;0.0773;-0.8675;
1211.4000;0.0773;-0.8765;
1211.7000;0.0741;-0.8810;
1212.0000;0.0659;-0.9014;
1212.3000;0.0749;-0.8856;
1212.6000;0.0765;-0.8788;
1212.9000;0.0798;-0.8652;
1213.2000;0.0757;-0.8697;
1213.5000;0.0757;-0.8697;
1213.8000;0.0773;-0.8675;
1214.1000;0.0765;-0.8629;
1214.4000;0.0741;-0.8720;
1214.7000;0.0724;-0.8720;
1215.0000;0.0830;-0.8448;
1215.3000;0.0749;-0.8675;
1215.6000;0.0757;-0.8720;
1215.9000;0.0741;-0.8788;
1216.2000;0.0716;-0.8878;
1216.5000;0.0757;-0.8833;
1216.8000;0.0790;-0.8720;
1217.1000;0.0790;-0.8743;
1217.4000;0.0757;-0.8878;
1217.7000;0.0757;-0.8856;
1218.0000;0.0773;-0.8810;
1218.3000;0.0724;-0.8969;
1218.6000;0.0798;-0.8788;
1218.9000;0.0692;-0.9082;
1219.2000;0.0724;-0.8946;
1219.5000;0.0716;-0.8992;
1219.8000;0.0773;-0.8878;
1220.1000;0.0716;-0.8992;
1220.4000;0.0757;-0.8924;
1220.7000;0.0724;-0.8992;
1221.0000;0.0741;-0.8992;
1221.3000;0.0700;-0.8992;
1221.6000;0.0741;-0.8856;
1221.9000;0.0716;-0.8833;
1222.2000;0.0733;-0.8856;
1222.5000;0.0765;-0.8810;
1222.8000;0.0724;-0.8901;
1223.1000;0.0708;-0.8878;
1223.4000;0.0757;-0.8765;
1223.7000;0.0741;-0.8743;
1224.0000;0.0724;-0.8743;
1224.3000;0.0757;-0.8720;
1224.6000;0.0749;-0.8629;
1224.9000;0.0733;-0.8720;
1225.2000;0.0700;-0.8833;
1225.5000;0.0741;-0.8765;
1225.8000;0.0757;-0.8697;
1226.1000;0.0765;-0.8629;
1226.4000;0.0749;-0.8743;
1226.7000;0.0741;-0.8743;
1227.0000;0.0749;-0.8743;
1227.3000;0.0814;-0.8629;
1227.6000;0.0716;-0.8878;
1227.9000;0.0724;-0.8856;
1228.2000;0.0830;-0.8697;
1228.5000;0.0741;-0.8901;
1228.8000;0.0716;-0.8969;
1229.1000;0.0765;-0.8856;
1229.4000;0.0749;-0.8765;
1229.7000;0.0724;-0.8878;
1230.0000;0.0741;-0.8833;
1230.3000;0.0781;-0.8697;
1230.6000;0.0724;-0.8833;
1230.9000;0.0781;-0.8697;
1231.2000;0.0765;-0.8788;
1231.5000;0.0773;-0.8743;
1231.8000;0.0733;-0.8878;
1232.1000;0.0741;-0.8878;
1232.4000;0.0724;-0.8856;
1232.7000;0.0733;-0.8833;
1233.0000;0.0757;-0.8810;
1233.3000;0.0765;-0.8697;
1233.6000;0.0724;-0.8720;
1233.9000;0.0708;-0.8743;
1234.2000;0.0733;-0.8697;
1234.5000;0.0733;-0.8675;
1234.8000;0.0741;-0.8607;
1235.1000;0.0757;-0.8584;
1235.4000;0.0741;-0.8675;
1235.7000;0.0724;-0.8720;
1236.0000;0.0741;-0.8788;
1236.3000;0.0724;-0.8810;
1236.6000;0.0749;-0.8788;
1236.9000;0.0733;-0.8697;
1237.2000;0.0749;-0.8675;
1237.5000;0.0741;-0.8720;
1237.8000;0.0733;-0.8788;
1238.1000;0.0749;-0.8788;
1238.4000;0.0741;-0.8810;
1238.7000;0.0757;-0.8833;
1239.0000;0.0724;-0.8878;
1239.3000;0.0733;-0.8810;
1239.6000;0.0781;-0.8720;
1239.9000;0.0806;-0.8697;
1240.2000;0.0781;-0.8765;
1240.5000;0.0741;-0.8765;
1240.8000;0.0741;-0.8720;
1241.1000;0.0781;-0.8584;
1241.4000;0.0741;-0.8652;
1241.7000;0.0733;-0.8675;
1242.0000;0.0749;-0.8629;
1242.3000;0.0757;-0.8607;
1242.6000;0.0749;-0.8652;
1242.9000;0.0749;-0.8607;
1243.2000;0.0765;-0.8607;
1243.5000;0.0700;-0.8720;
1243.8000;0.0749;-0.8652;
1244.1000;0.0781;-0.8561;
1244.4000;0.0781;-0.8629;
1244.7000;0.0741;-0.8697;
1245.0000;0.0749;-0.8720;
1245.3000;0.0741;-0.8720;
1245.6000;0.0806;-0.8584;
1245.9000;0.0757;-0.8697;
1246.2000;0.0814;-0.8539;
1246.5000;0.0708;-0.8765;
1246.8000;0.0757;-0.8584;
1247.1000;0.0741;-0.8697;
1247.4000;0.0757;-0.8652;
1247.7000;0.0733;-0.8720;
1248.0000;0.0757;-0.8675;
1248.3000;0.0765;-0.8675;
1248.6000;0.0765;-0.8675;
1248.9000;0.0790;-0.8607;
1249.2000;0.0838;-0.8448;
1249.5000;0.0781;-0.8584;
1249.8000;0.0757;-0.8652;
1250.1000;0.0724;-0.8629;
1250.4000;0.0757;-0.8516;
1250.7000;0.0765;-0.8516;
1251.0000;0.0708;-0.8539;
1251.3000;0.0708;-0.8561;
1251.6000;0.0765;-0.8448;
1251.9000;0.0741;-0.8493;
1252.2000;0.0700;-0.8607;
1252.5000;0.0749;-0.8607;
1252.8000;0.0741;-0.8675;
1253.1000;0.0757;-0.8629;
1253.4000;0.0733;-0.8652;
1253.7000;0.0749;-0.8743;
1254.0000;0.0724;-0.8878;
1254.3000;0.0741;-0.8878;
1254.6000;0.0733;-0.8810;
1254.9000;0.0757;-0.8765;
1255.2000;0.0741;-0.8788;
1255.5000;0.0716;-0.8810;
1255.8000;0.0757;-0.8720;
1256.1000;0.0741;-0.8697;
1256.4000;0.0749;-0.8629;
1256.7000;0.0749;-0.8652;
1257.0000;0.0757;-0.8584;
1257.3000;0.0741;-0.8652;
1257.6000;0.0733;-0.8697;
1257.9000;0.0733;-0.8629;
1258.2000;0.0773;-0.8561;
1258.5000;0.0741;-0.8697;
1258.8000;0.0814;-0.8448;
1259.1000;0.0773;-0.8539;
1259.4000;0.0757;-0.8516;
1259.7000;0.0733;-0.8539;
1260.0000;0.0733;-0.8516;
1260.3000;0.0724;-0.8561;
1260.6000;0.0741;-0.8516;
1260.9000;0.0749;-0.8539;
1261.2000;0.0749;-0.8584;
1261.5000;0.0741;-0.8675;
1261.8000;0.0765;-0.8629;
1262.1000;0.0733;-0.8675;
1262.4000;0.0611;-0.8969;
1262.7000;0.0765;-0.8629;
1263.0000;0.0806;-0.8561;
1263.3000;0.0749;-0.8765;
1263.6000;0.0724;-0.8810;
1263.9000;0.0741;-0.8697;
1264.2000;0.0733;-0.8675;
1264.5000;0.0798;-0.8539;
1264.8000;0.0749;-0.8675;
1265.1000;0.0773;-0.8561;
1265.4000;0.0806;-0.8561;
1265.7000;0.0741;-0.8788;
1266.0000;0.0757;-0.8652;
1266.3000;0.0749;-0.8629;
1266.6000;0.0741;-0.8697;
1266.9000;0.0781;-0.8629;
1267.2000;0.0773;-0.8652;
1267.5000;0.0781;-0.8697;
1267.8000;0.0757;-0.8743;
1268.1000;0.0757;-0.8788;
1268.4000;0.0749;-0.8743;
1268.7000;0.0749;-0.8629;
1269.0000;0.0708;-0.8697;
1269.3000;0.0790;-0.8471;
1269.6000;0.0741;-0.8675;
1269.9000;0.0830;-0.8380;
1270.2000;0.0708;-0.8788;
1270.5000;0.0708;-0.8788;
1270.8000;0.0749;-0.8697;
1271.1000;0.0757;-0.8720;
1271.4000;0.0749;-0.8743;
1271.7000;0.0733;-0.8720;
1272.0000;0.0757;-0.8788;
1272.3000;0.0741;-0.8743;
1272.6000;0.0749;-0.8743;
1272.9000;0.0716;-0.8810;
1273.2000;0.0830;-0.8516;
1273.5000;0.0741;-0.8788;
1273.8000;0.0765;-0.8788;
1274.1000;0.0741;-0.8856;
1274.4000;0.0733;-0.8878;
1274.7000;0.0749;-0.8856;
1275.0000;0.0733;-0.8788;
1275.3000;0.0765;-0.8833;
1275.6000;0.0741;-0.8901;
1275.9000;0.0790;-0.8720;
1276.2000;0.0741;-0.8743;
1276.5000;0.0749;-0.8720;
1276.8000;0.0676;-0.8833;
1277.1000;0.0733;-0.8720;
1277.4000;0.0773;-0.8652;
1277.7000;0.0741;-0.8652;
1278.0000;0.0700;-0.8607;
1278.3000;0.0781;-0.8425;
1278.6000;0.0773;-0.8493;
1278.9000;0.0708;-0.8652;
1279.2000;0.0741;-0.8584;
1279.5000;0.0798;-0.8493;
1279.8000;0.0749;-0.8629;
1280.1000;0.0749;-0.8629;
1280.4000;0.0871;-0.8448;
1280.7000;0.0741;-0.8810;
1281.0000;0.0741;-0.8788;
1281.3000;0.0749;-0.8856;
1281.6000;0.0651;-0.9060;
1281.9000;0.0716;-0.8765;
1282.2000;0.0741;-0.8720;
1282.5000;0.0790;-0.8652;
1282.8000;0.0700;-0.8743;
1283.1000;0.0733;-0.8743;
1283.4000;0.0749;-0.8584;
1283.7000;0.0700;-0.8720;
1284.0000;0.0733;-0.8675;
1284.3000;0.0724;-0.8720;
1284.6000;0.0733;-0.8652;
1284.9000;0.0822;-0.8335;
1285.2000;0.0733;-0.8607;
1285.5000;0.0741;-0.8584;
1285.8000;0.0765;-0.8493;
1286.1000;0.0716;-0.8561;
1286.4000;0.0790;-0.8403;
1286.7000;0.0765;-0.8425;
1287.0000;0.0798;-0.8380;
1287.3000;0.0757;-0.8471;
1287.6000;0.0733;-0.8493;
1287.9000;0.0765;-0.8425;
1288.2000;0.0692;-0.8720;
1288.5000;0.0749;-0.8516;
1288.8000;0.0765;-0.8425;
1289.1000;0.0765;-0.8539;
1289.4000;0.0749;-0.8675;
1289.7000;0.0741;-0.8697;
1290.0000;0.0724;-0.8765;
1290.3000;0.0749;-0.8652;
1290.6000;0.0733;-0.8697;
1290.9000;0.0814;-0.8516;
1291.2000;0.0684;-0.8878;
1291.5000;0.0724;-0.8675;
1291.8000;0.0757;-0.8652;
1292.1000;0.0757;-0.8561;
1292.4000;0.0724;-0.8652;
1292.7000;0.0716;-0.8675;
1293.0000;0.0749;-0.8607;
1293.3000;0.0749;-0.8607;
1293.6000;0.0781;-0.8652;
1293.9000;0.0749;-0.8720;
1294.2000;0.0741;-0.8720;
1294.5000;0.0757;-0.8697;
1294.8000;0.0724;-0.8629;
1295.1000;0.0806;-0.8403;
1295.4000;0.0757;-0.8493;
1295.7000;0.0741;-0.8539;
1296.0000;0.0749;-0.8539;
1296.3000;0.0733;-0.8697;
1296.6000;0.0741;-0.8810;
1296.9000;0.0716;-0.8788;
1297.2000;0.0798;-0.8584;
1297.5000;0.0765;-0.8561;
1297.8000;0.0757;-0.8652;
1298.1000;0.0684;-0.8901;
1298.4000;0.0887;-0.8335;
1298.7000;0.0757;-0.8607;
1299.0000;0.0733;-0.8697;
1299.3000;0.0757;-0.8697;
1299.6000;0.0757;-0.8788;
1299.9000;0.0684;-0.8946;
1300.2000;0.0733;-0.8810;
1300.5000;0.0749;-0.8720;
1300.8000;0.0741;-0.8652;
1301.1000;0.0757;-0.8539;
1301.4000;0.0773;-0.8516;
1301.7000;0.0749;-0.8539;
1302.0000;0.0676;-0.8720;
1302.3000;0.0757;-0.8584;
1302.6000;0.0741;-0.8652;
1302.9000;0.0765;-0.8675;
1303.2000;0.0773;-0.8675;
1303.5000;0.0822;-0.8493;
1303.8000;0.0830;-0.8380;
1304.1000;0.0798;-0.8403;
1304.4000;0.0790;-0.8471;
1304.7000;0.0749;-0.8652;
1305.0000;0.0724;-0.8720;
1305.3000;0.0708;-0.8629;
1305.6000;0.0741;-0.8584;
1305.9000;0.0716;-0.8720;
1306.2000;0.0724;-0.8697;
1306.5000;0.0676;-0.8810;
1306.8000;0.0847;-0.8403;
1307.1000;0.0757;-0.8652;
1307.4000;0.0733;-0.8675;
1307.7000;0.0676;-0.8992;
1308.0000;0.0692;-0.8901;
1308.3000;0.0749;-0.8675;
1308.6000;0.0708;-0.8856;
1308.9000;0.0757;-0.8878;
1309.2000;0.0733;-0.8924;
1309.5000;0.0716;-0.8969;
1309.8000;0.0733;-0.8969;
1310.1000;0.0733;-0.8946;
1310.4000;0.0781;-0.8878;
1310.7000;0.0749;-0.8901;
1311.0000;0.0904;-0.8516;
1311.3000;0.0733;-0.8878;
1311.6000;0.0684;-0.8992;
1311.9000;0.0724;-0.8856;
1312.2000;0.0806;-0.8675;
1312.5000;0.0765;-0.8743;
1312.8000;0.0798;-0.8720;
1313.1000;0.0676;-0.8901;
1313.4000;0.0708;-0.8856;
1313.7000;0.0757;-0.8697;
1314.0000;0.0814;-0.8516;
1314.3000;0.0749;-0.8652;
1314.6000;0.0659;-0.8856;
1314.9000;0.0765;-0.8607;
1315.2000;0.0765;-0.8584;
1315.5000;0.0757;-0.8675;
1315.8000;0.0741;-0.8765;
1316.1000;0.0708;-0.8743;
1316.4000;0.0757;-0.8561;
1316.7000;0.0716;-0.8743;
1317.0000;0.0765;-0.8697;
1317.3000;0.0676;-0.8878;
1317.6000;0.0765;-0.8810;
1317.9000;0.0773;-0.8833;
1318.2000;0.0733;-0.8901;
1318.5000;0.0724;-0.8946;
1318.8000;0.0757;-0.8878;
1319.1000;0.0708;-0.9037;
1319.4000;0.0830;-0.8720;
1319.7000;0.0733;-0.8924;
1320.0000;0.0822;-0.8607;
1320.3000;0.0773;-0.8675;
1320.6000;0.0749;-0.8697;
1320.9000;0.0765;-0.8629;
1321.2000;0.0684;-0.8810;
1321.5000;0.0765;-0.8652;
1321.8000;0.0781;-0.8697;
1322.1000;0.0765;-0.8697;
1322.4000;0.0781;-0.8561;
1322.7000;0.0773;-0.8675;
1323.0000;0.0798;-0.8539;
1323.3000;0.0733;-0.8652;
1323.6000;0.0765;-0.8584;
1323.9000;0.0765;-0.8584;
1324.2000;0.0716;-0.8833;
1324.5000;0.0765;-0.8675;
1324.8000;0.0749;-0.8629;
1325.1000;0.0749;-0.8675;
1325.4000;0.0700;-0.8743;
1325.7000;0.0741;-0.8675;
1326.0000;0.0749;-0.8629;
1326.3000;0.0765;-0.8584;
1326.6000;0.0757;-0.8629;
1326.9000;0.0741;-0.8675;
1327.2000;0.0757;-0.8629;
1327.5000;0.0716;-0.8697;
1327.8000;0.0741;-0.8652;
1328.1000;0.0757;-0.8675;
1328.4000;0.0757;-0.8607;
1328.7000;0.0733;-0.8607;
1329.0000;0.0757;-0.8448;
1329.3000;0.0757;-0.8403;
1329.6000;0.0749;-0.8403;
1329.9000;0.0708;-0.8584;
1330.2000;0.0773;-0.8493;
1330.5000;0.0749;-0.8629;
1330.8000;0.0773;-0.8652;
1331.1000;0.0757;-0.8720;
1331.4000;0.0741;-0.8743;
1331.7000;0.0757;-0.8743;
1332.0000;0.0765;-0.8584;
1332.3000;0.0716;-0.8629;
1332.6000;0.0757;-0.8425;
1332.9000;0.0765;-0.8425;
1333.2000;0.0790;-0.8335;
1333.5000;0.0790;-0.8335;
1333.8000;0.0749;-0.8425;
1334.1000;0.0765;-0.8471;
1334.4000;0.0741;-0.8675;
1334.7000;0.0741;-0.8629;
1335.0000;0.0749;-0.8675;
1335.3000;0.0741;-0.8788;
1335.6000;0.0765;-0.8788;
1335.9000;0.0765;-0.8743;
1336.2000;0.0724;-0.8788;
1336.5000;0.0684;-0.8788;
1336.8000;0.0733;-0.8720;
1337.1000;0.0684;-0.8810;
1337.4000;0.0773;-0.8584;
1337.7000;0.0676;-0.8810;
1338.0000;0.0822;-0.8493;
1338.3000;0.0749;-0.8652;
1338.6000;0.0765;-0.8561;
1338.9000;0.0757;-0.8539;
1339.2000;0.0765;-0.8493;
1339.5000;0.0749;-0.8493;
1339.8000;0.0741;-0.8448;
1340.1000;0.0733;-0.8425;
1340.4000;0.0733;-0.8448;
1340.7000;0.0757;-0.8448;
1341.0000;0.0741;-0.8493;
1341.3000;0.0749;-0.8448;
1341.6000;0.0741;-0.8403;
1341.9000;0.0781;-0.8335;
1342.2000;0.0773;-0.8403;
1342.5000;0.0765;-0.8471;
1342.8000;0.0773;-0.8403;
1343.1000;0.0749;-0.8425;
1343.4000;0.0765;-0.8516;
1343.7000;0.0822;-0.8312;
1344.0000;0.0765;-0.8448;
1344.3000;0.0724;-0.8561;
1344.6000;0.0741;-0.8561;
1344.9000;0.0757;-0.8629;
1345.2000;0.0667;-0.8788;
1345.5000;0.0733;-0.8539;
1345.8000;0.0765;-0.8516;
1346.1000;0.0765;-0.8425;
1346.4000;0.0790;-0.8380;
1346.7000;0.0741;-0.8493;
1347.0000;0.0765;-0.8448;
1347.3000;0.0765;-0.8312;
1347.6000;0.0757;-0.8222;
1347.9000;0.0741;-0.8290;
1348.2000;0.0741;-0.8267;
1348.5000;0.0724;-0.8312;
1348.8000;0.0741;-0.8267;
1349.1000;0.0790;-0.8222;
1349.4000;0.0724;-0.8471;
1349.7000;0.0765;-0.8380;
1350.0000;0.0765;-0.8425;
1350.3000;0.0741;-0.8471;
1350.6000;0.0741;-0.8493;
1350.9000;0.0822;-0.8222;
1351.2000;0.0765;-0.8380;
1351.5000;0.0627;-0.8675;
1351.8000;0.0749;-0.8358;
1352.1000;0.0757;-0.8290;
1352.4000;0.0676;-0.8425;
1352.7000;0.0781;-0.8244;
1353.0000;0.0749;-0.8403;
1353.3000;0.0806;-0.8312;
1353.6000;0.0781;-0.8335;
1353.9000;0.0667;-0.8516;
1354.2000;0.0757;-0.8312;
1354.5000;0.0659;-0.8584;
1354.8000;0.0765;-0.8335;
1355.1000;0.0757;-0.8425;
1355.4000;0.0806;-0.8290;
1355.7000;0.0708;-0.8380;
1356.0000;0.0708;-0.8380;
1356.3000;0.0749;-0.8244;
1356.6000;0.0741;-0.8244;
1356.9000;0.0667;-0.8516;
1357.2000;0.0716;-0.8380;
1357.5000;0.0692;-0.8629;
1357.8000;0.0733;-0.8516;
1358.1000;0.0757;-0.8539;
1358.4000;0.0830;-0.8335;
1358.7000;0.0765;-0.8425;
1359.0000;0.0724;-0.8539;
1359.3000;0.0733;-0.8561;
1359.6000;0.0692;-0.8675;
1359.9000;0.0684;-0.8720;
1360.2000;0.0741;-0.8516;
1360.5000;0.0757;-0.8471;
1360.8000;0.0733;-0.8448;
1361.1000;0.0749;-0.8493;
1361.4000;0.0724;-0.8720;
1361.7000;0.0749;-0.8720;
1362.0000;0.0749;-0.8720;
1362.3000;0.0749;-0.8765;
1362.6000;0.0749;-0.8788;
1362.9000;0.0692;-0.8743;
1363.2000;0.0659;-0.8856;
1363.5000;0.0741;-0.8652;
1363.8000;0.0749;-0.8629;
1364.1000;0.0798;-0.8448;
1364.4000;0.0781;-0.8471;
1364.7000;0.0757;-0.8584;
1365.0000;0.0741;-0.8652;
1365.3000;0.0749;-0.8584;
1365.6000;0.0716;-0.8652;
1365.9000;0.0733;-0.8629;
1366.2000;0.0749;-0.8629;
1366.5000;0.0741;-0.8675;
1366.8000;0.0724;-0.8697;
1367.1000;0.0733;-0.8697;
1367.4000;0.0765;-0.8720;
1367.7000;0.0757;-0.8720;
1368.0000;0.0724;-0.8765;
1368.3000;0.0724;-0.8652;
1368.6000;0.0757;-0.8675;
1368.9000;0.0790;-0.8629;
1369.2000;0.0765;-0.8697;
1369.5000;0.0757;-0.8675;
1369.8000;0.0741;-0.8720;
1370.1000;0.0765;-0.8743;
1370.4000;0.0838;-0.8539;
1370.7000;0.0757;-0.8833;
1371.0000;0.0757;-0.8720;
1371.3000;0.0773;-0.8720;
1371.6000;0.0757;-0.8675;
1371.9000;0.0765;-0.8607;
1372.2000;0.0757;-0.8561;
1372.5000;0.0757;-0.8607;
1372.8000;0.0741;-0.8652;
1373.1000;0.0773;-0.8607;
1373.4000;0.0765;-0.8539;
1373.7000;0.0733;-0.8652;
1374.0000;0.0765;-0.8516;
1374.3000;0.0749;-0.8493;
1374.6000;0.0741;-0.8448;
1374.9000;0.0741;-0.8380;
1375.2000;0.0724;-0.8425;
1375.5000;0.0716;-0.8516;
1375.8000;0.0741;-0.8471;
1376.1000;0.0724;-0.8493;
1376.4000;0.0733;-0.8561;
1376.7000;0.0749;-0.8561;
1377.0000;0.0781;-0.8425;
1377.3000;0.0773;-0.8448;
1377.6000;0.0749;-0.8607;
1377.9000;0.0765;-0.8607;
1378.2000;0.0733;-0.8765;
1378.5000;0.0847;-0.8448;
1378.8000;0.0741;-0.8607;
1379.1000;0.0806;-0.8493;
1379.4000;0.0749;-0.8516;
1379.7000;0.0667;-0.8697;
1380.0000;0.0708;-0.8629;
1380.3000;0.0749;-0.8584;
1380.6000;0.0692;-0.8675;
1380.9000;0.0733;-0.8448;
1381.2000;0.0676;-0.8584;
1381.5000;0.0741;-0.8312;
1381.8000;0.0749;-0.8244;
1382.1000;0.0700;-0.8312;
1382.4000;0.0806;-0.8063;
1382.7000;0.0806;-0.8222;
1383.0000;0.0822;-0.8176;
1383.3000;0.0757;-0.8403;
1383.6000;0.0741;-0.8425;
1383.9000;0.0741;-0.8403;
1384.2000;0.0773;-0.8312;
1384.5000;0.0708;-0.8380;
1384.8000;0.0733;-0.8312;
1385.1000;0.0749;-0.8267;
1385.4000;0.0716;-0.8358;
1385.7000;0.0757;-0.8358;
1386.0000;0.0651;-0.8539;
1386.3000;0.0716;-0.8380;
1386.6000;0.0724;-0.8448;
1386.9000;0.0749;-0.8425;
1387.2000;0.0830;-0.8199;
1387.5000;0.0822;-0.8199;
1387.8000;0.0741;-0.8380;
1388.1000;0.0741;-0.8539;
1388.4000;0.0773;-0.8448;
1388.7000;0.0741;-0.8448;
1389.0000;0.0749;-0.8448;
1389.3000;0.0838;-0.8335;
1389.6000;0.0749;-0.8471;
1389.9000;0.0619;-0.8765;
1390.2000;0.0692;-0.8720;
1390.5000;0.0700;-0.8765;
1390.8000;0.0692;-0.8765;
1391.1000;0.0757;-0.8561;
1391.4000;0.0773;-0.8471;
1391.7000;0.0741;-0.8539;
1392.0000;0.0773;-0.8403;
1392.3000;0.0692;-0.8629;
1392.6000;0.0651;-0.8743;
1392.9000;0.0651;-0.8743;
1393.2000;0.0830;-0.8222;
1393.5000;0.0773;-0.8267;
1393.8000;0.0741;-0.8471;
1394.1000;0.0781;-0.8358;
1394.4000;0.0724;-0.8493;
1394.7000;0.0936;-0.7995;
1395.0000;0.0741;-0.8516;
1395.3000;0.0757;-0.8471;
1395.6000;0.0781;-0.8425;
1395.9000;0.0700;-0.8743;
1396.2000;0.0749;-0.8516;
1396.5000;0.0627;-0.8856;
1396.8000;0.0757;-0.8448;
1397.1000;0.0635;-0.8720;
1397.4000;0.0708;-0.8539;
1397.7000;0.0749;-0.8539;
1398.0000;0.0692;-0.8675;
1398.3000;0.0757;-0.8539;
1398.6000;0.0733;-0.8629;
1398.9000;0.0806;-0.8471;
1399.2000;0.0741;-0.8584;
1399.5000;0.0757;-0.8561;
1399.8000;0.0765;-0.8539;
