time/ms;Fluo/V;P700 deltaI/I x10³;
-199.8000;0.0814;-0.8833;
-199.5000;0.0781;-0.8901;
-199.2000;0.0806;-0.8856;
-198.9000;0.0798;-0.8856;
-198.6000;0.0765;-0.8946;
-198.3000;0.0790;-0.8946;
-198.0000;0.0773;-0.8924;
-197.7000;0.0790;-0.8788;
-197.4000;0.0822;-0.8810;
-197.1000;0.0781;-0.8924;
-196.8000;0.0798;-0.8969;
-196.5000;0.0822;-0.8946;
-196.2000;0.0781;-0.9082;
-195.9000;0.0798;-0.9037;
-195.6000;0.0781;-0.9014;
-195.3000;0.0806;-0.8901;
-195.0000;0.0822;-0.8924;
-194.7000;0.0814;-0.8924;
-194.4000;0.0806;-0.8833;
-194.1000;0.0798;-0.8901;
-193.8000;0.0814;-0.8833;
-193.5000;0.0798;-0.8856;
-193.2000;0.0790;-0.8924;
-192.9000;0.0798;-0.8878;
-192.6000;0.0798;-0.8969;
-192.3000;0.0798;-0.8969;
-192.0000;0.0798;-0.8901;
-191.7000;0.0806;-0.8901;
-191.4000;0.0757;-0.9037;
-191.1000;0.0806;-0.8946;
-190.8000;0.0806;-0.8878;
-190.5000;0.0822;-0.8833;
-190.2000;0.0806;-0.8856;
-189.9000;0.0822;-0.8878;
-189.6000;0.0822;-0.8924;
-189.3000;0.0806;-0.8969;
-189.0000;0.0814;-0.8969;
-188.7000;0.0822;-0.8946;
-188.4000;0.0781;-0.8992;
-188.1000;0.0806;-0.9014;
-187.8000;0.0806;-0.8969;
-187.5000;0.0830;-0.8901;
-187.2000;0.0814;-0.8946;
-186.9000;0.0798;-0.8992;
-186.6000;0.0806;-0.9014;
-186.3000;0.0814;-0.9037;
-186.0000;0.0806;-0.8992;
-185.7000;0.0806;-0.9037;
-185.4000;0.0806;-0.9060;
-185.1000;0.0814;-0.9014;
-184.8000;0.0806;-0.9082;
-184.5000;0.0798;-0.9173;
-184.2000;0.0798;-0.9196;
-183.9000;0.0781;-0.9173;
-183.6000;0.0814;-0.9105;
-183.3000;0.0798;-0.9060;
-183.0000;0.0790;-0.9037;
-182.7000;0.0806;-0.8969;
-182.4000;0.0814;-0.8924;
-182.1000;0.0798;-0.8969;
-181.8000;0.0936;-0.8652;
-181.5000;0.0936;-0.8652;
-181.2000;0.0806;-0.8901;
-180.9000;0.0806;-0.8901;
-180.6000;0.0806;-0.8856;
-180.3000;0.0806;-0.8946;
-180.0000;0.0798;-0.8969;
-179.7000;0.0806;-0.8924;
-179.4000;0.0806;-0.8924;
-179.1000;0.0806;-0.8878;
-178.8000;0.0806;-0.8924;
-178.5000;0.0806;-0.9014;
-178.2000;0.0790;-0.9105;
-177.9000;0.0757;-0.9309;
-177.6000;0.0798;-0.9196;
-177.3000;0.0814;-0.9060;
-177.0000;0.0790;-0.8969;
-176.7000;0.0798;-0.8924;
-176.4000;0.0781;-0.8946;
-176.1000;0.0790;-0.8969;
-175.8000;0.0806;-0.8969;
-175.5000;0.0798;-0.9060;
-175.2000;0.0798;-0.9128;
-174.9000;0.0814;-0.9082;
-174.6000;0.0798;-0.9082;
-174.3000;0.0806;-0.9082;
-174.0000;0.0798;-0.8969;
-173.7000;0.0806;-0.8969;
-173.4000;0.0838;-0.8924;
-173.1000;0.0814;-0.8924;
-172.8000;0.0781;-0.9060;
-172.5000;0.0781;-0.8946;
-172.2000;0.0790;-0.8924;
-171.9000;0.0798;-0.8992;
-171.6000;0.0765;-0.9037;
-171.3000;0.0781;-0.8946;
-171.0000;0.0806;-0.8743;
-170.7000;0.0806;-0.8765;
-170.4000;0.0798;-0.8765;
-170.1000;0.0814;-0.8720;
-169.8000;0.0830;-0.8652;
-169.5000;0.0806;-0.8675;
-169.2000;0.0806;-0.8697;
-168.9000;0.0798;-0.8810;
-168.6000;0.0814;-0.8833;
-168.3000;0.0806;-0.8901;
-168.0000;0.0806;-0.8924;
-167.7000;0.0798;-0.8878;
-167.4000;0.0781;-0.8878;
-167.1000;0.0814;-0.8765;
-166.8000;0.0724;-0.8924;
-166.5000;0.0798;-0.8675;
-166.2000;0.0912;-0.8448;
-165.9000;0.0806;-0.8743;
-165.6000;0.0798;-0.8878;
-165.3000;0.0798;-0.8878;
-165.0000;0.0798;-0.8856;
-164.7000;0.0814;-0.8878;
-164.4000;0.0822;-0.8878;
-164.1000;0.0806;-0.8924;
-163.8000;0.0798;-0.8992;
-163.5000;0.0806;-0.8901;
-163.2000;0.0790;-0.8765;
-162.9000;0.0790;-0.8833;
-162.6000;0.0790;-0.8788;
-162.3000;0.0814;-0.8720;
-162.0000;0.0790;-0.8720;
-161.7000;0.0741;-0.8810;
-161.4000;0.0790;-0.8652;
-161.1000;0.0790;-0.8743;
-160.8000;0.0773;-0.8856;
-160.5000;0.0806;-0.8788;
-160.2000;0.0667;-0.9082;
-159.9000;0.0806;-0.8765;
-159.6000;0.0814;-0.8720;
-159.3000;0.0586;-0.9309;
-159.0000;0.0798;-0.8810;
-158.7000;0.0798;-0.8856;
-158.4000;0.0871;-0.8743;
-158.1000;0.0822;-0.8969;
-157.8000;0.0806;-0.8992;
-157.5000;0.0724;-0.9150;
-157.2000;0.0798;-0.8992;
-156.9000;0.0806;-0.8969;
-156.6000;0.0806;-0.8969;
-156.3000;0.0773;-0.9037;
-156.0000;0.0806;-0.8946;
-155.7000;0.0790;-0.8901;
-155.4000;0.0798;-0.8924;
-155.1000;0.0806;-0.8810;
-154.8000;0.0814;-0.8856;
-154.5000;0.0806;-0.8901;
-154.2000;0.0920;-0.8584;
-153.9000;0.0814;-0.8878;
-153.6000;0.0798;-0.8901;
-153.3000;0.0814;-0.8946;
-153.0000;0.0790;-0.8969;
-152.7000;0.0781;-0.8992;
-152.4000;0.0798;-0.8946;
-152.1000;0.0814;-0.8878;
-151.8000;0.0790;-0.8856;
-151.5000;0.0814;-0.8765;
-151.2000;0.0790;-0.8833;
-150.9000;0.0667;-0.9263;
-150.6000;0.0790;-0.8946;
-150.3000;0.0806;-0.8992;
-150.0000;0.0830;-0.8946;
-149.7000;0.0830;-0.8969;
-149.4000;0.0741;-0.9241;
-149.1000;0.0814;-0.8969;
-148.8000;0.0814;-0.8878;
-148.5000;0.0790;-0.8946;
-148.2000;0.0749;-0.9105;
-147.9000;0.0798;-0.8969;
-147.6000;0.0814;-0.8924;
-147.3000;0.0733;-0.9082;
-147.0000;0.0790;-0.8901;
-146.7000;0.0798;-0.8856;
-146.4000;0.0790;-0.8878;
-146.1000;0.0822;-0.8878;
-145.8000;0.0822;-0.8788;
-145.5000;0.0822;-0.8856;
-145.2000;0.0806;-0.8924;
-144.9000;0.0806;-0.8969;
-144.6000;0.0814;-0.8856;
-144.3000;0.0814;-0.8810;
-144.0000;0.0806;-0.8765;
-143.7000;0.0790;-0.8901;
-143.4000;0.0814;-0.8743;
-143.1000;0.0790;-0.8765;
-142.8000;0.0798;-0.8743;
-142.5000;0.0798;-0.8810;
-142.2000;0.0790;-0.8765;
-141.9000;0.0806;-0.8697;
-141.6000;0.0798;-0.8720;
-141.3000;0.0814;-0.8743;
-141.0000;0.0798;-0.8856;
-140.7000;0.0806;-0.8924;
-140.4000;0.0830;-0.8833;
-140.1000;0.0757;-0.8946;
-139.8000;0.0830;-0.8878;
-139.5000;0.0830;-0.8969;
-139.2000;0.0814;-0.8924;
-138.9000;0.0822;-0.8901;
-138.6000;0.0798;-0.8946;
-138.3000;0.0814;-0.8924;
-138.0000;0.0806;-0.8924;
-137.7000;0.0806;-0.8924;
-137.4000;0.0806;-0.8946;
-137.1000;0.0790;-0.8992;
-136.8000;0.0806;-0.8901;
-136.5000;0.0806;-0.8901;
-136.2000;0.0798;-0.8901;
-135.9000;0.0830;-0.8788;
-135.6000;0.0838;-0.8788;
-135.3000;0.0830;-0.8788;
-135.0000;0.0830;-0.8743;
-134.7000;0.0724;-0.9105;
-134.4000;0.0814;-0.8901;
-134.1000;0.0741;-0.9105;
-133.8000;0.0814;-0.8969;
-133.5000;0.0814;-0.8924;
-133.2000;0.0822;-0.8833;
-132.9000;0.0814;-0.8810;
-132.6000;0.0798;-0.8878;
-132.3000;0.0724;-0.9150;
-132.0000;0.0798;-0.8901;
-131.7000;0.0822;-0.8856;
-131.4000;0.0806;-0.8969;
-131.1000;0.0822;-0.8992;
-130.8000;0.0757;-0.9060;
-130.5000;0.0871;-0.8788;
-130.2000;0.0773;-0.8969;
-129.9000;0.0814;-0.8856;
-129.6000;0.0798;-0.8946;
-129.3000;0.0806;-0.8878;
-129.0000;0.0798;-0.8969;
-128.7000;0.0773;-0.9196;
-128.4000;0.0790;-0.9173;
-128.1000;0.0830;-0.8969;
-127.8000;0.0773;-0.9128;
-127.5000;0.0790;-0.9196;
-127.2000;0.0781;-0.9218;
-126.9000;0.0798;-0.9173;
-126.6000;0.0822;-0.9060;
-126.3000;0.0847;-0.8901;
-126.0000;0.0814;-0.9014;
-125.7000;0.0806;-0.8992;
-125.4000;0.0814;-0.9037;
-125.1000;0.0814;-0.9014;
-124.8000;0.0806;-0.9014;
-124.5000;0.0814;-0.9037;
-124.2000;0.0895;-0.8833;
-123.9000;0.0798;-0.9037;
-123.6000;0.0798;-0.9037;
-123.3000;0.0790;-0.8969;
-123.0000;0.0798;-0.8946;
-122.7000;0.0781;-0.9014;
-122.4000;0.0781;-0.9060;
-122.1000;0.0781;-0.9014;
-121.8000;0.0790;-0.9060;
-121.5000;0.0798;-0.9037;
-121.2000;0.0790;-0.9105;
-120.9000;0.0871;-0.8856;
-120.6000;0.0765;-0.9082;
-120.3000;0.0814;-0.8946;
-120.0000;0.0724;-0.9150;
-119.7000;0.0765;-0.9014;
-119.4000;0.0781;-0.9014;
-119.1000;0.0806;-0.9014;
-118.8000;0.0806;-0.8856;
-118.5000;0.0790;-0.8946;
-118.2000;0.0798;-0.8946;
-117.9000;0.0692;-0.9105;
-117.6000;0.0838;-0.8856;
-117.3000;0.0806;-0.8924;
-117.0000;0.0790;-0.8946;
-116.7000;0.0806;-0.8856;
-116.4000;0.0904;-0.8516;
-116.1000;0.0781;-0.8901;
-115.8000;0.0806;-0.8878;
-115.5000;0.0822;-0.8833;
-115.2000;0.0814;-0.8878;
-114.9000;0.0741;-0.9060;
-114.6000;0.0790;-0.8810;
-114.3000;0.0757;-0.8810;
-114.0000;0.0798;-0.8810;
-113.7000;0.0741;-0.8878;
-113.4000;0.0781;-0.8720;
-113.1000;0.0790;-0.8720;
-112.8000;0.0806;-0.8810;
-112.5000;0.0830;-0.8810;
-112.2000;0.0781;-0.9037;
-111.9000;0.0806;-0.9150;
-111.6000;0.0944;-0.8833;
-111.3000;0.0838;-0.9241;
-111.0000;0.0822;-0.9218;
-110.7000;0.0781;-0.9241;
-110.4000;0.0798;-0.9263;
-110.1000;0.0790;-0.9196;
-109.8000;0.0822;-0.9082;
-109.5000;0.0806;-0.9150;
-109.2000;0.0773;-0.9286;
-108.9000;0.0798;-0.9218;
-108.6000;0.0806;-0.9173;
-108.3000;0.0855;-0.9150;
-108.0000;0.0790;-0.9241;
-107.7000;0.0790;-0.9218;
-107.4000;0.0798;-0.9196;
-107.1000;0.0724;-0.9309;
-106.8000;0.0781;-0.9105;
-106.5000;0.0781;-0.9150;
-106.2000;0.0790;-0.9014;
-105.9000;0.0781;-0.9082;
-105.6000;0.0806;-0.9105;
-105.3000;0.0806;-0.9196;
-105.0000;0.0790;-0.9241;
-104.7000;0.0806;-0.9218;
-104.4000;0.0806;-0.9196;
-104.1000;0.0822;-0.9173;
-103.8000;0.0790;-0.9173;
-103.5000;0.0798;-0.9105;
-103.2000;0.0814;-0.9105;
-102.9000;0.0798;-0.9128;
-102.6000;0.0781;-0.9082;
-102.3000;0.0798;-0.9150;
-102.0000;0.0790;-0.9128;
-101.7000;0.0790;-0.9128;
-101.4000;0.0814;-0.9105;
-101.1000;0.0806;-0.9150;
-100.8000;0.0765;-0.9354;
-100.5000;0.0790;-0.9218;
-100.2000;0.0806;-0.9173;
-99.9000;0.0814;-0.9105;
-99.6000;0.0814;-0.9150;
-99.3000;0.0781;-0.9150;
-99.0000;0.0838;-0.9060;
-98.7000;0.0814;-0.9082;
-98.4000;0.0806;-0.9037;
-98.1000;0.0806;-0.9082;
-97.8000;0.0904;-0.8765;
-97.5000;0.0790;-0.8924;
-97.2000;0.0863;-0.8765;
-96.9000;0.0814;-0.8992;
-96.6000;0.0822;-0.9014;
-96.3000;0.0863;-0.8924;
-96.0000;0.0822;-0.8946;
-95.7000;0.0806;-0.9037;
-95.4000;0.0814;-0.9128;
-95.1000;0.0781;-0.9196;
-94.8000;0.0716;-0.9377;
-94.5000;0.0822;-0.9037;
-94.2000;0.0814;-0.8992;
-93.9000;0.0790;-0.9014;
-93.6000;0.0773;-0.9037;
-93.3000;0.0806;-0.8992;
-93.0000;0.0814;-0.8901;
-92.7000;0.0806;-0.8992;
-92.4000;0.0814;-0.8969;
-92.1000;0.0749;-0.9196;
-91.8000;0.0814;-0.9082;
-91.5000;0.0822;-0.9105;
-91.2000;0.0806;-0.9150;
-90.9000;0.0830;-0.9082;
-90.6000;0.0798;-0.9060;
-90.3000;0.0822;-0.9014;
-90.0000;0.0814;-0.9014;
-89.7000;0.0814;-0.9037;
-89.4000;0.0741;-0.9218;
-89.1000;0.0814;-0.9105;
-88.8000;0.0757;-0.9150;
-88.5000;0.0781;-0.8992;
-88.2000;0.0814;-0.8946;
-87.9000;0.0790;-0.9014;
-87.6000;0.0749;-0.9128;
-87.3000;0.0806;-0.8969;
-87.0000;0.0765;-0.9060;
-86.7000;0.0830;-0.8992;
-86.4000;0.0790;-0.9082;
-86.1000;0.0716;-0.9286;
-85.8000;0.0773;-0.9082;
-85.5000;0.0822;-0.8901;
-85.2000;0.0790;-0.8946;
-84.9000;0.0814;-0.8946;
-84.6000;0.0659;-0.9263;
-84.3000;0.0814;-0.8901;
-84.0000;0.0838;-0.8924;
-83.7000;0.0855;-0.8878;
-83.4000;0.0822;-0.8924;
-83.1000;0.0871;-0.8810;
-82.8000;0.0814;-0.8856;
-82.5000;0.0749;-0.9014;
-82.2000;0.0790;-0.8992;
-81.9000;0.0822;-0.9037;
-81.6000;0.0822;-0.8992;
-81.3000;0.0798;-0.9037;
-81.0000;0.0814;-0.8969;
-80.7000;0.0790;-0.9014;
-80.4000;0.0830;-0.8856;
-80.1000;0.0798;-0.9037;
-79.8000;0.0806;-0.8969;
-79.5000;0.0790;-0.9105;
-79.2000;0.0847;-0.8992;
-78.9000;0.0790;-0.9309;
-78.6000;0.0814;-0.9241;
-78.3000;0.0798;-0.9286;
-78.0000;0.0790;-0.9263;
-77.7000;0.0806;-0.9241;
-77.4000;0.0773;-0.9150;
-77.1000;0.0765;-0.9150;
-76.8000;0.0814;-0.9128;
-76.5000;0.0806;-0.9196;
-76.2000;0.0814;-0.9263;
-75.9000;0.0806;-0.9263;
-75.6000;0.0822;-0.9196;
-75.3000;0.0765;-0.9241;
-75.0000;0.0798;-0.9196;
-74.7000;0.0798;-0.9218;
-74.4000;0.0773;-0.9354;
-74.1000;0.0806;-0.9241;
-73.8000;0.0814;-0.9173;
-73.5000;0.0814;-0.9128;
-73.2000;0.0798;-0.9196;
-72.9000;0.0757;-0.9218;
-72.6000;0.0790;-0.9128;
-72.3000;0.0781;-0.9241;
-72.0000;0.0806;-0.9150;
-71.7000;0.0790;-0.9263;
-71.4000;0.0798;-0.9286;
-71.1000;0.0773;-0.9263;
-70.8000;0.0798;-0.9173;
-70.5000;0.0790;-0.9241;
-70.2000;0.0798;-0.9173;
-69.9000;0.0806;-0.9128;
-69.6000;0.0830;-0.9037;
-69.3000;0.0814;-0.9105;
-69.0000;0.0781;-0.9196;
-68.7000;0.0781;-0.9241;
-68.4000;0.0806;-0.9105;
-68.1000;0.0741;-0.9196;
-67.8000;0.0814;-0.9128;
-67.5000;0.0871;-0.9014;
-67.2000;0.0912;-0.8810;
-66.9000;0.0814;-0.9037;
-66.6000;0.0798;-0.9082;
-66.3000;0.0724;-0.9286;
-66.0000;0.0798;-0.9060;
-65.7000;0.0790;-0.9014;
-65.4000;0.0822;-0.8969;
-65.1000;0.0643;-0.9309;
-64.8000;0.0708;-0.9196;
-64.5000;0.0871;-0.8765;
-64.2000;0.0798;-0.8946;
-63.9000;0.0806;-0.8833;
-63.6000;0.0822;-0.8788;
-63.3000;0.0790;-0.8856;
-63.0000;0.0806;-0.8788;
-62.7000;0.0781;-0.8788;
-62.4000;0.0733;-0.8992;
-62.1000;0.0790;-0.8924;
-61.8000;0.0822;-0.8901;
-61.5000;0.0822;-0.8901;
-61.2000;0.0798;-0.8901;
-60.9000;0.0822;-0.8856;
-60.6000;0.0790;-0.8856;
-60.3000;0.0781;-0.8856;
-60.0000;0.0895;-0.8607;
-59.7000;0.0733;-0.8969;
-59.4000;0.0814;-0.8788;
-59.1000;0.0814;-0.8833;
-58.8000;0.0798;-0.8924;
-58.5000;0.0790;-0.8992;
-58.2000;0.0814;-0.8833;
-57.9000;0.0781;-0.8810;
-57.6000;0.0765;-0.8878;
-57.3000;0.0790;-0.8856;
-57.0000;0.0790;-0.8924;
-56.7000;0.0887;-0.8743;
-56.4000;0.0765;-0.9105;
-56.1000;0.0773;-0.9173;
-55.8000;0.0790;-0.9105;
-55.5000;0.0814;-0.9082;
-55.2000;0.0741;-0.9309;
-54.9000;0.0855;-0.9014;
-54.6000;0.0822;-0.8992;
-54.3000;0.0822;-0.8969;
-54.0000;0.0814;-0.8969;
-53.7000;0.0814;-0.8946;
-53.4000;0.0798;-0.8969;
-53.1000;0.0798;-0.8901;
-52.8000;0.0790;-0.8856;
-52.5000;0.0798;-0.8946;
-52.2000;0.0716;-0.9173;
-51.9000;0.0798;-0.9082;
-51.6000;0.0790;-0.9082;
-51.3000;0.0790;-0.9014;
-51.0000;0.0798;-0.8924;
-50.7000;0.0814;-0.8946;
-50.4000;0.0830;-0.8924;
-50.1000;0.0847;-0.8946;
-49.8000;0.0822;-0.8969;
-49.5000;0.0814;-0.8878;
-49.2000;0.0822;-0.8878;
-48.9000;0.0724;-0.9037;
-48.6000;0.0806;-0.8743;
-48.3000;0.0798;-0.8833;
-48.0000;0.0798;-0.8833;
-47.7000;0.0814;-0.8788;
-47.4000;0.0806;-0.8833;
-47.1000;0.0855;-0.8788;
-46.8000;0.0806;-0.8901;
-46.5000;0.0806;-0.8901;
-46.2000;0.0822;-0.8856;
-45.9000;0.0781;-0.8946;
-45.6000;0.0741;-0.9037;
-45.3000;0.0814;-0.8697;
-45.0000;0.0790;-0.8810;
-44.7000;0.0781;-0.8924;
-44.4000;0.0806;-0.8901;
-44.1000;0.0814;-0.8992;
-43.8000;0.0757;-0.9105;
-43.5000;0.0773;-0.9014;
-43.2000;0.0765;-0.8969;
-42.9000;0.0781;-0.8992;
-42.6000;0.0781;-0.9037;
-42.3000;0.0773;-0.9014;
-42.0000;0.0790;-0.8992;
-41.7000;0.0806;-0.8901;
-41.4000;0.0814;-0.8878;
-41.1000;0.0814;-0.8833;
-40.8000;0.0798;-0.8924;
-40.5000;0.0920;-0.8584;
-40.2000;0.0847;-0.8810;
-39.9000;0.0830;-0.8833;
-39.6000;0.0781;-0.8969;
-39.3000;0.0790;-0.9060;
-39.0000;0.0830;-0.9014;
-38.7000;0.0822;-0.9060;
-38.4000;0.0790;-0.9263;
-38.1000;0.0773;-0.9263;
-37.8000;0.0781;-0.9173;
-37.5000;0.0790;-0.9014;
-37.2000;0.0790;-0.8969;
-36.9000;0.0838;-0.8901;
-36.6000;0.0765;-0.9037;
-36.3000;0.0806;-0.8992;
-36.0000;0.0798;-0.9037;
-35.7000;0.0798;-0.9060;
-35.4000;0.0887;-0.8901;
-35.1000;0.0806;-0.9082;
-34.8000;0.0814;-0.9082;
-34.5000;0.0790;-0.9128;
-34.2000;0.0790;-0.9173;
-33.9000;0.0806;-0.9196;
-33.6000;0.0879;-0.9037;
-33.3000;0.0757;-0.9399;
-33.0000;0.0806;-0.9241;
-32.7000;0.0830;-0.9218;
-32.4000;0.0969;-0.8810;
-32.1000;0.0798;-0.9263;
-31.8000;0.0822;-0.9218;
-31.5000;0.0798;-0.9331;
-31.2000;0.0904;-0.9150;
-30.9000;0.0806;-0.9331;
-30.6000;0.0790;-0.9286;
-30.3000;0.0757;-0.9218;
-30.0000;0.0814;-0.9082;
-29.7000;0.0814;-0.9105;
-29.4000;0.0806;-0.9060;
-29.1000;0.0830;-0.9037;
-28.8000;0.0733;-0.9241;
-28.5000;0.0798;-0.9060;
-28.2000;0.0781;-0.9128;
-27.9000;0.0838;-0.8969;
-27.6000;0.0773;-0.9105;
-27.3000;0.0806;-0.9060;
-27.0000;0.0806;-0.9082;
-26.7000;0.0814;-0.9014;
-26.4000;0.0790;-0.9105;
-26.1000;0.0798;-0.9082;
-25.8000;0.0790;-0.9014;
-25.5000;0.0814;-0.9014;
-25.2000;0.0806;-0.9082;
-24.9000;0.0830;-0.9014;
-24.6000;0.0798;-0.9128;
-24.3000;0.0806;-0.9173;
-24.0000;0.0798;-0.9150;
-23.7000;0.0806;-0.9082;
-23.4000;0.0798;-0.9196;
-23.1000;0.0798;-0.9196;
-22.8000;0.0798;-0.9263;
-22.5000;0.0790;-0.9218;
-22.2000;0.0806;-0.9173;
-21.9000;0.0757;-0.9241;
-21.6000;0.0798;-0.9218;
-21.3000;0.0814;-0.9196;
-21.0000;0.0830;-0.9105;
-20.7000;0.0806;-0.9241;
-20.4000;0.0838;-0.9128;
-20.1000;0.0806;-0.9196;
-19.8000;0.0822;-0.9082;
-19.5000;0.0830;-0.9037;
-19.2000;0.0806;-0.9150;
-18.9000;0.0814;-0.9173;
-18.6000;0.0814;-0.9241;
-18.3000;0.0798;-0.9263;
-18.0000;0.0798;-0.9218;
-17.7000;0.0798;-0.9218;
-17.4000;0.0895;-0.8878;
-17.1000;0.0798;-0.9082;
-16.8000;0.0822;-0.8992;
-16.5000;0.0790;-0.9150;
-16.2000;0.0944;-0.8720;
-15.9000;0.0814;-0.9060;
-15.6000;0.0798;-0.8946;
-15.3000;0.0830;-0.8788;
-15.0000;0.0806;-0.8946;
-14.7000;0.0993;-0.8516;
-14.4000;0.0822;-0.8992;
-14.1000;0.0651;-0.9399;
-13.8000;0.0806;-0.9060;
-13.5000;0.0814;-0.9014;
-13.2000;0.0879;-0.8901;
-12.9000;0.0781;-0.9060;
-12.6000;0.0847;-0.8946;
-12.3000;0.0814;-0.9014;
-12.0000;0.0806;-0.9037;
-11.7000;0.0790;-0.9037;
-11.4000;0.0781;-0.9037;
-11.1000;0.0904;-0.8675;
-10.8000;0.0814;-0.8878;
-10.5000;0.0790;-0.9014;
-10.2000;0.0806;-0.8992;
-9.9000;0.0781;-0.9014;
-9.6000;0.0920;-0.8675;
-9.3000;0.0781;-0.9014;
-9.0000;0.0798;-0.8901;
-8.7000;0.0806;-0.8924;
-8.4000;0.0822;-0.8810;
-8.1000;0.0790;-0.8969;
-7.8000;0.0765;-0.9060;
-7.5000;0.0790;-0.8969;
-7.2000;0.0724;-0.9060;
-6.9000;0.0798;-0.8878;
-6.6000;0.0822;-0.8901;
-6.3000;0.0806;-0.8878;
-6.0000;0.0798;-0.8833;
-5.7000;0.0830;-0.8743;
-5.4000;0.0806;-0.8856;
-5.1000;0.0798;-0.9014;
-4.8000;0.0676;-0.9218;
-4.5000;0.0822;-0.8946;
-4.2000;0.0814;-0.9060;
-3.9000;0.0798;-0.9060;
-3.6000;0.0838;-0.9037;
-3.3000;0.0798;-0.9082;
-3.0000;0.0806;-0.9150;
-2.7000;0.0814;-0.9196;
-2.4000;0.0830;-0.9082;
-2.1000;0.0806;-0.9014;
-1.8000;0.0790;-0.8992;
-1.5000;0.0806;-0.8969;
-1.2000;0.0798;-0.9037;
-0.9000;0.0798;-0.8992;
-0.6000;0.0814;-0.9014;
-0.3000;0.0806;-0.9037;
0.0000;0.0806;-0.9037;
0.3000;0.0798;-0.9467;
0.6000;0.0838;-0.9218;
0.9000;0.0781;-0.9173;
1.2000;0.0830;-0.8969;
1.5000;0.0855;-0.8697;
1.8000;0.0879;-0.8516;
2.1000;0.0871;-0.8493;
2.4000;0.0961;-0.8176;
2.7000;0.0871;-0.8380;
3.0000;0.0895;-0.8267;
3.3000;0.0871;-0.8335;
3.6000;0.0895;-0.8267;
3.9000;0.0863;-0.8267;
4.2000;0.0871;-0.8199;
4.5000;0.0895;-0.8108;
4.8000;0.0871;-0.8154;
5.1000;0.0855;-0.8154;
5.4000;0.0863;-0.8199;
5.7000;0.0895;-0.8063;
6.0000;0.0879;-0.8018;
6.3000;0.0822;-0.8086;
6.6000;0.0863;-0.8063;
6.9000;0.0887;-0.8040;
7.2000;0.0879;-0.8108;
7.5000;0.0790;-0.8267;
7.8000;0.0912;-0.7950;
8.1000;0.0863;-0.8018;
8.4000;0.0871;-0.7972;
8.7000;0.0863;-0.7905;
9.0000;0.0928;-0.7723;
9.3000;0.0985;-0.7587;
9.6000;0.0895;-0.7769;
9.9000;0.0920;-0.7746;
10.2000;0.0757;-0.8154;
10.5000;0.1001;-0.7519;
10.8000;0.0879;-0.7927;
11.1000;0.0879;-0.7882;
11.4000;0.0912;-0.7791;
11.7000;0.0855;-0.8040;
12.0000;0.0871;-0.7927;
12.3000;0.0912;-0.7882;
12.6000;0.0912;-0.7927;
12.9000;0.0895;-0.7995;
13.2000;0.0879;-0.7950;
13.5000;0.0904;-0.7882;
13.8000;0.0887;-0.7905;
14.1000;0.0879;-0.7950;
14.4000;0.0912;-0.7837;
14.7000;0.0879;-0.7950;
15.0000;0.0863;-0.7950;
15.3000;0.0887;-0.7927;
15.6000;0.0806;-0.8131;
15.9000;0.0879;-0.7995;
16.2000;0.0871;-0.7905;
16.5000;0.0863;-0.7905;
16.8000;0.0895;-0.7859;
17.1000;0.0781;-0.8199;
17.4000;0.0904;-0.7859;
17.7000;0.0822;-0.8108;
18.0000;0.0904;-0.7859;
18.3000;0.0969;-0.7791;
18.6000;0.0895;-0.7905;
18.9000;0.0912;-0.7882;
19.2000;0.0895;-0.7950;
19.5000;0.0887;-0.7972;
19.8000;0.0920;-0.7927;
20.1000;0.0879;-0.8018;
20.4000;0.0920;-0.7905;
20.7000;0.0920;-0.7972;
21.0000;0.0895;-0.8018;
21.3000;0.0895;-0.8018;
21.6000;0.0895;-0.8018;
21.9000;0.0904;-0.7950;
22.2000;0.0936;-0.7814;
22.5000;0.0912;-0.7905;
22.8000;0.0887;-0.7950;
23.1000;0.0904;-0.7950;
23.4000;0.0895;-0.7950;
23.7000;0.0887;-0.7927;
24.0000;0.0887;-0.7905;
24.3000;0.0928;-0.7927;
24.6000;0.0879;-0.8108;
24.9000;0.0887;-0.7995;
25.2000;0.0879;-0.8086;
25.5000;0.1001;-0.7791;
25.8000;0.0781;-0.8380;
26.1000;0.0895;-0.8063;
26.4000;0.0765;-0.8425;
26.7000;0.0871;-0.8199;
27.0000;0.0879;-0.8154;
27.3000;0.0887;-0.8154;
27.6000;0.0904;-0.8199;
27.9000;0.0895;-0.8199;
28.2000;0.0790;-0.8403;
28.5000;0.0863;-0.8063;
28.8000;0.0887;-0.8040;
29.1000;0.0912;-0.7972;
29.4000;0.0871;-0.8176;
29.7000;0.0879;-0.8131;
30.0000;0.0920;-0.8040;
30.3000;0.0904;-0.8018;
30.6000;0.0904;-0.8040;
30.9000;0.0887;-0.8086;
31.2000;0.0904;-0.8040;
31.5000;0.0806;-0.8290;
31.8000;0.0928;-0.8086;
32.1000;0.0895;-0.8131;
32.4000;0.0920;-0.8063;
32.7000;0.0977;-0.7950;
33.0000;0.0879;-0.8244;
33.3000;0.0969;-0.8018;
33.6000;0.0904;-0.8176;
33.9000;0.0912;-0.8108;
34.2000;0.0879;-0.8199;
34.5000;0.0895;-0.8131;
34.8000;0.0895;-0.8086;
35.1000;0.0912;-0.8040;
35.4000;0.0904;-0.8108;
35.7000;0.0912;-0.8063;
36.0000;0.0895;-0.8040;
36.3000;0.0904;-0.8018;
36.6000;0.0895;-0.7995;
36.9000;0.0879;-0.8040;
37.2000;0.0961;-0.7859;
37.5000;0.0904;-0.8108;
37.8000;0.0887;-0.8063;
38.1000;0.0904;-0.7995;
38.4000;0.0871;-0.8131;
38.7000;0.0879;-0.8086;
39.0000;0.0977;-0.7927;
39.3000;0.0904;-0.8154;
39.6000;0.0806;-0.8358;
39.9000;0.0879;-0.8131;
40.2000;0.0871;-0.8086;
40.5000;0.0920;-0.7995;
40.8000;0.0936;-0.7950;
41.1000;0.0920;-0.7927;
41.4000;0.0912;-0.7950;
41.7000;0.0863;-0.8018;
42.0000;0.0912;-0.7882;
42.3000;0.0920;-0.7882;
42.6000;0.0830;-0.8063;
42.9000;0.0879;-0.7927;
43.2000;0.0895;-0.8018;
43.5000;0.0879;-0.8018;
43.8000;0.0920;-0.8018;
44.1000;0.0904;-0.8040;
44.4000;0.0830;-0.8063;
44.7000;0.0887;-0.8018;
45.0000;0.0928;-0.7927;
45.3000;0.0920;-0.7972;
45.6000;0.0936;-0.7927;
45.9000;0.0944;-0.7859;
46.2000;0.0887;-0.7972;
46.5000;0.0895;-0.7972;
46.8000;0.0920;-0.7859;
47.1000;0.0887;-0.7905;
47.4000;0.0822;-0.8086;
47.7000;0.0920;-0.7723;
48.0000;0.0871;-0.7859;
48.3000;0.0871;-0.7882;
48.6000;0.0952;-0.7746;
48.9000;0.0895;-0.7769;
49.2000;0.0912;-0.7837;
49.5000;0.0863;-0.7905;
49.8000;0.0985;-0.7769;
50.1000;0.0928;-0.7814;
50.4000;0.0912;-0.7837;
50.7000;0.0887;-0.7814;
51.0000;0.0871;-0.7791;
51.3000;0.0895;-0.7814;
51.6000;0.0928;-0.7905;
51.9000;0.0904;-0.7927;
52.2000;0.0904;-0.7927;
52.5000;0.0904;-0.7859;
52.8000;0.0912;-0.7859;
53.1000;0.0879;-0.7950;
53.4000;0.0912;-0.7882;
53.7000;0.0912;-0.7837;
54.0000;0.0904;-0.7950;
54.3000;0.0887;-0.7950;
54.6000;0.0904;-0.7950;
54.9000;0.0920;-0.7950;
55.2000;0.0904;-0.8040;
55.5000;0.0912;-0.8086;
55.8000;0.0904;-0.7972;
56.1000;0.0887;-0.8040;
56.4000;0.0912;-0.7950;
56.7000;0.0904;-0.7950;
57.0000;0.0904;-0.7927;
57.3000;0.0920;-0.7927;
57.6000;0.0961;-0.7882;
57.9000;0.0904;-0.8018;
58.2000;0.0871;-0.8131;
58.5000;0.0895;-0.7972;
58.8000;0.0920;-0.7905;
59.1000;0.0912;-0.7882;
59.4000;0.0895;-0.7882;
59.7000;0.0912;-0.7837;
60.0000;0.0920;-0.7859;
60.3000;0.0920;-0.7837;
60.6000;0.0895;-0.7905;
60.9000;0.0887;-0.7905;
61.2000;0.0830;-0.7995;
61.5000;0.0920;-0.7859;
61.8000;0.0822;-0.8131;
62.1000;0.0904;-0.7927;
62.4000;0.0904;-0.7950;
62.7000;0.0895;-0.7950;
63.0000;0.0912;-0.7927;
63.3000;0.0879;-0.8040;
63.6000;0.0912;-0.7950;
63.9000;0.0936;-0.8018;
64.2000;0.0920;-0.7995;
64.5000;0.0887;-0.8018;
64.8000;0.0904;-0.7950;
65.1000;0.0936;-0.7927;
65.4000;0.0920;-0.7995;
65.7000;0.0912;-0.8086;
66.0000;0.0871;-0.8244;
66.3000;0.0936;-0.8131;
66.6000;0.0904;-0.8040;
66.9000;0.0879;-0.8086;
67.2000;0.0920;-0.7972;
67.5000;0.0912;-0.8018;
67.8000;0.0912;-0.7927;
68.1000;0.0936;-0.7791;
68.4000;0.0871;-0.7950;
68.7000;0.0904;-0.7927;
69.0000;0.0912;-0.7859;
69.3000;0.0904;-0.7859;
69.6000;0.0879;-0.7927;
69.9000;0.0879;-0.7859;
70.2000;0.0985;-0.7610;
70.5000;0.0912;-0.7746;
70.8000;0.0912;-0.7701;
71.1000;0.0920;-0.7655;
71.4000;0.0814;-0.7859;
71.7000;0.0920;-0.7633;
72.0000;0.0912;-0.7678;
72.3000;0.0895;-0.7769;
72.6000;0.0904;-0.7678;
72.9000;0.0887;-0.7746;
73.2000;0.0895;-0.7723;
73.5000;0.0904;-0.7723;
73.8000;0.0887;-0.7723;
74.1000;0.0855;-0.7791;
74.4000;0.0895;-0.7633;
74.7000;0.0936;-0.7542;
75.0000;0.0895;-0.7723;
75.3000;0.0912;-0.7633;
75.6000;0.0928;-0.7655;
75.9000;0.0920;-0.7678;
76.2000;0.0887;-0.7791;
76.5000;0.0904;-0.7723;
76.8000;0.0904;-0.7587;
77.1000;0.0920;-0.7610;
77.4000;0.0928;-0.7655;
77.7000;0.0822;-0.7905;
78.0000;0.0904;-0.7769;
78.3000;0.0895;-0.7837;
78.6000;0.0895;-0.7814;
78.9000;0.0936;-0.7701;
79.2000;0.0920;-0.7791;
79.5000;0.0969;-0.7723;
79.8000;0.0920;-0.7837;
80.1000;0.0895;-0.7859;
80.4000;0.0912;-0.7859;
80.7000;0.0879;-0.7837;
81.0000;0.0895;-0.7791;
81.3000;0.0944;-0.7655;
81.6000;0.0928;-0.7723;
81.9000;0.0936;-0.7723;
82.2000;0.0920;-0.7723;
82.5000;0.0944;-0.7633;
82.8000;0.0895;-0.7701;
83.1000;0.0904;-0.7678;
83.4000;0.0912;-0.7655;
83.7000;0.0920;-0.7655;
84.0000;0.0912;-0.7655;
84.3000;0.0977;-0.7519;
84.6000;0.1001;-0.7406;
84.9000;0.0920;-0.7587;
85.2000;0.0887;-0.7701;
85.5000;0.0912;-0.7633;
85.8000;0.0920;-0.7655;
86.1000;0.0887;-0.7814;
86.4000;0.0904;-0.7701;
86.7000;0.0895;-0.7678;
87.0000;0.0895;-0.7723;
87.3000;0.0904;-0.7746;
87.6000;0.0904;-0.7769;
87.9000;0.0928;-0.7610;
88.2000;0.0904;-0.7633;
88.5000;0.0920;-0.7701;
88.8000;0.0912;-0.7723;
89.1000;0.0952;-0.7587;
89.4000;0.0912;-0.7678;
89.7000;0.0928;-0.7769;
90.0000;0.0904;-0.7859;
90.3000;0.0904;-0.7905;
90.6000;0.0904;-0.7859;
90.9000;0.0895;-0.7859;
91.2000;0.0904;-0.7837;
91.5000;0.0904;-0.7837;
91.8000;0.0887;-0.7814;
92.1000;0.0871;-0.7814;
92.4000;0.0879;-0.7723;
92.7000;0.0814;-0.7814;
93.0000;0.0895;-0.7701;
93.3000;0.0887;-0.7746;
93.6000;0.0887;-0.7701;
93.9000;0.0887;-0.7678;
94.2000;0.0871;-0.7723;
94.5000;0.0895;-0.7633;
94.8000;0.0920;-0.7565;
95.1000;0.0912;-0.7542;
95.4000;0.0912;-0.7542;
95.7000;0.0904;-0.7452;
96.0000;0.0887;-0.7519;
96.3000;0.0879;-0.7610;
96.6000;0.0895;-0.7655;
96.9000;0.0855;-0.7791;
97.2000;0.0912;-0.7746;
97.5000;0.0912;-0.7723;
97.8000;0.0920;-0.7655;
98.1000;0.0912;-0.7678;
98.4000;0.0961;-0.7565;
98.7000;0.0895;-0.7746;
99.0000;0.0904;-0.7723;
99.3000;0.0904;-0.7769;
99.6000;0.0920;-0.7791;
99.9000;0.0895;-0.7837;
100.2000;0.0920;-0.7769;
100.5000;0.0977;-0.7587;
100.8000;0.1018;-0.7384;
101.1000;0.0879;-0.7769;
101.4000;0.0944;-0.7633;
101.7000;0.0863;-0.7769;
102.0000;0.0895;-0.7701;
102.3000;0.0904;-0.7587;
102.6000;0.0879;-0.7655;
102.9000;0.0912;-0.7655;
103.2000;0.0895;-0.7678;
103.5000;0.0765;-0.8018;
103.8000;0.0895;-0.7655;
104.1000;0.0895;-0.7633;
104.4000;0.0912;-0.7678;
104.7000;0.0920;-0.7723;
105.0000;0.0928;-0.7723;
105.3000;0.0871;-0.7814;
105.6000;0.0920;-0.7723;
105.9000;0.0912;-0.7791;
106.2000;0.0952;-0.7723;
106.5000;0.0855;-0.7882;
106.8000;0.0920;-0.7678;
107.1000;0.0904;-0.7769;
107.4000;0.0920;-0.7791;
107.7000;0.0904;-0.7882;
108.0000;0.0904;-0.7950;
108.3000;0.0936;-0.7814;
108.6000;0.1066;-0.7519;
108.9000;0.0904;-0.7972;
109.2000;0.0904;-0.7927;
109.5000;0.0887;-0.7859;
109.8000;0.0904;-0.7746;
110.1000;0.0920;-0.7655;
110.4000;0.0928;-0.7565;
110.7000;0.0904;-0.7565;
111.0000;0.0887;-0.7587;
111.3000;0.0928;-0.7542;
111.6000;0.0904;-0.7565;
111.9000;0.0895;-0.7587;
112.2000;0.0912;-0.7610;
112.5000;0.0855;-0.7723;
112.8000;0.0887;-0.7633;
113.1000;0.0912;-0.7587;
113.4000;0.0928;-0.7542;
113.7000;0.0871;-0.7655;
114.0000;0.0912;-0.7565;
114.3000;0.0887;-0.7610;
114.6000;0.1026;-0.7316;
114.9000;0.0912;-0.7633;
115.2000;0.0904;-0.7610;
115.5000;0.0928;-0.7587;
115.8000;0.0895;-0.7678;
116.1000;0.0920;-0.7678;
116.4000;0.0928;-0.7701;
116.7000;0.0936;-0.7746;
117.0000;0.0895;-0.7859;
117.3000;0.0912;-0.7814;
117.6000;0.0895;-0.7746;
117.9000;0.0985;-0.7519;
118.2000;0.0895;-0.7723;
118.5000;0.0871;-0.7791;
118.8000;0.0912;-0.7723;
119.1000;0.0904;-0.7723;
119.4000;0.0798;-0.8040;
119.7000;0.0904;-0.7791;
120.0000;0.0912;-0.7791;
120.3000;0.0895;-0.7859;
120.6000;0.0879;-0.7837;
120.9000;0.0977;-0.7678;
121.2000;0.0952;-0.7769;
121.5000;0.0904;-0.7882;
121.8000;0.0895;-0.7859;
122.1000;0.0879;-0.7995;
122.4000;0.0928;-0.7859;
122.7000;0.0838;-0.8086;
123.0000;0.0928;-0.7905;
123.3000;0.1001;-0.7701;
123.6000;0.0895;-0.7972;
123.9000;0.0863;-0.8063;
124.2000;0.0920;-0.7972;
124.5000;0.0814;-0.8290;
124.8000;0.0920;-0.7972;
125.1000;0.0912;-0.8040;
125.4000;0.0822;-0.8380;
125.7000;0.0781;-0.8493;
126.0000;0.0855;-0.8244;
126.3000;0.0887;-0.7995;
126.6000;0.0920;-0.7927;
126.9000;0.0887;-0.7905;
127.2000;0.0895;-0.7882;
127.5000;0.0847;-0.8040;
127.8000;0.0879;-0.7905;
128.1000;0.0920;-0.7791;
128.4000;0.0879;-0.7814;
128.7000;0.0920;-0.7701;
129.0000;0.0904;-0.7701;
129.3000;0.0928;-0.7678;
129.6000;0.0952;-0.7633;
129.9000;0.0912;-0.7769;
130.2000;0.0912;-0.7837;
130.5000;0.0895;-0.7905;
130.8000;0.0887;-0.7905;
131.1000;0.0985;-0.7746;
131.4000;0.0895;-0.7972;
131.7000;0.0904;-0.7950;
132.0000;0.0912;-0.7905;
132.3000;0.0952;-0.7746;
132.6000;0.0879;-0.7882;
132.9000;0.0887;-0.7882;
133.2000;0.0887;-0.7837;
133.5000;0.0912;-0.7701;
133.8000;0.0985;-0.7565;
134.1000;0.0879;-0.7769;
134.4000;0.0879;-0.7769;
134.7000;0.0920;-0.7587;
135.0000;0.0895;-0.7701;
135.3000;0.0904;-0.7723;
135.6000;0.0887;-0.7769;
135.9000;0.0912;-0.7610;
136.2000;0.0904;-0.7587;
136.5000;0.0912;-0.7519;
136.8000;0.0879;-0.7633;
137.1000;0.0904;-0.7655;
137.4000;0.0879;-0.7791;
137.7000;0.0920;-0.7655;
138.0000;0.0912;-0.7678;
138.3000;0.0920;-0.7746;
138.6000;0.0912;-0.7814;
138.9000;0.0879;-0.7837;
139.2000;0.0904;-0.7882;
139.5000;0.0806;-0.8018;
139.8000;0.0822;-0.8108;
140.1000;0.0920;-0.7882;
140.4000;0.0863;-0.8040;
140.7000;0.0838;-0.8108;
141.0000;0.0936;-0.7905;
141.3000;0.0952;-0.7837;
141.6000;0.0920;-0.7882;
141.9000;0.0895;-0.7950;
142.2000;0.0781;-0.8154;
142.5000;0.0879;-0.7995;
142.8000;0.0798;-0.8199;
143.1000;0.0904;-0.7972;
143.4000;0.0838;-0.8154;
143.7000;0.0887;-0.7995;
144.0000;0.0912;-0.7882;
144.3000;0.0895;-0.7950;
144.6000;0.0912;-0.7859;
144.9000;0.0879;-0.7950;
145.2000;0.0952;-0.7769;
145.5000;0.0895;-0.7905;
145.8000;0.0912;-0.7905;
146.1000;0.0879;-0.7995;
146.4000;0.0920;-0.7905;
146.7000;0.0871;-0.7950;
147.0000;0.0912;-0.7882;
147.3000;0.0985;-0.7791;
147.6000;0.0912;-0.7995;
147.9000;0.0912;-0.8018;
148.2000;0.0887;-0.8086;
148.5000;0.0944;-0.7859;
148.8000;0.0871;-0.8018;
149.1000;0.0814;-0.8108;
149.4000;0.0928;-0.7837;
149.7000;0.0977;-0.7678;
150.0000;0.0928;-0.7769;
150.3000;0.0912;-0.7814;
150.6000;0.0895;-0.7769;
150.9000;0.0904;-0.7791;
151.2000;0.0912;-0.7746;
151.5000;0.0912;-0.7746;
151.8000;0.0895;-0.7769;
152.1000;0.0895;-0.7701;
152.4000;0.0879;-0.7746;
152.7000;0.0895;-0.7791;
153.0000;0.0936;-0.7701;
153.3000;0.0904;-0.7814;
153.6000;0.0863;-0.7927;
153.9000;0.0879;-0.7905;
154.2000;0.0920;-0.7882;
154.5000;0.0936;-0.7837;
154.8000;0.0855;-0.7995;
155.1000;0.0944;-0.7859;
155.4000;0.0936;-0.7837;
155.7000;0.0904;-0.7859;
156.0000;0.0904;-0.7814;
156.3000;0.0879;-0.7791;
156.6000;0.0887;-0.7769;
156.9000;0.0895;-0.7701;
157.2000;0.0887;-0.7769;
157.5000;0.0895;-0.7769;
157.8000;0.0871;-0.7701;
158.1000;0.0895;-0.7746;
158.4000;0.0928;-0.7678;
158.7000;0.1018;-0.7406;
159.0000;0.0928;-0.7655;
159.3000;0.0871;-0.7701;
159.6000;0.0928;-0.7565;
159.9000;0.0887;-0.7610;
160.2000;0.0887;-0.7723;
160.5000;0.0887;-0.7791;
160.8000;0.0944;-0.7633;
161.1000;0.0904;-0.7814;
161.4000;0.0895;-0.7723;
161.7000;0.0855;-0.7950;
162.0000;0.0928;-0.7746;
162.3000;0.0887;-0.7814;
162.6000;0.0920;-0.7769;
162.9000;0.0912;-0.7814;
163.2000;0.0912;-0.7814;
163.5000;0.0830;-0.7972;
163.8000;0.0830;-0.8086;
164.1000;0.1018;-0.7701;
164.4000;0.0993;-0.7701;
164.7000;0.0863;-0.8063;
165.0000;0.0936;-0.7950;
165.3000;0.0887;-0.7950;
165.6000;0.0920;-0.7905;
165.9000;0.0871;-0.7995;
166.2000;0.0912;-0.7950;
166.5000;0.0928;-0.7859;
166.8000;0.0912;-0.7882;
167.1000;0.0895;-0.7882;
167.4000;0.0887;-0.7882;
167.7000;0.0887;-0.7882;
168.0000;0.0887;-0.7927;
168.3000;0.0944;-0.7791;
168.6000;0.0977;-0.7723;
168.9000;0.0961;-0.7769;
169.2000;0.0920;-0.7859;
169.5000;0.0985;-0.7565;
169.8000;0.0912;-0.7769;
170.1000;0.0895;-0.7814;
170.4000;0.0904;-0.7837;
170.7000;0.0887;-0.7859;
171.0000;0.0920;-0.7769;
171.3000;0.0895;-0.7837;
171.6000;0.0912;-0.7859;
171.9000;0.0912;-0.7746;
172.2000;0.0912;-0.7859;
172.5000;0.0838;-0.8040;
172.8000;0.0879;-0.7882;
173.1000;0.0895;-0.7905;
173.4000;0.0912;-0.7814;
173.7000;0.0895;-0.7882;
174.0000;0.0928;-0.7791;
174.3000;0.0912;-0.7769;
174.6000;0.0920;-0.7814;
174.9000;0.0928;-0.7837;
175.2000;0.0871;-0.8018;
175.5000;0.0904;-0.8018;
175.8000;0.0904;-0.7950;
176.1000;0.0912;-0.8040;
176.4000;0.0944;-0.7950;
176.7000;0.0920;-0.7995;
177.0000;0.0912;-0.7995;
177.3000;0.0944;-0.7882;
177.6000;0.0887;-0.7927;
177.9000;0.0887;-0.7927;
178.2000;0.0912;-0.7837;
178.5000;0.0879;-0.7927;
178.8000;0.0887;-0.7950;
179.1000;0.0895;-0.7927;
179.4000;0.0871;-0.8018;
179.7000;0.0936;-0.7814;
180.0000;0.0920;-0.7859;
180.3000;0.0814;-0.8108;
180.6000;0.0912;-0.7905;
180.9000;0.0912;-0.7905;
181.2000;0.0928;-0.7905;
181.5000;0.0904;-0.8018;
181.8000;0.0879;-0.7995;
182.1000;0.0912;-0.7927;
182.4000;0.0912;-0.7927;
182.7000;0.0904;-0.7905;
183.0000;0.0904;-0.7905;
183.3000;0.0904;-0.7972;
183.6000;0.0887;-0.8018;
183.9000;0.0879;-0.8040;
184.2000;0.0895;-0.8040;
184.5000;0.0920;-0.7905;
184.8000;0.0863;-0.7995;
185.1000;0.0912;-0.7882;
185.4000;0.0969;-0.7769;
185.7000;0.0895;-0.7995;
186.0000;0.0912;-0.7927;
186.3000;0.0904;-0.7927;
186.6000;0.0895;-0.7927;
186.9000;0.0904;-0.7837;
187.2000;0.0920;-0.7791;
187.5000;0.0887;-0.7882;
187.8000;0.0887;-0.7859;
188.1000;0.0887;-0.7882;
188.4000;0.0855;-0.7995;
188.7000;0.0936;-0.7859;
189.0000;0.0904;-0.7905;
189.3000;0.0912;-0.7927;
189.6000;0.0920;-0.7927;
189.9000;0.0928;-0.7972;
190.2000;0.0904;-0.7927;
190.5000;0.0904;-0.7882;
190.8000;0.0904;-0.7859;
191.1000;0.0952;-0.7769;
191.4000;0.0904;-0.7837;
191.7000;0.0863;-0.7927;
192.0000;0.0904;-0.7859;
192.3000;0.0895;-0.7837;
192.6000;0.0912;-0.7859;
192.9000;0.0895;-0.7927;
193.2000;0.0895;-0.7837;
193.5000;0.0904;-0.7905;
193.8000;0.0920;-0.7950;
194.1000;0.0895;-0.8018;
194.4000;0.0904;-0.7950;
194.7000;0.0912;-0.7927;
195.0000;0.0912;-0.7905;
195.3000;0.0920;-0.7882;
195.6000;0.0936;-0.7882;
195.9000;0.0928;-0.7837;
196.2000;0.0936;-0.7769;
196.5000;0.0838;-0.8018;
196.8000;0.0887;-0.7927;
197.1000;0.0912;-0.7859;
197.4000;0.0920;-0.7837;
197.7000;0.0879;-0.7972;
198.0000;0.0887;-0.8040;
198.3000;0.0838;-0.8176;
198.6000;0.0781;-0.8312;
198.9000;0.0904;-0.7950;
199.2000;0.0969;-0.7746;
199.5000;0.0895;-0.7995;
199.8000;0.0887;-0.8108;
200.1000;0.0920;-0.7972;
200.4000;0.0879;-0.8063;
200.7000;0.0936;-0.7927;
201.0000;0.0855;-0.8040;
201.3000;0.0871;-0.7972;
201.6000;0.0920;-0.7859;
201.9000;0.0977;-0.7769;
202.2000;0.0912;-0.7905;
202.5000;0.0912;-0.7927;
202.8000;0.0879;-0.7995;
203.1000;0.0895;-0.7905;
203.4000;0.0895;-0.7882;
203.7000;0.0904;-0.7859;
204.0000;0.0757;-0.8176;
204.3000;0.0855;-0.7905;
204.6000;0.0904;-0.7837;
204.9000;0.0904;-0.7882;
205.2000;0.0822;-0.7972;
205.5000;0.0920;-0.7723;
205.8000;0.0904;-0.7746;
206.1000;0.0904;-0.7859;
206.4000;0.0928;-0.7859;
206.7000;0.0904;-0.7927;
207.0000;0.0879;-0.7927;
207.3000;0.0871;-0.7972;
207.6000;0.0912;-0.7950;
207.9000;0.0887;-0.7927;
208.2000;0.0912;-0.7927;
208.5000;0.0904;-0.7927;
208.8000;0.0904;-0.7995;
209.1000;0.0928;-0.7950;
209.4000;0.0912;-0.7927;
209.7000;0.0798;-0.8312;
210.0000;0.0920;-0.7950;
210.3000;0.0912;-0.7927;
210.6000;0.0912;-0.7882;
210.9000;0.0904;-0.7837;
211.2000;0.0912;-0.7882;
211.5000;0.0904;-0.7882;
211.8000;0.0887;-0.7905;
212.1000;0.0912;-0.7746;
212.4000;0.0895;-0.7814;
212.7000;0.0928;-0.7859;
213.0000;0.0904;-0.8040;
213.3000;0.0871;-0.8086;
213.6000;0.0887;-0.8018;
213.9000;0.0920;-0.7950;
214.2000;0.0904;-0.7905;
214.5000;0.0912;-0.7769;
214.8000;0.0887;-0.7882;
215.1000;0.0895;-0.7882;
215.4000;0.0887;-0.7972;
215.7000;0.0936;-0.7791;
216.0000;0.0912;-0.7837;
216.3000;0.0912;-0.7791;
216.6000;0.0855;-0.7905;
216.9000;0.0920;-0.7791;
217.2000;0.0920;-0.7723;
217.5000;0.0936;-0.7610;
217.8000;0.0928;-0.7655;
218.1000;0.0928;-0.7723;
218.4000;0.0895;-0.7814;
218.7000;0.0822;-0.7905;
219.0000;0.0904;-0.7723;
219.3000;0.0895;-0.7769;
219.6000;0.0895;-0.7837;
219.9000;0.0895;-0.7882;
220.2000;0.0912;-0.7859;
220.5000;0.0904;-0.7927;
220.8000;0.0895;-0.7995;
221.1000;0.0887;-0.7995;
221.4000;0.0920;-0.7905;
221.7000;0.0912;-0.7950;
222.0000;0.0887;-0.7950;
222.3000;0.0887;-0.7950;
222.6000;0.0936;-0.7905;
222.9000;0.0895;-0.7927;
223.2000;0.0912;-0.7905;
223.5000;0.0895;-0.7905;
223.8000;0.1018;-0.7610;
224.1000;0.0920;-0.7837;
224.4000;0.0895;-0.7859;
224.7000;0.0887;-0.7882;
225.0000;0.0920;-0.7814;
225.3000;0.0936;-0.7746;
225.6000;0.0887;-0.7859;
225.9000;0.0904;-0.7769;
226.2000;0.0912;-0.7814;
226.5000;0.1001;-0.7565;
226.8000;0.0871;-0.7837;
227.1000;0.0912;-0.7769;
227.4000;0.0944;-0.7701;
227.7000;0.0928;-0.7655;
228.0000;0.0961;-0.7678;
228.3000;0.0936;-0.7678;
228.6000;0.0895;-0.7837;
228.9000;0.0928;-0.7769;
229.2000;0.0895;-0.7882;
229.5000;0.0904;-0.7882;
229.8000;0.0895;-0.7882;
230.1000;0.0969;-0.7814;
230.4000;0.0936;-0.7972;
230.7000;0.0961;-0.7995;
231.0000;0.0904;-0.8018;
231.3000;0.0912;-0.7995;
231.6000;0.0887;-0.8108;
231.9000;0.0912;-0.8040;
232.2000;0.0895;-0.8131;
232.5000;0.0977;-0.7972;
232.8000;0.0912;-0.8040;
233.1000;0.0928;-0.7859;
233.4000;0.0985;-0.7701;
233.7000;0.0871;-0.8040;
234.0000;0.0904;-0.7950;
234.3000;0.0912;-0.7927;
234.6000;0.0904;-0.8018;
234.9000;0.0895;-0.7995;
235.2000;0.0879;-0.7995;
235.5000;0.0920;-0.7927;
235.8000;0.1018;-0.7701;
236.1000;0.0904;-0.7950;
236.4000;0.0993;-0.7723;
236.7000;0.0904;-0.7950;
237.0000;0.0895;-0.7972;
237.3000;0.0871;-0.8018;
237.6000;0.0871;-0.7972;
237.9000;0.0895;-0.7950;
238.2000;0.0904;-0.7927;
238.5000;0.0887;-0.7950;
238.8000;0.0936;-0.7882;
239.1000;0.0895;-0.7882;
239.4000;0.0847;-0.8040;
239.7000;0.0895;-0.7927;
240.0000;0.0904;-0.7814;
240.3000;0.0985;-0.7701;
240.6000;0.0855;-0.7972;
240.9000;0.0920;-0.7927;
241.2000;0.0920;-0.7882;
241.5000;0.0790;-0.8267;
241.8000;0.0928;-0.7859;
242.1000;0.0912;-0.7882;
242.4000;0.0928;-0.7950;
242.7000;0.0912;-0.8063;
243.0000;0.0887;-0.8018;
243.3000;0.0928;-0.8040;
243.6000;0.0863;-0.8199;
243.9000;0.0920;-0.8086;
244.2000;0.0863;-0.8222;
244.5000;0.0928;-0.8018;
244.8000;0.0887;-0.8131;
245.1000;0.0928;-0.8018;
245.4000;0.0895;-0.7972;
245.7000;0.0912;-0.7882;
246.0000;0.0920;-0.7950;
246.3000;0.0912;-0.7950;
246.6000;0.0928;-0.7950;
246.9000;0.0936;-0.7950;
247.2000;0.0887;-0.7995;
247.5000;0.0928;-0.7905;
247.8000;0.0855;-0.7995;
248.1000;0.0895;-0.7927;
248.4000;0.0920;-0.7859;
248.7000;0.0928;-0.7746;
249.0000;0.0928;-0.7610;
249.3000;0.0936;-0.7587;
249.6000;0.0912;-0.7655;
249.9000;0.0920;-0.7633;
250.2000;0.0879;-0.7814;
250.5000;0.0944;-0.7723;
250.8000;0.0863;-0.7905;
251.1000;0.0912;-0.7723;
251.4000;0.0920;-0.7701;
251.7000;0.0920;-0.7791;
252.0000;0.0961;-0.7701;
252.3000;0.0895;-0.7859;
252.6000;0.0969;-0.7746;
252.9000;0.0904;-0.7950;
253.2000;0.0936;-0.7927;
253.5000;0.0920;-0.7882;
253.8000;0.0912;-0.7859;
254.1000;0.0887;-0.7905;
254.4000;0.1034;-0.7542;
254.7000;0.0895;-0.7814;
255.0000;0.0895;-0.7837;
255.3000;0.0855;-0.7859;
255.6000;0.0879;-0.7837;
255.9000;0.0944;-0.7723;
256.2000;0.0904;-0.7791;
256.5000;0.0863;-0.7972;
256.8000;0.1083;-0.7384;
257.1000;0.0920;-0.7837;
257.4000;0.0936;-0.7746;
257.7000;0.0871;-0.7972;
258.0000;0.0912;-0.7746;
258.3000;0.0904;-0.7791;
258.6000;0.0879;-0.7972;
258.9000;0.0920;-0.7950;
259.2000;0.0895;-0.8063;
259.5000;0.0830;-0.8108;
259.8000;0.0895;-0.7972;
260.1000;0.0912;-0.7859;
260.4000;0.0871;-0.7927;
260.7000;0.0904;-0.7814;
261.0000;0.0912;-0.7859;
261.3000;0.0928;-0.7950;
261.6000;0.0904;-0.7995;
261.9000;0.0912;-0.7972;
262.2000;0.0895;-0.7995;
262.5000;0.0904;-0.7995;
262.8000;0.0863;-0.8086;
263.1000;0.0895;-0.8063;
263.4000;0.0863;-0.8063;
263.7000;0.0895;-0.8018;
264.0000;0.0904;-0.7995;
264.3000;0.0895;-0.8063;
264.6000;0.0895;-0.7972;
264.9000;0.0904;-0.7972;
265.2000;0.0887;-0.7950;
265.5000;0.0847;-0.8086;
265.8000;0.0912;-0.7927;
266.1000;0.0912;-0.7859;
266.4000;0.0928;-0.7746;
266.7000;0.0912;-0.7814;
267.0000;0.0904;-0.7837;
267.3000;0.0912;-0.7837;
267.6000;0.0887;-0.7927;
267.9000;0.0904;-0.7905;
268.2000;0.0904;-0.7950;
268.5000;0.0920;-0.7859;
268.8000;0.0887;-0.7972;
269.1000;0.0936;-0.7814;
269.4000;0.0887;-0.7972;
269.7000;0.0887;-0.7995;
270.0000;0.0895;-0.7995;
270.3000;0.0928;-0.7882;
270.6000;0.0920;-0.7859;
270.9000;0.0920;-0.7905;
271.2000;0.0912;-0.7859;
271.5000;0.0920;-0.7859;
271.8000;0.0838;-0.8108;
272.1000;0.0912;-0.7972;
272.4000;0.0977;-0.7927;
272.7000;0.0887;-0.8086;
273.0000;0.0887;-0.8063;
273.3000;0.0912;-0.7995;
273.6000;0.0895;-0.8040;
273.9000;0.0928;-0.7972;
274.2000;0.0879;-0.8131;
274.5000;0.0904;-0.8108;
274.8000;0.0822;-0.8312;
275.1000;0.0952;-0.7950;
275.4000;0.0887;-0.8040;
275.7000;0.0928;-0.8018;
276.0000;0.0912;-0.8040;
276.3000;0.0887;-0.7995;
276.6000;0.0912;-0.7837;
276.9000;0.0887;-0.7882;
277.2000;0.0895;-0.7882;
277.5000;0.0961;-0.7746;
277.8000;0.0920;-0.7882;
278.1000;0.0887;-0.7905;
278.4000;0.0798;-0.8154;
278.7000;0.0928;-0.7814;
279.0000;0.0936;-0.7769;
279.3000;0.0936;-0.7746;
279.6000;0.0895;-0.7791;
279.9000;0.0920;-0.7723;
280.2000;0.0904;-0.7723;
280.5000;0.0838;-0.7927;
280.8000;0.0904;-0.7814;
281.1000;0.0912;-0.7791;
281.4000;0.0855;-0.7972;
281.7000;0.0944;-0.7837;
282.0000;0.0920;-0.7882;
282.3000;0.0863;-0.7950;
282.6000;0.0847;-0.8131;
282.9000;0.0952;-0.7814;
283.2000;0.0887;-0.7927;
283.5000;0.0887;-0.7972;
283.8000;0.0912;-0.7950;
284.1000;0.0855;-0.8131;
284.4000;0.0895;-0.7972;
284.7000;0.0904;-0.7859;
285.0000;0.0920;-0.7814;
285.3000;0.0887;-0.7905;
285.6000;0.0936;-0.7950;
285.9000;0.0920;-0.7972;
286.2000;0.0920;-0.7972;
286.5000;0.0904;-0.7927;
286.8000;0.0904;-0.7927;
287.1000;0.0904;-0.7995;
287.4000;0.0895;-0.7927;
287.7000;0.0912;-0.7905;
288.0000;0.0904;-0.7950;
288.3000;0.0863;-0.8063;
288.6000;0.0871;-0.8131;
288.9000;0.0928;-0.7950;
289.2000;0.0936;-0.7972;
289.5000;0.0863;-0.8086;
289.8000;0.0912;-0.7905;
290.1000;0.0895;-0.7950;
290.4000;0.0904;-0.7905;
290.7000;0.0887;-0.7882;
291.0000;0.0904;-0.7791;
291.3000;0.0904;-0.7814;
291.6000;0.0895;-0.7905;
291.9000;0.0887;-0.7927;
292.2000;0.0928;-0.7769;
292.5000;0.0936;-0.7791;
292.8000;0.0912;-0.7814;
293.1000;0.0904;-0.7882;
293.4000;0.0895;-0.7905;
293.7000;0.0879;-0.7950;
294.0000;0.0952;-0.7859;
294.3000;0.0912;-0.7882;
294.6000;0.0895;-0.8040;
294.9000;0.0863;-0.8108;
295.2000;0.0895;-0.8063;
295.5000;0.0928;-0.7950;
295.8000;0.0928;-0.8018;
296.1000;0.0920;-0.7995;
296.4000;0.0912;-0.7905;
296.7000;0.0855;-0.8018;
297.0000;0.0814;-0.8222;
297.3000;0.0920;-0.7995;
297.6000;0.0904;-0.7972;
297.9000;0.0904;-0.7905;
298.2000;0.0920;-0.7814;
298.5000;0.1074;-0.7338;
298.8000;0.0952;-0.7655;
299.1000;0.0871;-0.7837;
299.4000;0.0855;-0.7927;
299.7000;0.0830;-0.7972;
300.0000;0.0920;-0.7814;
300.3000;0.0904;-0.7791;
300.6000;0.0920;-0.7791;
300.9000;0.0936;-0.7769;
301.2000;0.0904;-0.7769;
301.5000;0.0904;-0.7746;
301.8000;0.0920;-0.7814;
302.1000;0.0920;-0.7746;
302.4000;0.0895;-0.7723;
302.7000;0.0895;-0.7814;
303.0000;0.0895;-0.7927;
303.3000;0.0895;-0.7927;
303.6000;0.0904;-0.7972;
303.9000;0.0895;-0.8040;
304.2000;0.0887;-0.8040;
304.5000;0.0969;-0.7814;
304.8000;0.0920;-0.7905;
305.1000;0.0912;-0.7950;
305.4000;0.0895;-0.7972;
305.7000;0.0944;-0.7905;
306.0000;0.0936;-0.7927;
306.3000;0.0847;-0.8154;
306.6000;0.0928;-0.7905;
306.9000;0.0895;-0.7950;
307.2000;0.0879;-0.7905;
307.5000;0.0944;-0.7837;
307.8000;0.0887;-0.7950;
308.1000;0.0912;-0.7859;
308.4000;0.0912;-0.7882;
308.7000;0.0904;-0.7905;
309.0000;0.0904;-0.7882;
309.3000;0.0912;-0.7882;
309.6000;0.0887;-0.7927;
309.9000;0.0887;-0.7882;
310.2000;0.0904;-0.7814;
310.5000;0.0912;-0.7791;
310.8000;0.0961;-0.7610;
311.1000;0.0912;-0.7701;
311.4000;0.1026;-0.7452;
311.7000;0.0895;-0.7814;
312.0000;0.0895;-0.7814;
312.3000;0.0928;-0.7769;
312.6000;0.0936;-0.7723;
312.9000;0.0920;-0.7859;
313.2000;0.0912;-0.7859;
313.5000;0.0838;-0.8086;
313.8000;0.0912;-0.7859;
314.1000;0.0904;-0.7882;
314.4000;0.0895;-0.7791;
314.7000;0.0830;-0.7972;
315.0000;0.0904;-0.7814;
315.3000;0.0912;-0.7882;
315.6000;0.0871;-0.7927;
315.9000;0.0936;-0.7859;
316.2000;0.0961;-0.7723;
316.5000;0.0887;-0.7950;
316.8000;0.0936;-0.7701;
317.1000;0.0912;-0.7746;
317.4000;0.0895;-0.7791;
317.7000;0.0904;-0.7791;
318.0000;0.0912;-0.7701;
318.3000;0.0904;-0.7746;
318.6000;0.0936;-0.7655;
318.9000;0.0895;-0.7791;
319.2000;0.0904;-0.7837;
319.5000;0.0920;-0.7859;
319.8000;0.0912;-0.7837;
320.1000;0.0904;-0.7837;
320.4000;0.0895;-0.7859;
320.7000;0.0912;-0.7791;
321.0000;0.0904;-0.7837;
321.3000;0.0912;-0.7769;
321.6000;0.0920;-0.7814;
321.9000;0.0790;-0.8199;
322.2000;0.0920;-0.7814;
322.5000;0.0887;-0.7859;
322.8000;0.0847;-0.8063;
323.1000;0.0895;-0.7882;
323.4000;0.0904;-0.7859;
323.7000;0.0912;-0.7769;
324.0000;0.0863;-0.7882;
324.3000;0.0895;-0.7859;
324.6000;0.0904;-0.7905;
324.9000;0.0904;-0.7882;
325.2000;0.0887;-0.7905;
325.5000;0.0920;-0.7837;
325.8000;0.0895;-0.7905;
326.1000;0.0904;-0.7882;
326.4000;0.0887;-0.7859;
326.7000;0.0895;-0.7859;
327.0000;0.0855;-0.7972;
327.3000;0.0895;-0.7859;
327.6000;0.0961;-0.7701;
327.9000;0.0871;-0.7837;
328.2000;0.0912;-0.7701;
328.5000;0.0904;-0.7678;
328.8000;0.0944;-0.7610;
329.1000;0.0895;-0.7769;
329.4000;0.0904;-0.7791;
329.7000;0.0928;-0.7769;
330.0000;0.0895;-0.7769;
330.3000;0.0847;-0.7927;
330.6000;0.0928;-0.7837;
330.9000;0.0920;-0.7791;
331.2000;0.0944;-0.7769;
331.5000;0.0879;-0.7905;
331.8000;0.0887;-0.7814;
332.1000;0.0904;-0.7791;
332.4000;0.0912;-0.7837;
332.7000;0.0920;-0.7701;
333.0000;0.0895;-0.7814;
333.3000;0.0936;-0.7655;
333.6000;0.0928;-0.7701;
333.9000;0.0904;-0.7678;
334.2000;0.0879;-0.7769;
334.5000;0.0920;-0.7701;
334.8000;0.0895;-0.7746;
335.1000;0.0895;-0.7791;
335.4000;0.0895;-0.7791;
335.7000;0.0912;-0.7882;
336.0000;0.0904;-0.7927;
336.3000;0.0904;-0.7882;
336.6000;0.0871;-0.7995;
336.9000;0.0904;-0.7814;
337.2000;0.0912;-0.7814;
337.5000;0.0904;-0.7814;
337.8000;0.0895;-0.7905;
338.1000;0.0912;-0.7905;
338.4000;0.0936;-0.7814;
338.7000;0.0920;-0.7882;
339.0000;0.0904;-0.7882;
339.3000;0.0879;-0.7950;
339.6000;0.0936;-0.7905;
339.9000;0.0912;-0.7905;
340.2000;0.0936;-0.7837;
340.5000;0.0920;-0.7837;
340.8000;0.0847;-0.8063;
341.1000;0.0912;-0.7927;
341.4000;0.0912;-0.7859;
341.7000;0.0904;-0.7814;
342.0000;0.1009;-0.7678;
342.3000;0.0944;-0.7905;
342.6000;0.0895;-0.8018;
342.9000;0.0887;-0.7995;
343.2000;0.0928;-0.7859;
343.5000;0.0871;-0.7927;
343.8000;0.0904;-0.7950;
344.1000;0.0871;-0.8086;
344.4000;0.0928;-0.7882;
344.7000;0.0936;-0.7927;
345.0000;0.0904;-0.7995;
345.3000;0.0887;-0.8018;
345.6000;0.0895;-0.8040;
345.9000;0.0904;-0.8086;
346.2000;0.0912;-0.7995;
346.5000;0.0912;-0.8040;
346.8000;0.0855;-0.8063;
347.1000;0.0887;-0.7995;
347.4000;0.0904;-0.7859;
347.7000;0.0895;-0.7814;
348.0000;0.0912;-0.7882;
348.3000;0.0969;-0.7723;
348.6000;0.0928;-0.7859;
348.9000;0.0871;-0.7927;
349.2000;0.0904;-0.7859;
349.5000;0.0863;-0.8040;
349.8000;0.0920;-0.7905;
350.1000;0.0920;-0.8018;
350.4000;0.0895;-0.8086;
350.7000;0.0895;-0.8086;
351.0000;0.0879;-0.8131;
351.3000;0.0912;-0.7972;
351.6000;0.0920;-0.7950;
351.9000;0.1009;-0.7769;
352.2000;0.0895;-0.7995;
352.5000;0.0961;-0.7814;
352.8000;0.0944;-0.7723;
353.1000;0.0912;-0.7746;
353.4000;0.0895;-0.7837;
353.7000;0.0904;-0.7814;
354.0000;0.0871;-0.7927;
354.3000;0.0895;-0.7905;
354.6000;0.0847;-0.8018;
354.9000;0.0887;-0.8018;
355.2000;0.0928;-0.8018;
355.5000;0.0928;-0.7995;
355.8000;0.0904;-0.8131;
356.1000;0.0895;-0.8018;
356.4000;0.0936;-0.7972;
356.7000;0.0904;-0.8018;
357.0000;0.0920;-0.7972;
357.3000;0.0847;-0.8108;
357.6000;0.0920;-0.7950;
357.9000;0.0904;-0.7950;
358.2000;0.0871;-0.7972;
358.5000;0.0928;-0.7972;
358.8000;0.0912;-0.7950;
359.1000;0.0895;-0.7972;
359.4000;0.0887;-0.8063;
359.7000;0.0887;-0.8108;
360.0000;0.0912;-0.8086;
360.3000;0.0895;-0.8108;
360.6000;0.0912;-0.8131;
360.9000;0.0814;-0.8267;
361.2000;0.0871;-0.8176;
361.5000;0.0928;-0.7972;
361.8000;0.0912;-0.7972;
362.1000;0.0912;-0.8063;
362.4000;0.0904;-0.7972;
362.7000;0.0904;-0.8018;
363.0000;0.0904;-0.7995;
363.3000;0.0904;-0.7905;
363.6000;0.1034;-0.7565;
363.9000;0.0830;-0.8086;
364.2000;0.0912;-0.7927;
364.5000;0.0887;-0.7972;
364.8000;0.0928;-0.7995;
365.1000;0.0904;-0.7995;
365.4000;0.0936;-0.7927;
365.7000;0.0887;-0.7950;
366.0000;0.0904;-0.7882;
366.3000;0.0920;-0.7837;
366.6000;0.0895;-0.7882;
366.9000;0.0928;-0.7814;
367.2000;0.0912;-0.7882;
367.5000;0.0920;-0.7837;
367.8000;0.0904;-0.7837;
368.1000;0.0895;-0.7814;
368.4000;0.0895;-0.7769;
368.7000;0.0887;-0.7837;
369.0000;0.0895;-0.7859;
369.3000;0.0830;-0.7995;
369.6000;0.0879;-0.7882;
369.9000;0.0912;-0.7859;
370.2000;0.0912;-0.7882;
370.5000;0.0944;-0.7746;
370.8000;0.0912;-0.7791;
371.1000;0.0887;-0.7905;
371.4000;0.0904;-0.7905;
371.7000;0.0928;-0.7859;
372.0000;0.0912;-0.7905;
372.3000;0.0920;-0.7882;
372.6000;0.0790;-0.8176;
372.9000;0.0920;-0.7859;
373.2000;0.0904;-0.7950;
373.5000;0.0887;-0.7905;
373.8000;0.0928;-0.7905;
374.1000;0.0912;-0.7950;
374.4000;0.0920;-0.7995;
374.7000;0.0904;-0.7995;
375.0000;0.0920;-0.7950;
375.3000;0.0904;-0.7995;
375.6000;0.0912;-0.8040;
375.9000;0.0887;-0.8154;
376.2000;0.0887;-0.8063;
376.5000;0.0887;-0.7950;
376.8000;0.0920;-0.7882;
377.1000;0.0928;-0.7837;
377.4000;0.0895;-0.7995;
377.7000;0.0887;-0.8040;
378.0000;0.0920;-0.7882;
378.3000;0.0920;-0.7950;
378.6000;0.0952;-0.7882;
378.9000;0.1042;-0.7678;
379.2000;0.0936;-0.7905;
379.5000;0.0912;-0.7950;
379.8000;0.0912;-0.8018;
380.1000;0.0895;-0.8018;
380.4000;0.0895;-0.7972;
380.7000;0.0928;-0.7950;
381.0000;0.0904;-0.7950;
381.3000;0.0895;-0.8018;
381.6000;0.0912;-0.7927;
381.9000;0.0830;-0.8131;
382.2000;0.0887;-0.7950;
382.5000;0.0920;-0.7905;
382.8000;0.0895;-0.7859;
383.1000;0.0887;-0.7905;
383.4000;0.0879;-0.7927;
383.7000;0.0765;-0.8199;
384.0000;0.0895;-0.7927;
384.3000;0.0895;-0.8018;
384.6000;0.0920;-0.7905;
384.9000;0.0920;-0.7882;
385.2000;0.0879;-0.7950;
385.5000;0.0944;-0.7837;
385.8000;0.0879;-0.7927;
386.1000;0.0904;-0.7882;
386.4000;0.0887;-0.7905;
386.7000;0.0928;-0.7882;
387.0000;0.0904;-0.7950;
387.3000;0.0936;-0.7837;
387.6000;0.0928;-0.7859;
387.9000;0.0920;-0.7905;
388.2000;0.0920;-0.7972;
388.5000;0.0887;-0.8040;
388.8000;0.0871;-0.8086;
389.1000;0.0977;-0.7905;
389.4000;0.0920;-0.8018;
389.7000;0.0912;-0.8063;
390.0000;0.0912;-0.8040;
390.3000;0.0977;-0.7882;
390.6000;0.0887;-0.8108;
390.9000;0.0895;-0.8108;
391.2000;0.0879;-0.8086;
391.5000;0.0928;-0.7905;
391.8000;0.0904;-0.7927;
392.1000;0.0904;-0.7950;
392.4000;0.0904;-0.7882;
392.7000;0.0936;-0.7859;
393.0000;0.0895;-0.7859;
393.3000;0.1058;-0.7361;
393.6000;0.0904;-0.7814;
393.9000;0.0887;-0.7859;
394.2000;0.0920;-0.7769;
394.5000;0.0895;-0.7746;
394.8000;0.0961;-0.7701;
395.1000;0.0912;-0.7769;
395.4000;0.1018;-0.7519;
395.7000;0.0895;-0.7791;
396.0000;0.0904;-0.7769;
396.3000;0.0961;-0.7655;
396.6000;0.0904;-0.7837;
396.9000;0.0912;-0.7746;
397.2000;0.0944;-0.7701;
397.5000;0.0855;-0.7882;
397.8000;0.0904;-0.7791;
398.1000;0.0912;-0.7882;
398.4000;0.0887;-0.7972;
398.7000;0.0871;-0.7950;
399.0000;0.0895;-0.7905;
399.3000;0.0912;-0.7746;
399.6000;0.0936;-0.7678;
399.9000;0.0895;-0.7791;
400.2000;0.0887;-0.7723;
400.5000;0.0887;-0.7837;
400.8000;0.0912;-0.7859;
401.1000;0.0798;-0.8108;
401.4000;0.0904;-0.7905;
401.7000;0.0912;-0.7882;
402.0000;0.0904;-0.7859;
402.3000;0.0904;-0.7837;
402.6000;0.0790;-0.8154;
402.9000;0.0920;-0.7859;
403.2000;0.0912;-0.7791;
403.5000;0.0895;-0.7859;
403.8000;0.0912;-0.7837;
404.1000;0.0920;-0.7791;
404.4000;0.0904;-0.7859;
404.7000;0.0904;-0.7882;
405.0000;0.0904;-0.7882;
405.3000;0.0887;-0.7905;
405.6000;0.0928;-0.7905;
405.9000;0.0765;-0.8267;
406.2000;0.0912;-0.7905;
406.5000;0.0904;-0.7882;
406.8000;0.0920;-0.7905;
407.1000;0.0912;-0.7927;
407.4000;0.0904;-0.7972;
407.7000;0.0912;-0.7950;
408.0000;0.0912;-0.7905;
408.3000;0.0928;-0.7791;
408.6000;0.0912;-0.7769;
408.9000;0.0944;-0.7655;
409.2000;0.0895;-0.7723;
409.5000;0.0879;-0.7791;
409.8000;0.0912;-0.7769;
410.1000;0.0912;-0.7791;
410.4000;0.0912;-0.7814;
410.7000;0.0895;-0.7837;
411.0000;0.0952;-0.7769;
411.3000;0.0895;-0.7927;
411.6000;0.0904;-0.7905;
411.9000;0.0879;-0.7950;
412.2000;0.0904;-0.7837;
412.5000;0.0895;-0.7837;
412.8000;0.1034;-0.7452;
413.1000;0.0838;-0.7972;
413.4000;0.0887;-0.7837;
413.7000;0.0887;-0.7882;
414.0000;0.0871;-0.7995;
414.3000;0.0863;-0.8040;
414.6000;0.0838;-0.8086;
414.9000;0.0904;-0.7927;
415.2000;0.0871;-0.7995;
415.5000;0.0879;-0.7950;
415.8000;0.0895;-0.7972;
416.1000;0.0936;-0.7927;
416.4000;0.0822;-0.8154;
416.7000;0.0912;-0.7905;
417.0000;0.0920;-0.7859;
417.3000;0.0985;-0.7746;
417.6000;0.0920;-0.7859;
417.9000;0.0920;-0.7859;
418.2000;0.0904;-0.7882;
418.5000;0.0969;-0.7633;
418.8000;0.0904;-0.7814;
419.1000;0.0920;-0.7746;
419.4000;0.0871;-0.7905;
419.7000;0.0895;-0.7950;
420.0000;0.0912;-0.7859;
420.3000;0.0871;-0.7882;
420.6000;0.0895;-0.7859;
420.9000;0.0912;-0.7837;
421.2000;0.0904;-0.7859;
421.5000;0.0912;-0.7882;
421.8000;0.0904;-0.7882;
422.1000;0.0904;-0.7859;
422.4000;0.0765;-0.8267;
422.7000;0.0952;-0.7769;
423.0000;0.0895;-0.7905;
423.3000;0.0863;-0.8018;
423.6000;0.0887;-0.7927;
423.9000;0.0822;-0.8040;
424.2000;0.0912;-0.7814;
424.5000;0.0912;-0.7905;
424.8000;0.0920;-0.7882;
425.1000;0.0928;-0.7905;
425.4000;0.0944;-0.7859;
425.7000;0.0912;-0.7859;
426.0000;0.0879;-0.7859;
426.3000;0.0879;-0.7950;
426.6000;0.0944;-0.7769;
426.9000;0.0952;-0.7837;
427.2000;0.0798;-0.8176;
427.5000;0.0904;-0.7859;
427.8000;0.0928;-0.7837;
428.1000;0.0920;-0.7814;
428.4000;0.0936;-0.7678;
428.7000;0.0920;-0.7655;
429.0000;0.0977;-0.7542;
429.3000;0.0920;-0.7723;
429.6000;0.0814;-0.8040;
429.9000;0.0936;-0.7701;
430.2000;0.0895;-0.7814;
430.5000;0.0895;-0.7905;
430.8000;0.0912;-0.7859;
431.1000;0.0879;-0.7859;
431.4000;0.0912;-0.7769;
431.7000;0.0904;-0.7814;
432.0000;0.0879;-0.7837;
432.3000;0.0798;-0.8063;
432.6000;0.0920;-0.7769;
432.9000;0.0904;-0.7791;
433.2000;0.0920;-0.7814;
433.5000;0.0887;-0.7905;
433.8000;0.0895;-0.7791;
434.1000;0.0912;-0.7791;
434.4000;0.0928;-0.7769;
434.7000;0.0830;-0.7995;
435.0000;0.0936;-0.7701;
435.3000;0.0895;-0.7723;
435.6000;0.0895;-0.7723;
435.9000;0.0871;-0.7791;
436.2000;0.0895;-0.7769;
436.5000;0.0912;-0.7678;
436.8000;0.0952;-0.7610;
437.1000;0.0904;-0.7701;
437.4000;0.0912;-0.7791;
437.7000;0.0830;-0.7927;
438.0000;0.0895;-0.7859;
438.3000;0.0838;-0.7905;
438.6000;0.0887;-0.7814;
438.9000;0.0928;-0.7769;
439.2000;0.0895;-0.7814;
439.5000;0.0944;-0.7678;
439.8000;0.0871;-0.7927;
440.1000;0.0904;-0.7814;
440.4000;0.0920;-0.7769;
440.7000;0.0928;-0.7791;
441.0000;0.0904;-0.7791;
441.3000;0.0969;-0.7587;
441.6000;0.0936;-0.7701;
441.9000;0.0944;-0.7701;
442.2000;0.0920;-0.7769;
442.5000;0.0912;-0.7882;
442.8000;0.0961;-0.7791;
443.1000;0.0895;-0.7927;
443.4000;0.0879;-0.8040;
443.7000;0.0977;-0.7882;
444.0000;0.0895;-0.8063;
444.3000;0.0904;-0.8063;
444.6000;0.0969;-0.7882;
444.9000;0.0814;-0.8222;
445.2000;0.0879;-0.8086;
445.5000;0.0920;-0.7905;
445.8000;0.0993;-0.7769;
446.1000;0.0863;-0.8086;
446.4000;0.0936;-0.7995;
446.7000;0.0936;-0.7950;
447.0000;0.0904;-0.7995;
447.3000;0.0969;-0.7859;
447.6000;0.0895;-0.7950;
447.9000;0.0920;-0.7950;
448.2000;0.0936;-0.7905;
448.5000;0.0912;-0.7950;
448.8000;0.0904;-0.7972;
449.1000;0.0863;-0.8108;
449.4000;0.0985;-0.7723;
449.7000;0.0871;-0.8063;
450.0000;0.0904;-0.7950;
450.3000;0.0936;-0.7995;
450.6000;0.0895;-0.7995;
450.9000;0.0838;-0.8199;
451.2000;0.0855;-0.8108;
451.5000;0.0895;-0.7972;
451.8000;0.0781;-0.8222;
452.1000;0.0895;-0.7995;
452.4000;0.0895;-0.8063;
452.7000;0.0887;-0.7972;
453.0000;0.0944;-0.7814;
453.3000;0.0912;-0.7905;
453.6000;0.0879;-0.7995;
453.9000;0.0887;-0.7837;
454.2000;0.0936;-0.7723;
454.5000;0.0928;-0.7791;
454.8000;0.0920;-0.7859;
455.1000;0.0912;-0.7905;
455.4000;0.0936;-0.7972;
455.7000;0.0912;-0.8086;
456.0000;0.0936;-0.8086;
456.3000;0.0887;-0.8131;
456.6000;0.0912;-0.7950;
456.9000;0.0895;-0.7972;
457.2000;0.0879;-0.8040;
457.5000;0.0895;-0.8018;
457.8000;0.0895;-0.7882;
458.1000;0.0912;-0.7837;
458.4000;0.0912;-0.7905;
458.7000;0.0912;-0.7837;
459.0000;0.0952;-0.7746;
459.3000;0.0928;-0.7814;
459.6000;0.0912;-0.7905;
459.9000;0.0887;-0.7905;
460.2000;0.0855;-0.8040;
460.5000;0.0928;-0.7905;
460.8000;0.0920;-0.7927;
461.1000;0.0887;-0.8108;
461.4000;0.0912;-0.8063;
461.7000;0.0912;-0.8040;
462.0000;0.0798;-0.8244;
462.3000;0.0920;-0.7972;
462.6000;0.0855;-0.8131;
462.9000;0.0928;-0.7905;
463.2000;0.0936;-0.7882;
463.5000;0.0895;-0.7950;
463.8000;0.0904;-0.7927;
464.1000;0.0912;-0.7927;
464.4000;0.0887;-0.7972;
464.7000;0.0928;-0.7905;
465.0000;0.0936;-0.7837;
465.3000;0.0920;-0.7882;
465.6000;0.0920;-0.7814;
465.9000;0.0928;-0.7882;
466.2000;0.0904;-0.7927;
466.5000;0.0912;-0.7950;
466.8000;0.0904;-0.8108;
467.1000;0.0895;-0.8154;
467.4000;0.0952;-0.7927;
467.7000;0.0895;-0.7972;
468.0000;0.0879;-0.7905;
468.3000;0.0912;-0.7746;
468.6000;0.0912;-0.7791;
468.9000;0.0936;-0.7678;
469.2000;0.0847;-0.7837;
469.5000;0.0904;-0.7746;
469.8000;0.0879;-0.7859;
470.1000;0.0871;-0.7859;
470.4000;0.0895;-0.7837;
470.7000;0.0944;-0.7882;
471.0000;0.0912;-0.7927;
471.3000;0.0912;-0.7882;
471.6000;0.0895;-0.7927;
471.9000;0.0912;-0.7859;
472.2000;0.1001;-0.7633;
472.5000;0.0920;-0.7859;
472.8000;0.0871;-0.7950;
473.1000;0.0912;-0.7837;
473.4000;0.0887;-0.7927;
473.7000;0.0912;-0.7905;
474.0000;0.0912;-0.7882;
474.3000;0.0920;-0.7814;
474.6000;0.0879;-0.7882;
474.9000;0.0904;-0.7859;
475.2000;0.0920;-0.7882;
475.5000;0.0871;-0.7927;
475.8000;0.0887;-0.7837;
476.1000;0.0895;-0.7927;
476.4000;0.0887;-0.7995;
476.7000;0.0895;-0.7950;
477.0000;0.0912;-0.7927;
477.3000;0.0904;-0.7972;
477.6000;0.0895;-0.7950;
477.9000;0.0920;-0.7972;
478.2000;0.0904;-0.7972;
478.5000;0.0928;-0.7905;
478.8000;0.0904;-0.8018;
479.1000;0.0895;-0.8063;
479.4000;0.0904;-0.8086;
479.7000;0.0920;-0.8086;
480.0000;0.0904;-0.8131;
480.3000;0.0887;-0.8131;
480.6000;0.0920;-0.8131;
480.9000;0.0912;-0.8222;
481.2000;0.0912;-0.8154;
481.5000;0.0887;-0.8244;
481.8000;0.0944;-0.8086;
482.1000;0.0912;-0.8222;
482.4000;0.0928;-0.8131;
482.7000;0.0904;-0.8131;
483.0000;0.0887;-0.8222;
483.3000;0.0969;-0.7972;
483.6000;0.0895;-0.8086;
483.9000;0.0887;-0.8199;
484.2000;0.0838;-0.8403;
484.5000;0.0912;-0.8222;
484.8000;0.0838;-0.8448;
485.1000;0.0847;-0.8425;
485.4000;0.0887;-0.8425;
485.7000;0.0961;-0.8176;
486.0000;0.0855;-0.8290;
486.3000;0.0920;-0.8063;
486.6000;0.0912;-0.8086;
486.9000;0.0912;-0.8063;
487.2000;0.0912;-0.7972;
487.5000;0.0895;-0.7995;
487.8000;0.0928;-0.7927;
488.1000;0.0895;-0.7905;
488.4000;0.0904;-0.7769;
488.7000;0.0928;-0.7746;
489.0000;0.0920;-0.7837;
489.3000;0.0912;-0.7882;
489.6000;0.0855;-0.8018;
489.9000;0.0904;-0.7859;
490.2000;0.0895;-0.7950;
490.5000;0.0912;-0.7905;
490.8000;0.0936;-0.7814;
491.1000;0.0912;-0.7905;
491.4000;0.0920;-0.7905;
491.7000;0.0895;-0.7882;
492.0000;0.0912;-0.7859;
492.3000;0.0912;-0.7837;
492.6000;0.0928;-0.7814;
492.9000;0.0928;-0.7769;
493.2000;0.0904;-0.7882;
493.5000;0.0920;-0.7837;
493.8000;0.0887;-0.7905;
494.1000;0.0904;-0.7882;
494.4000;0.0928;-0.7791;
494.7000;0.0928;-0.7814;
495.0000;0.0977;-0.7633;
495.3000;0.0912;-0.7814;
495.6000;0.0920;-0.7859;
495.9000;0.0904;-0.7859;
496.2000;0.0920;-0.7791;
496.5000;0.0895;-0.7791;
496.8000;0.0936;-0.7723;
497.1000;0.0904;-0.7769;
497.4000;0.0912;-0.7859;
497.7000;0.0904;-0.7837;
498.0000;0.0912;-0.7791;
498.3000;0.0904;-0.7882;
498.6000;0.0944;-0.7746;
498.9000;0.0887;-0.7882;
499.2000;0.0879;-0.7859;
499.5000;0.0912;-0.7905;
499.8000;0.0895;-0.7972;
500.1000;0.0887;-0.7950;
500.4000;0.0895;-0.7995;
500.7000;0.0871;-0.8018;
501.0000;0.0961;-0.7769;
501.3000;0.0936;-0.7950;
501.6000;0.0904;-0.8131;
501.9000;0.0895;-0.8086;
502.2000;0.0928;-0.8018;
502.5000;0.0928;-0.8040;
502.8000;0.0920;-0.8063;
503.1000;0.0895;-0.8131;
503.4000;0.0879;-0.8086;
503.7000;0.0871;-0.8108;
504.0000;0.0920;-0.7927;
504.3000;0.0904;-0.7927;
504.6000;0.0895;-0.7972;
504.9000;0.0952;-0.7837;
505.2000;0.0936;-0.7837;
505.5000;0.0879;-0.7972;
505.8000;0.0961;-0.7746;
506.1000;0.0904;-0.7882;
506.4000;0.0904;-0.7837;
506.7000;0.0920;-0.7701;
507.0000;0.0895;-0.7769;
507.3000;0.0895;-0.7746;
507.6000;0.0944;-0.7791;
507.9000;0.0920;-0.7837;
508.2000;0.0895;-0.7882;
508.5000;0.0928;-0.7769;
508.8000;0.0977;-0.7655;
509.1000;0.0904;-0.7837;
509.4000;0.0895;-0.7882;
509.7000;0.0879;-0.7950;
510.0000;0.0920;-0.7905;
510.3000;0.0814;-0.8154;
510.6000;0.0895;-0.7972;
510.9000;0.0936;-0.7837;
511.2000;0.0920;-0.7882;
511.5000;0.0944;-0.7814;
511.8000;0.0912;-0.7859;
512.1000;0.0863;-0.7972;
512.4000;0.0969;-0.7746;
512.7000;0.0920;-0.7837;
513.0000;0.0887;-0.7972;
513.3000;0.0912;-0.7905;
513.6000;0.0887;-0.7927;
513.9000;0.0887;-0.7905;
514.2000;0.0912;-0.7882;
514.5000;0.0863;-0.7927;
514.8000;0.0887;-0.7882;
515.1000;0.0912;-0.7837;
515.4000;0.0879;-0.7859;
515.7000;0.0904;-0.7814;
516.0000;0.0887;-0.7769;
516.3000;0.0928;-0.7701;
516.6000;0.0904;-0.7701;
516.9000;0.0928;-0.7723;
517.2000;0.0920;-0.7701;
517.5000;0.0904;-0.7746;
517.8000;0.0936;-0.7678;
518.1000;0.0912;-0.7769;
518.4000;0.0928;-0.7723;
518.7000;0.0920;-0.7814;
519.0000;0.0928;-0.7859;
519.3000;0.0928;-0.7837;
519.6000;0.0920;-0.7837;
519.9000;0.0895;-0.7882;
520.2000;0.0887;-0.7905;
520.5000;0.0936;-0.7905;
520.8000;0.0863;-0.8018;
521.1000;0.0855;-0.8086;
521.4000;0.0936;-0.7927;
521.7000;0.0912;-0.7995;
522.0000;0.0895;-0.7995;
522.3000;0.0912;-0.8063;
522.6000;0.0895;-0.8086;
522.9000;0.0895;-0.8040;
523.2000;0.0912;-0.7995;
523.5000;0.0904;-0.8063;
523.8000;0.0904;-0.8154;
524.1000;0.0920;-0.8176;
524.4000;0.0904;-0.8222;
524.7000;0.0838;-0.8380;
525.0000;0.0944;-0.8063;
525.3000;0.0912;-0.8176;
525.6000;0.0904;-0.8154;
525.9000;0.1009;-0.7859;
526.2000;0.0912;-0.8176;
526.5000;0.0944;-0.8040;
526.8000;0.0920;-0.8063;
527.1000;0.0904;-0.8108;
527.4000;0.0895;-0.8176;
527.7000;0.0912;-0.8176;
528.0000;0.0904;-0.8199;
528.3000;0.0920;-0.8086;
528.6000;0.0904;-0.8040;
528.9000;0.0904;-0.8086;
529.2000;0.0879;-0.8222;
529.5000;0.0895;-0.8199;
529.8000;0.0977;-0.7950;
530.1000;0.0904;-0.8086;
530.4000;0.0895;-0.8108;
530.7000;0.0904;-0.8108;
531.0000;0.0985;-0.7814;
531.3000;0.0887;-0.8040;
531.6000;0.0912;-0.7950;
531.9000;0.0895;-0.8063;
532.2000;0.0912;-0.8086;
532.5000;0.0912;-0.8086;
532.8000;0.0904;-0.8108;
533.1000;0.0944;-0.7950;
533.4000;0.0887;-0.8131;
533.7000;0.0895;-0.8086;
534.0000;0.0928;-0.8063;
534.3000;0.0847;-0.8154;
534.6000;0.0952;-0.7882;
534.9000;0.0920;-0.7882;
535.2000;0.0904;-0.7950;
535.5000;0.0952;-0.7882;
535.8000;0.0912;-0.7927;
536.1000;0.0904;-0.8040;
536.4000;0.0838;-0.8244;
536.7000;0.0912;-0.8018;
537.0000;0.0814;-0.8267;
537.3000;0.0895;-0.7972;
537.6000;0.0895;-0.7995;
537.9000;0.0895;-0.7950;
538.2000;0.0920;-0.7972;
538.5000;0.0904;-0.7927;
538.8000;0.0879;-0.8018;
539.1000;0.0822;-0.8176;
539.4000;0.0912;-0.7972;
539.7000;0.0920;-0.8040;
540.0000;0.0871;-0.8108;
540.3000;0.0863;-0.8086;
540.6000;0.0871;-0.8108;
540.9000;0.0912;-0.7950;
541.2000;0.0904;-0.7950;
541.5000;0.0936;-0.7859;
541.8000;0.0936;-0.7791;
542.1000;0.0993;-0.7655;
542.4000;0.0920;-0.7859;
542.7000;0.0879;-0.7995;
543.0000;0.0904;-0.8018;
543.3000;0.0904;-0.7950;
543.6000;0.0895;-0.7972;
543.9000;0.0871;-0.8018;
544.2000;0.0920;-0.7927;
544.5000;0.0904;-0.7972;
544.8000;0.0887;-0.8131;
545.1000;0.0920;-0.7995;
545.4000;0.0936;-0.7995;
545.7000;0.0912;-0.7972;
546.0000;0.0920;-0.7950;
546.3000;0.0904;-0.7995;
546.6000;0.0912;-0.7882;
546.9000;0.0928;-0.7814;
547.2000;0.0887;-0.7769;
547.5000;0.0838;-0.7950;
547.8000;0.0920;-0.7746;
548.1000;0.0904;-0.7814;
548.4000;0.0887;-0.7769;
548.7000;0.0895;-0.7814;
549.0000;0.0904;-0.7791;
549.3000;0.0904;-0.7791;
549.6000;0.0912;-0.7859;
549.9000;0.0912;-0.7723;
550.2000;0.0879;-0.7837;
550.5000;0.0855;-0.7905;
550.8000;0.0887;-0.7927;
551.1000;0.0904;-0.7882;
551.4000;0.0928;-0.7791;
551.7000;0.0879;-0.7837;
552.0000;0.0904;-0.7746;
552.3000;0.0904;-0.7746;
552.6000;0.0887;-0.7746;
552.9000;0.0887;-0.7746;
553.2000;0.0912;-0.7791;
553.5000;0.0904;-0.7723;
553.8000;0.0920;-0.7769;
554.1000;0.0904;-0.7814;
554.4000;0.0920;-0.7791;
554.7000;0.0830;-0.7995;
555.0000;0.0887;-0.7882;
555.3000;0.0928;-0.7746;
555.6000;0.0912;-0.7814;
555.9000;0.0895;-0.7837;
556.2000;0.0895;-0.7814;
556.5000;0.0920;-0.7837;
556.8000;0.0912;-0.7859;
557.1000;0.0920;-0.7814;
557.4000;0.0936;-0.7746;
557.7000;0.0928;-0.7837;
558.0000;0.0904;-0.7905;
558.3000;0.0830;-0.8176;
558.6000;0.0920;-0.7927;
558.9000;0.0895;-0.7950;
559.2000;0.0904;-0.7950;
559.5000;0.1009;-0.7746;
559.8000;0.0904;-0.7882;
560.1000;0.0863;-0.7905;
560.4000;0.0904;-0.7905;
560.7000;0.0895;-0.7950;
561.0000;0.0936;-0.7791;
561.3000;0.0912;-0.7905;
561.6000;0.0912;-0.7927;
561.9000;0.0904;-0.7905;
562.2000;0.0904;-0.7927;
562.5000;0.0904;-0.7950;
562.8000;0.0904;-0.7927;
563.1000;0.0912;-0.7882;
563.4000;0.0920;-0.7837;
563.7000;0.0912;-0.7882;
564.0000;0.0920;-0.7859;
564.3000;0.0920;-0.7837;
564.6000;0.0912;-0.7746;
564.9000;0.0904;-0.7837;
565.2000;0.0887;-0.7882;
565.5000;0.0895;-0.7882;
565.8000;0.0920;-0.7791;
566.1000;0.0887;-0.7837;
566.4000;0.0887;-0.7814;
566.7000;0.0912;-0.7746;
567.0000;0.0879;-0.7791;
567.3000;0.0904;-0.7769;
567.6000;0.0912;-0.7746;
567.9000;0.0912;-0.7701;
568.2000;0.0936;-0.7655;
568.5000;0.0904;-0.7837;
568.8000;0.0904;-0.7927;
569.1000;0.0904;-0.7927;
569.4000;0.0912;-0.7927;
569.7000;0.0952;-0.7769;
570.0000;0.0879;-0.8063;
570.3000;0.0895;-0.8063;
570.6000;0.0912;-0.7950;
570.9000;0.0830;-0.8131;
571.2000;0.0781;-0.8267;
571.5000;0.0887;-0.7972;
571.8000;0.0985;-0.7814;
572.1000;0.0912;-0.7972;
572.4000;0.0798;-0.8335;
572.7000;0.0912;-0.8040;
573.0000;0.0887;-0.8108;
573.3000;0.0904;-0.8086;
573.6000;0.0904;-0.8086;
573.9000;0.0904;-0.8063;
574.2000;0.0887;-0.8086;
574.5000;0.0887;-0.8267;
574.8000;0.0912;-0.8199;
575.1000;0.0871;-0.8267;
575.4000;0.0912;-0.8131;
575.7000;0.0904;-0.8063;
576.0000;0.0887;-0.8063;
576.3000;0.0838;-0.8131;
576.6000;0.0928;-0.7859;
576.9000;0.0895;-0.8018;
577.2000;0.0952;-0.7859;
577.5000;0.0920;-0.7950;
577.8000;0.0961;-0.7882;
578.1000;0.0887;-0.8040;
578.4000;0.0920;-0.7972;
578.7000;0.0798;-0.8222;
579.0000;0.0952;-0.7769;
579.3000;0.0985;-0.7633;
579.6000;0.0904;-0.7814;
579.9000;0.0895;-0.7882;
580.2000;0.0993;-0.7678;
580.5000;0.0920;-0.7859;
580.8000;0.0895;-0.7927;
581.1000;0.0904;-0.7927;
581.4000;0.0822;-0.8154;
581.7000;0.0904;-0.7972;
582.0000;0.0887;-0.7950;
582.3000;0.0887;-0.7950;
582.6000;0.0928;-0.7882;
582.9000;0.0912;-0.7905;
583.2000;0.0912;-0.7905;
583.5000;0.0806;-0.8086;
583.8000;0.0912;-0.7814;
584.1000;0.0904;-0.7814;
584.4000;0.0773;-0.8086;
584.7000;0.0920;-0.7723;
585.0000;0.0928;-0.7791;
585.3000;0.0920;-0.7814;
585.6000;0.0912;-0.7746;
585.9000;0.0936;-0.7791;
586.2000;0.0895;-0.7882;
586.5000;0.0944;-0.7791;
586.8000;0.0912;-0.7859;
587.1000;0.0969;-0.7791;
587.4000;0.0920;-0.7950;
587.7000;0.0928;-0.7882;
588.0000;0.0912;-0.8018;
588.3000;0.0912;-0.8040;
588.6000;0.0912;-0.8086;
588.9000;0.0879;-0.8176;
589.2000;0.0920;-0.8063;
589.5000;0.0904;-0.8131;
589.8000;0.0895;-0.8176;
590.1000;0.0904;-0.8063;
590.4000;0.0879;-0.8108;
590.7000;0.0912;-0.7972;
591.0000;0.0838;-0.8176;
591.3000;0.0912;-0.7995;
591.6000;0.0920;-0.7995;
591.9000;0.0920;-0.7927;
592.2000;0.0822;-0.8199;
592.5000;0.0920;-0.7972;
592.8000;0.0944;-0.7905;
593.1000;0.0855;-0.7995;
593.4000;0.0879;-0.7972;
593.7000;0.0904;-0.7995;
594.0000;0.0871;-0.8131;
594.3000;0.0904;-0.8086;
594.6000;0.0928;-0.8086;
594.9000;0.0993;-0.7905;
595.2000;0.0895;-0.8108;
595.5000;0.0912;-0.8063;
595.8000;0.0879;-0.8086;
596.1000;0.0904;-0.8086;
596.4000;0.0895;-0.8040;
596.7000;0.0887;-0.8063;
597.0000;0.0904;-0.8108;
597.3000;0.0887;-0.8176;
597.6000;0.0952;-0.7972;
597.9000;0.0855;-0.8154;
598.2000;0.0895;-0.8018;
598.5000;0.0871;-0.8086;
598.8000;0.0887;-0.8086;
599.1000;0.0887;-0.8063;
599.4000;0.0912;-0.8040;
599.7000;0.0969;-0.7927;
600.0000;0.0904;-0.8063;
600.3000;0.0961;-0.7950;
600.6000;0.0961;-0.7950;
600.9000;0.0895;-0.8108;
601.2000;0.0936;-0.8086;
601.5000;0.0798;-0.8516;
601.8000;0.0871;-0.8403;
602.1000;0.0798;-0.8607;
602.4000;0.0871;-0.8471;
602.7000;0.0871;-0.8493;
603.0000;0.0863;-0.8629;
603.3000;0.0969;-0.8539;
603.6000;0.0855;-0.8946;
603.9000;0.0806;-0.9128;
604.2000;0.0952;-0.8833;
604.5000;0.0838;-0.9060;
604.8000;0.0847;-0.9060;
605.1000;0.0830;-0.9128;
605.4000;0.0838;-0.9060;
605.7000;0.0814;-0.9037;
606.0000;0.0806;-0.9037;
606.3000;0.0830;-0.8946;
606.6000;0.0855;-0.8810;
606.9000;0.0830;-0.8901;
607.2000;0.0798;-0.8969;
607.5000;0.0838;-0.8969;
607.8000;0.0871;-0.8878;
608.1000;0.0814;-0.9014;
608.4000;0.0822;-0.9060;
608.7000;0.0798;-0.9037;
609.0000;0.0814;-0.8969;
609.3000;0.0806;-0.8924;
609.6000;0.0806;-0.8992;
609.9000;0.0814;-0.8992;
610.2000;0.0847;-0.8969;
610.5000;0.0822;-0.9014;
610.8000;0.0814;-0.9037;
611.1000;0.0944;-0.8833;
611.4000;0.0830;-0.9150;
611.7000;0.0830;-0.9082;
612.0000;0.0847;-0.9082;
612.3000;0.0822;-0.9128;
612.6000;0.0822;-0.9128;
612.9000;0.0847;-0.9105;
613.2000;0.0790;-0.9218;
613.5000;0.0838;-0.9060;
613.8000;0.0855;-0.9014;
614.1000;0.0790;-0.9082;
614.4000;0.0822;-0.9060;
614.7000;0.0798;-0.9150;
615.0000;0.0790;-0.9218;
615.3000;0.0806;-0.9218;
615.6000;0.0765;-0.9309;
615.9000;0.0912;-0.8992;
616.2000;0.0781;-0.9196;
616.5000;0.0838;-0.9037;
616.8000;0.0863;-0.9037;
617.1000;0.0781;-0.9150;
617.4000;0.0806;-0.9150;
617.7000;0.0781;-0.9150;
618.0000;0.0838;-0.9060;
618.3000;0.0814;-0.9150;
618.6000;0.0733;-0.9309;
618.9000;0.0822;-0.9150;
619.2000;0.0790;-0.9309;
619.5000;0.0781;-0.9263;
619.8000;0.0790;-0.9218;
620.1000;0.0798;-0.9218;
620.4000;0.0781;-0.9173;
620.7000;0.0773;-0.9105;
621.0000;0.0651;-0.9445;
621.3000;0.0749;-0.9218;
621.6000;0.0790;-0.9060;
621.9000;0.0781;-0.9082;
622.2000;0.0822;-0.8992;
622.5000;0.0798;-0.9105;
622.8000;0.0790;-0.9218;
623.1000;0.0781;-0.9196;
623.4000;0.0790;-0.9196;
623.7000;0.0855;-0.9014;
624.0000;0.0765;-0.9218;
624.3000;0.0790;-0.9173;
624.6000;0.0773;-0.9241;
624.9000;0.0798;-0.9150;
625.2000;0.0781;-0.9218;
625.5000;0.0822;-0.9173;
625.8000;0.0781;-0.9173;
626.1000;0.0773;-0.9218;
626.4000;0.0773;-0.9263;
626.7000;0.0773;-0.9218;
627.0000;0.0790;-0.9241;
627.3000;0.0847;-0.9060;
627.6000;0.0806;-0.9331;
627.9000;0.0676;-0.9694;
628.2000;0.0733;-0.9535;
628.5000;0.0749;-0.9467;
628.8000;0.0773;-0.9513;
629.1000;0.0847;-0.9263;
629.4000;0.0781;-0.9490;
629.7000;0.0814;-0.9467;
630.0000;0.0765;-0.9581;
630.3000;0.0781;-0.9558;
630.6000;0.0741;-0.9558;
630.9000;0.0700;-0.9581;
631.2000;0.0765;-0.9354;
631.5000;0.0765;-0.9309;
631.8000;0.0790;-0.9263;
632.1000;0.0790;-0.9331;
632.4000;0.0790;-0.9445;
632.7000;0.0733;-0.9581;
633.0000;0.0830;-0.9399;
633.3000;0.0798;-0.9467;
633.6000;0.0757;-0.9490;
633.9000;0.0781;-0.9467;
634.2000;0.0724;-0.9603;
634.5000;0.0781;-0.9422;
634.8000;0.0765;-0.9467;
635.1000;0.0757;-0.9513;
635.4000;0.0773;-0.9422;
635.7000;0.0781;-0.9354;
636.0000;0.0790;-0.9286;
636.3000;0.0781;-0.9377;
636.6000;0.0790;-0.9331;
636.9000;0.0790;-0.9286;
637.2000;0.0773;-0.9241;
637.5000;0.0773;-0.9331;
637.8000;0.0847;-0.9218;
638.1000;0.0773;-0.9422;
638.4000;0.0806;-0.9331;
638.7000;0.0790;-0.9354;
639.0000;0.0757;-0.9422;
639.3000;0.0716;-0.9581;
639.6000;0.0781;-0.9377;
639.9000;0.0635;-0.9762;
640.2000;0.0765;-0.9467;
640.5000;0.0716;-0.9490;
640.8000;0.0781;-0.9354;
641.1000;0.0781;-0.9286;
641.4000;0.0765;-0.9286;
641.7000;0.0716;-0.9354;
642.0000;0.0806;-0.9196;
642.3000;0.0773;-0.9241;
642.6000;0.0814;-0.9082;
642.9000;0.0806;-0.9105;
643.2000;0.0781;-0.9196;
643.5000;0.0757;-0.9263;
643.8000;0.0765;-0.9241;
644.1000;0.0887;-0.8946;
644.4000;0.0724;-0.9445;
644.7000;0.0781;-0.9309;
645.0000;0.0765;-0.9309;
645.3000;0.0749;-0.9354;
645.6000;0.0749;-0.9445;
645.9000;0.0757;-0.9377;
646.2000;0.0781;-0.9309;
646.5000;0.0765;-0.9263;
646.8000;0.0684;-0.9558;
647.1000;0.0781;-0.9241;
647.4000;0.0781;-0.9173;
647.7000;0.0781;-0.9105;
648.0000;0.0773;-0.9105;
648.3000;0.0773;-0.8992;
648.6000;0.0765;-0.8992;
648.9000;0.0879;-0.8743;
649.2000;0.0765;-0.9014;
649.5000;0.0708;-0.9196;
649.8000;0.0863;-0.8833;
650.1000;0.0749;-0.9150;
650.4000;0.0700;-0.9218;
650.7000;0.0757;-0.9060;
651.0000;0.0798;-0.9060;
651.3000;0.0749;-0.9286;
651.6000;0.0749;-0.9218;
651.9000;0.0781;-0.9150;
652.2000;0.0790;-0.9060;
652.5000;0.0749;-0.9173;
652.8000;0.0773;-0.9150;
653.1000;0.0749;-0.9263;
653.4000;0.0765;-0.9218;
653.7000;0.0773;-0.9218;
654.0000;0.0724;-0.9377;
654.3000;0.0749;-0.9331;
654.6000;0.0708;-0.9422;
654.9000;0.0781;-0.9241;
655.2000;0.0757;-0.9422;
655.5000;0.0733;-0.9467;
655.8000;0.0765;-0.9331;
656.1000;0.0781;-0.9331;
656.4000;0.0773;-0.9309;
656.7000;0.0765;-0.9286;
657.0000;0.0733;-0.9309;
657.3000;0.0765;-0.9286;
657.6000;0.0757;-0.9399;
657.9000;0.0790;-0.9309;
658.2000;0.0724;-0.9467;
658.5000;0.0602;-0.9762;
658.8000;0.0733;-0.9513;
659.1000;0.0749;-0.9490;
659.4000;0.0749;-0.9513;
659.7000;0.0741;-0.9535;
660.0000;0.0781;-0.9445;
660.3000;0.0757;-0.9513;
660.6000;0.0757;-0.9354;
660.9000;0.0749;-0.9286;
661.2000;0.0773;-0.9309;
661.5000;0.0847;-0.9082;
661.8000;0.0700;-0.9490;
662.1000;0.0765;-0.9309;
662.4000;0.0765;-0.9263;
662.7000;0.0757;-0.9286;
663.0000;0.0773;-0.9263;
663.3000;0.0741;-0.9331;
663.6000;0.0741;-0.9263;
663.9000;0.0716;-0.9422;
664.2000;0.0749;-0.9377;
664.5000;0.0749;-0.9354;
664.8000;0.0757;-0.9354;
665.1000;0.0749;-0.9354;
665.4000;0.0879;-0.9082;
665.7000;0.0757;-0.9399;
666.0000;0.0741;-0.9331;
666.3000;0.0773;-0.9377;
666.6000;0.0790;-0.9354;
666.9000;0.0749;-0.9399;
667.2000;0.0773;-0.9445;
667.5000;0.0741;-0.9445;
667.8000;0.0773;-0.9331;
668.1000;0.0741;-0.9422;
668.4000;0.0757;-0.9399;
668.7000;0.0757;-0.9422;
669.0000;0.0741;-0.9445;
669.3000;0.0749;-0.9399;
669.6000;0.0733;-0.9399;
669.9000;0.0733;-0.9445;
670.2000;0.0749;-0.9422;
670.5000;0.0757;-0.9377;
670.8000;0.0724;-0.9445;
671.1000;0.0741;-0.9422;
671.4000;0.0781;-0.9286;
671.7000;0.0871;-0.9060;
672.0000;0.0765;-0.9241;
672.3000;0.0733;-0.9309;
672.6000;0.0847;-0.9196;
672.9000;0.0749;-0.9445;
673.2000;0.0749;-0.9467;
673.5000;0.0733;-0.9399;
673.8000;0.0749;-0.9309;
674.1000;0.0659;-0.9535;
674.4000;0.0765;-0.9263;
674.7000;0.0741;-0.9331;
675.0000;0.0757;-0.9399;
675.3000;0.0757;-0.9377;
675.6000;0.0741;-0.9445;
675.9000;0.0757;-0.9490;
676.2000;0.0790;-0.9513;
676.5000;0.0790;-0.9558;
676.8000;0.0765;-0.9649;
677.1000;0.0733;-0.9784;
677.4000;0.0716;-0.9875;
677.7000;0.0741;-0.9671;
678.0000;0.0757;-0.9535;
678.3000;0.0765;-0.9513;
678.6000;0.0741;-0.9490;
678.9000;0.0724;-0.9513;
679.2000;0.0741;-0.9490;
679.5000;0.0757;-0.9535;
679.8000;0.0733;-0.9581;
680.1000;0.0757;-0.9558;
680.4000;0.0773;-0.9513;
680.7000;0.0749;-0.9581;
681.0000;0.0757;-0.9535;
681.3000;0.0749;-0.9467;
681.6000;0.0757;-0.9377;
681.9000;0.0765;-0.9490;
682.2000;0.0741;-0.9558;
682.5000;0.0700;-0.9581;
682.8000;0.0765;-0.9490;
683.1000;0.0765;-0.9490;
683.4000;0.0741;-0.9581;
683.7000;0.0741;-0.9603;
684.0000;0.0757;-0.9535;
684.3000;0.0741;-0.9513;
684.6000;0.0749;-0.9467;
684.9000;0.0733;-0.9445;
685.2000;0.0741;-0.9422;
685.5000;0.0733;-0.9445;
685.8000;0.0708;-0.9445;
686.1000;0.0724;-0.9399;
686.4000;0.0757;-0.9263;
686.7000;0.0757;-0.9309;
687.0000;0.0741;-0.9377;
687.3000;0.0733;-0.9377;
687.6000;0.0741;-0.9309;
687.9000;0.0741;-0.9309;
688.2000;0.0749;-0.9309;
688.5000;0.0724;-0.9377;
688.8000;0.0749;-0.9399;
689.1000;0.0741;-0.9467;
689.4000;0.0765;-0.9399;
689.7000;0.0749;-0.9399;
690.0000;0.0757;-0.9467;
690.3000;0.0749;-0.9558;
690.6000;0.0765;-0.9467;
690.9000;0.0773;-0.9445;
691.2000;0.0733;-0.9603;
691.5000;0.0733;-0.9581;
691.8000;0.0684;-0.9671;
692.1000;0.0838;-0.9331;
692.4000;0.0724;-0.9626;
692.7000;0.0887;-0.9286;
693.0000;0.0757;-0.9581;
693.3000;0.0716;-0.9716;
693.6000;0.0659;-0.9739;
693.9000;0.0757;-0.9490;
694.2000;0.0781;-0.9377;
694.5000;0.0749;-0.9467;
694.8000;0.0716;-0.9490;
695.1000;0.0733;-0.9354;
695.4000;0.0676;-0.9399;
695.7000;0.0529;-0.9716;
696.0000;0.0781;-0.9037;
696.3000;0.0757;-0.9128;
696.6000;0.0733;-0.9331;
696.9000;0.0749;-0.9218;
697.2000;0.0724;-0.9377;
697.5000;0.0773;-0.9331;
697.8000;0.0741;-0.9331;
698.1000;0.0749;-0.9196;
698.4000;0.0838;-0.8992;
698.7000;0.0741;-0.9218;
699.0000;0.0733;-0.9241;
699.3000;0.0765;-0.9218;
699.6000;0.0741;-0.9309;
699.9000;0.0741;-0.9218;
700.2000;0.0716;-0.9196;
700.5000;0.0749;-0.9150;
700.8000;0.0749;-0.9082;
701.1000;0.0724;-0.9150;
701.4000;0.0716;-0.9128;
701.7000;0.0741;-0.9128;
702.0000;0.0724;-0.9218;
702.3000;0.0724;-0.9241;
702.6000;0.0765;-0.9263;
702.9000;0.0749;-0.9331;
703.2000;0.0749;-0.9354;
703.5000;0.0708;-0.9422;
703.8000;0.0741;-0.9354;
704.1000;0.0716;-0.9331;
704.4000;0.0749;-0.9286;
704.7000;0.0733;-0.9286;
705.0000;0.0741;-0.9241;
705.3000;0.0708;-0.9422;
705.6000;0.0749;-0.9354;
705.9000;0.0741;-0.9422;
706.2000;0.0749;-0.9422;
706.5000;0.0716;-0.9445;
706.8000;0.0781;-0.9263;
707.1000;0.0733;-0.9331;
707.4000;0.0692;-0.9467;
707.7000;0.0733;-0.9422;
708.0000;0.0733;-0.9445;
708.3000;0.0700;-0.9535;
708.6000;0.0741;-0.9422;
708.9000;0.0749;-0.9445;
709.2000;0.0741;-0.9490;
709.5000;0.0741;-0.9513;
709.8000;0.0741;-0.9490;
710.1000;0.0724;-0.9626;
710.4000;0.0733;-0.9671;
710.7000;0.0741;-0.9603;
711.0000;0.0733;-0.9626;
711.3000;0.0724;-0.9626;
711.6000;0.0724;-0.9626;
711.9000;0.0741;-0.9626;
712.2000;0.0741;-0.9649;
712.5000;0.0733;-0.9558;
712.8000;0.0765;-0.9445;
713.1000;0.0741;-0.9535;
713.4000;0.0765;-0.9490;
713.7000;0.0773;-0.9467;
714.0000;0.0733;-0.9490;
714.3000;0.0838;-0.9196;
714.6000;0.0781;-0.9286;
714.9000;0.0773;-0.9286;
715.2000;0.0773;-0.9241;
715.5000;0.0733;-0.9309;
715.8000;0.0724;-0.9490;
716.1000;0.0790;-0.9354;
716.4000;0.0790;-0.9377;
716.7000;0.0749;-0.9490;
717.0000;0.0741;-0.9399;
717.3000;0.0692;-0.9490;
717.6000;0.0724;-0.9309;
717.9000;0.0741;-0.9196;
718.2000;0.0724;-0.9309;
718.5000;0.0733;-0.9331;
718.8000;0.0667;-0.9535;
719.1000;0.0724;-0.9354;
719.4000;0.0757;-0.9354;
719.7000;0.0724;-0.9422;
720.0000;0.0773;-0.9399;
720.3000;0.0716;-0.9535;
720.6000;0.0765;-0.9490;
720.9000;0.0724;-0.9558;
721.2000;0.0676;-0.9603;
721.5000;0.0716;-0.9513;
721.8000;0.0724;-0.9467;
722.1000;0.0716;-0.9422;
722.4000;0.0684;-0.9513;
722.7000;0.0741;-0.9377;
723.0000;0.0724;-0.9399;
723.3000;0.0790;-0.9331;
723.6000;0.0733;-0.9513;
723.9000;0.0733;-0.9535;
724.2000;0.0716;-0.9581;
724.5000;0.0733;-0.9581;
724.8000;0.0700;-0.9626;
725.1000;0.0724;-0.9626;
725.4000;0.0733;-0.9581;
725.7000;0.0749;-0.9535;
726.0000;0.0765;-0.9467;
726.3000;0.0749;-0.9490;
726.6000;0.0773;-0.9490;
726.9000;0.0741;-0.9558;
727.2000;0.0765;-0.9422;
727.5000;0.0757;-0.9399;
727.8000;0.0724;-0.9535;
728.1000;0.0757;-0.9490;
728.4000;0.0749;-0.9399;
728.7000;0.0741;-0.9399;
729.0000;0.0741;-0.9286;
729.3000;0.0749;-0.9218;
729.6000;0.0733;-0.9377;
729.9000;0.0749;-0.9241;
730.2000;0.0741;-0.9286;
730.5000;0.0733;-0.9331;
730.8000;0.0708;-0.9286;
731.1000;0.0733;-0.9241;
731.4000;0.0773;-0.9173;
731.7000;0.0749;-0.9173;
732.0000;0.0749;-0.9218;
732.3000;0.0741;-0.9309;
732.6000;0.0757;-0.9309;
732.9000;0.0749;-0.9377;
733.2000;0.0757;-0.9331;
733.5000;0.0781;-0.9354;
733.8000;0.0708;-0.9603;
734.1000;0.0733;-0.9513;
734.4000;0.0749;-0.9422;
734.7000;0.0806;-0.9241;
735.0000;0.0741;-0.9354;
735.3000;0.0692;-0.9467;
735.6000;0.0724;-0.9422;
735.9000;0.0684;-0.9581;
736.2000;0.0765;-0.9263;
736.5000;0.0749;-0.9354;
736.8000;0.0757;-0.9331;
737.1000;0.0741;-0.9377;
737.4000;0.0741;-0.9218;
737.7000;0.0741;-0.9196;
738.0000;0.0676;-0.9309;
738.3000;0.0814;-0.9014;
738.6000;0.0741;-0.9128;
738.9000;0.0733;-0.9241;
739.2000;0.0757;-0.9196;
739.5000;0.0733;-0.9196;
739.8000;0.0757;-0.9128;
740.1000;0.0741;-0.9218;
740.4000;0.0741;-0.9218;
740.7000;0.0724;-0.9241;
741.0000;0.0798;-0.8992;
741.3000;0.0741;-0.9173;
741.6000;0.0741;-0.9173;
741.9000;0.0749;-0.9241;
742.2000;0.0716;-0.9331;
742.5000;0.0741;-0.9263;
742.8000;0.0716;-0.9399;
743.1000;0.0708;-0.9535;
743.4000;0.0741;-0.9558;
743.7000;0.0765;-0.9513;
744.0000;0.0692;-0.9784;
744.3000;0.0781;-0.9513;
744.6000;0.0757;-0.9535;
744.9000;0.0659;-0.9739;
745.2000;0.0724;-0.9581;
745.5000;0.0765;-0.9445;
745.8000;0.0757;-0.9490;
746.1000;0.0757;-0.9467;
746.4000;0.0741;-0.9513;
746.7000;0.0790;-0.9377;
747.0000;0.0733;-0.9535;
747.3000;0.0765;-0.9354;
747.6000;0.0716;-0.9399;
747.9000;0.0765;-0.9173;
748.2000;0.0741;-0.9263;
748.5000;0.0667;-0.9535;
748.8000;0.0749;-0.9399;
749.1000;0.0733;-0.9422;
749.4000;0.0765;-0.9399;
749.7000;0.0741;-0.9490;
750.0000;0.0724;-0.9649;
750.3000;0.0749;-0.9626;
750.6000;0.0741;-0.9626;
750.9000;0.0741;-0.9762;
751.2000;0.0724;-0.9739;
751.5000;0.0733;-0.9626;
751.8000;0.0741;-0.9445;
752.1000;0.0724;-0.9354;
752.4000;0.0773;-0.9241;
752.7000;0.0765;-0.9286;
753.0000;0.0773;-0.9309;
753.3000;0.0716;-0.9354;
753.6000;0.0724;-0.9331;
753.9000;0.0765;-0.9150;
754.2000;0.0749;-0.9218;
754.5000;0.0716;-0.9263;
754.8000;0.0733;-0.9286;
755.1000;0.0724;-0.9241;
755.4000;0.0708;-0.9218;
755.7000;0.0749;-0.9173;
756.0000;0.0716;-0.9286;
756.3000;0.0684;-0.9309;
756.6000;0.0773;-0.9082;
756.9000;0.0733;-0.9128;
757.2000;0.0749;-0.9060;
757.5000;0.0716;-0.9105;
757.8000;0.0749;-0.8969;
758.1000;0.0757;-0.9060;
758.4000;0.0692;-0.9263;
758.7000;0.0627;-0.9445;
759.0000;0.0716;-0.9196;
759.3000;0.0724;-0.9196;
759.6000;0.0741;-0.9173;
759.9000;0.0724;-0.9150;
760.2000;0.0757;-0.9082;
760.5000;0.0716;-0.9173;
760.8000;0.0733;-0.9173;
761.1000;0.0733;-0.9128;
761.4000;0.0716;-0.9218;
761.7000;0.0724;-0.9286;
762.0000;0.0757;-0.9263;
762.3000;0.0692;-0.9490;
762.6000;0.0708;-0.9331;
762.9000;0.0733;-0.9399;
763.2000;0.0741;-0.9558;
763.5000;0.0733;-0.9558;
763.8000;0.0708;-0.9535;
764.1000;0.0790;-0.9263;
764.4000;0.0741;-0.9331;
764.7000;0.0749;-0.9354;
765.0000;0.0716;-0.9422;
765.3000;0.0749;-0.9331;
765.6000;0.0708;-0.9377;
765.9000;0.0741;-0.9422;
766.2000;0.0749;-0.9354;
766.5000;0.0684;-0.9535;
766.8000;0.0757;-0.9309;
767.1000;0.0790;-0.9218;
767.4000;0.0700;-0.9331;
767.7000;0.0757;-0.9173;
768.0000;0.0773;-0.9060;
768.3000;0.0749;-0.9128;
768.6000;0.0790;-0.8992;
768.9000;0.0741;-0.9082;
769.2000;0.0749;-0.9082;
769.5000;0.0716;-0.9173;
769.8000;0.0733;-0.9150;
770.1000;0.0733;-0.9105;
770.4000;0.0757;-0.9105;
770.7000;0.0749;-0.9105;
771.0000;0.0733;-0.9082;
771.3000;0.0733;-0.8946;
771.6000;0.0692;-0.9105;
771.9000;0.0716;-0.9128;
772.2000;0.0733;-0.9037;
772.5000;0.0708;-0.9037;
772.8000;0.0724;-0.8992;
773.1000;0.0741;-0.9014;
773.4000;0.0708;-0.9082;
773.7000;0.0708;-0.9060;
774.0000;0.0716;-0.9060;
774.3000;0.0741;-0.8992;
774.6000;0.0757;-0.8856;
774.9000;0.0733;-0.9014;
775.2000;0.0749;-0.8992;
775.5000;0.0724;-0.9037;
775.8000;0.0724;-0.9060;
776.1000;0.0733;-0.8992;
776.4000;0.0733;-0.9037;
776.7000;0.0790;-0.8901;
777.0000;0.0741;-0.9037;
777.3000;0.0757;-0.8992;
777.6000;0.0757;-0.9082;
777.9000;0.0757;-0.9082;
778.2000;0.0716;-0.9173;
778.5000;0.0741;-0.9173;
778.8000;0.0749;-0.9082;
779.1000;0.0733;-0.9128;
779.4000;0.0749;-0.9128;
779.7000;0.0765;-0.9037;
780.0000;0.0757;-0.9037;
780.3000;0.0724;-0.9128;
780.6000;0.0724;-0.9105;
780.9000;0.0724;-0.9082;
781.2000;0.0708;-0.9128;
781.5000;0.0716;-0.9173;
781.8000;0.0724;-0.9173;
782.1000;0.0733;-0.9241;
782.4000;0.0692;-0.9286;
782.7000;0.0741;-0.9082;
783.0000;0.0765;-0.9082;
783.3000;0.0741;-0.9014;
783.6000;0.0733;-0.9037;
783.9000;0.0749;-0.8992;
784.2000;0.0724;-0.9060;
784.5000;0.0757;-0.9014;
784.8000;0.0619;-0.9377;
785.1000;0.0708;-0.9105;
785.4000;0.0716;-0.9082;
785.7000;0.0716;-0.9082;
786.0000;0.0733;-0.8992;
786.3000;0.0790;-0.8833;
786.6000;0.0757;-0.8969;
786.9000;0.0724;-0.8992;
787.2000;0.0757;-0.8833;
787.5000;0.0773;-0.8878;
787.8000;0.0749;-0.9014;
788.1000;0.0814;-0.8810;
788.4000;0.0749;-0.8992;
788.7000;0.0855;-0.8765;
789.0000;0.0741;-0.9060;
789.3000;0.0749;-0.9037;
789.6000;0.0733;-0.9014;
789.9000;0.0757;-0.9037;
790.2000;0.0692;-0.9173;
790.5000;0.0724;-0.9037;
790.8000;0.0692;-0.9105;
791.1000;0.0749;-0.8969;
791.4000;0.0798;-0.8878;
791.7000;0.0733;-0.9060;
792.0000;0.0765;-0.8946;
792.3000;0.0667;-0.9196;
792.6000;0.0749;-0.8946;
792.9000;0.0733;-0.9105;
793.2000;0.0749;-0.9105;
793.5000;0.0790;-0.8992;
793.8000;0.0684;-0.9218;
794.1000;0.0741;-0.9060;
794.4000;0.0749;-0.9082;
794.7000;0.0765;-0.9060;
795.0000;0.0708;-0.9196;
795.3000;0.0733;-0.9150;
795.6000;0.0684;-0.9286;
795.9000;0.0757;-0.8992;
796.2000;0.0724;-0.9037;
796.5000;0.0757;-0.8924;
796.8000;0.0733;-0.8992;
797.1000;0.0708;-0.8969;
797.4000;0.0749;-0.8743;
797.7000;0.0733;-0.8856;
798.0000;0.0757;-0.8765;
798.3000;0.0749;-0.8765;
798.6000;0.0741;-0.8833;
798.9000;0.0741;-0.8833;
799.2000;0.0716;-0.8992;
799.5000;0.0757;-0.8856;
799.8000;0.0757;-0.8788;
800.1000;0.0757;-0.8765;
800.4000;0.0773;-0.8720;
800.7000;0.0692;-0.8969;
801.0000;0.0741;-0.8765;
801.3000;0.0757;-0.8697;
801.6000;0.0749;-0.8720;
801.9000;0.0716;-0.8878;
802.2000;0.0724;-0.8788;
802.5000;0.0790;-0.8743;
802.8000;0.0741;-0.8856;
803.1000;0.0733;-0.8946;
803.4000;0.0847;-0.8697;
803.7000;0.0749;-0.8901;
804.0000;0.0765;-0.8810;
804.3000;0.0716;-0.8856;
804.6000;0.0716;-0.8924;
804.9000;0.0733;-0.8901;
805.2000;0.0773;-0.8878;
805.5000;0.0749;-0.8969;
805.8000;0.0700;-0.9105;
806.1000;0.0749;-0.9014;
806.4000;0.0757;-0.9037;
806.7000;0.0627;-0.9331;
807.0000;0.0692;-0.9150;
807.3000;0.0724;-0.9082;
807.6000;0.0757;-0.9082;
807.9000;0.0757;-0.9150;
808.2000;0.0749;-0.9082;
808.5000;0.0724;-0.9128;
808.8000;0.0733;-0.9105;
809.1000;0.0749;-0.9037;
809.4000;0.0708;-0.9150;
809.7000;0.0773;-0.8924;
810.0000;0.0716;-0.9014;
810.3000;0.0708;-0.9037;
810.6000;0.0733;-0.8946;
810.9000;0.0724;-0.8969;
811.2000;0.0708;-0.8946;
811.5000;0.0757;-0.8878;
811.8000;0.0733;-0.8924;
812.1000;0.0733;-0.8992;
812.4000;0.0749;-0.8901;
812.7000;0.0676;-0.9196;
813.0000;0.0733;-0.9128;
813.3000;0.0749;-0.9150;
813.6000;0.0757;-0.9150;
813.9000;0.0838;-0.8992;
814.2000;0.0741;-0.9173;
814.5000;0.0790;-0.8992;
814.8000;0.0741;-0.9105;
815.1000;0.0806;-0.8901;
815.4000;0.0741;-0.8946;
815.7000;0.0724;-0.8992;
816.0000;0.0741;-0.8969;
816.3000;0.0765;-0.8833;
816.6000;0.0741;-0.8878;
816.9000;0.0822;-0.8629;
817.2000;0.0741;-0.8946;
817.5000;0.0773;-0.8924;
817.8000;0.0757;-0.8924;
818.1000;0.0781;-0.8924;
818.4000;0.0765;-0.8992;
818.7000;0.0716;-0.9128;
819.0000;0.0724;-0.9150;
819.3000;0.0749;-0.9196;
819.6000;0.0733;-0.9241;
819.9000;0.0806;-0.9014;
820.2000;0.0765;-0.9128;
820.5000;0.0733;-0.9105;
820.8000;0.0716;-0.9105;
821.1000;0.0765;-0.9037;
821.4000;0.0749;-0.9014;
821.7000;0.0741;-0.9014;
822.0000;0.0716;-0.9037;
822.3000;0.0741;-0.8992;
822.6000;0.0684;-0.9128;
822.9000;0.0741;-0.9060;
823.2000;0.0749;-0.9105;
823.5000;0.0749;-0.9128;
823.8000;0.0741;-0.9128;
824.1000;0.0708;-0.9150;
824.4000;0.0765;-0.9014;
824.7000;0.0692;-0.9173;
825.0000;0.0757;-0.9060;
825.3000;0.0643;-0.9354;
825.6000;0.0627;-0.9513;
825.9000;0.0724;-0.9173;
826.2000;0.0749;-0.9082;
826.5000;0.0749;-0.9082;
826.8000;0.0733;-0.9037;
827.1000;0.0724;-0.9082;
827.4000;0.0749;-0.9105;
827.7000;0.0749;-0.9037;
828.0000;0.0708;-0.9150;
828.3000;0.0757;-0.9037;
828.6000;0.0749;-0.9014;
828.9000;0.0741;-0.9037;
829.2000;0.0757;-0.9037;
829.5000;0.0757;-0.9105;
829.8000;0.0757;-0.9128;
830.1000;0.0741;-0.9173;
830.4000;0.0757;-0.9128;
830.7000;0.0684;-0.9354;
831.0000;0.0724;-0.9263;
831.3000;0.0741;-0.9309;
831.6000;0.0749;-0.9241;
831.9000;0.0765;-0.9241;
832.2000;0.0733;-0.9241;
832.5000;0.0765;-0.9082;
832.8000;0.0708;-0.9196;
833.1000;0.0733;-0.9105;
833.4000;0.0741;-0.9150;
833.7000;0.0757;-0.9060;
834.0000;0.0952;-0.8584;
834.3000;0.0724;-0.9241;
834.6000;0.0716;-0.9309;
834.9000;0.0741;-0.9263;
835.2000;0.0692;-0.9331;
835.5000;0.0749;-0.9241;
835.8000;0.0724;-0.9309;
836.1000;0.0716;-0.9309;
836.4000;0.0790;-0.9060;
836.7000;0.0741;-0.9128;
837.0000;0.0724;-0.9060;
837.3000;0.0708;-0.9014;
837.6000;0.0724;-0.8946;
837.9000;0.0733;-0.8969;
838.2000;0.0733;-0.8946;
838.5000;0.0724;-0.8969;
838.8000;0.0749;-0.8878;
839.1000;0.0741;-0.8969;
839.4000;0.0773;-0.8901;
839.7000;0.0757;-0.8810;
840.0000;0.0724;-0.9014;
840.3000;0.0757;-0.8946;
840.6000;0.0741;-0.8992;
840.9000;0.0749;-0.8969;
841.2000;0.0749;-0.8924;
841.5000;0.0635;-0.9196;
841.8000;0.0724;-0.8946;
842.1000;0.0749;-0.8992;
842.4000;0.0716;-0.9105;
842.7000;0.0741;-0.9082;
843.0000;0.0749;-0.9105;
843.3000;0.0749;-0.9082;
843.6000;0.0611;-0.9399;
843.9000;0.0708;-0.9173;
844.2000;0.0741;-0.9014;
844.5000;0.0733;-0.8992;
844.8000;0.0716;-0.9082;
845.1000;0.0741;-0.9060;
845.4000;0.0741;-0.9150;
845.7000;0.0733;-0.9173;
846.0000;0.0879;-0.8765;
846.3000;0.0724;-0.9105;
846.6000;0.0724;-0.9128;
846.9000;0.0757;-0.9082;
847.2000;0.0741;-0.9037;
847.5000;0.0708;-0.9105;
847.8000;0.0724;-0.8992;
848.1000;0.0757;-0.9037;
848.4000;0.0708;-0.9105;
848.7000;0.0733;-0.8969;
849.0000;0.0781;-0.8878;
849.3000;0.0830;-0.8765;
849.6000;0.0814;-0.8878;
849.9000;0.0733;-0.9060;
850.2000;0.0733;-0.9060;
850.5000;0.0716;-0.9082;
850.8000;0.0757;-0.9037;
851.1000;0.0741;-0.9082;
851.4000;0.0716;-0.9060;
851.7000;0.0741;-0.9037;
852.0000;0.0716;-0.9082;
852.3000;0.0749;-0.8969;
852.6000;0.0749;-0.9082;
852.9000;0.0741;-0.9014;
853.2000;0.0724;-0.9173;
853.5000;0.0724;-0.9128;
853.8000;0.0757;-0.9082;
854.1000;0.0741;-0.9082;
854.4000;0.0733;-0.9014;
854.7000;0.0741;-0.9037;
855.0000;0.0749;-0.9173;
855.3000;0.0757;-0.9241;
855.6000;0.0733;-0.9354;
855.9000;0.0733;-0.9399;
856.2000;0.0757;-0.9354;
856.5000;0.0733;-0.9467;
856.8000;0.0757;-0.9196;
857.1000;0.0700;-0.9196;
857.4000;0.0741;-0.9037;
857.7000;0.0757;-0.9014;
858.0000;0.0749;-0.9014;
858.3000;0.0733;-0.9014;
858.6000;0.0724;-0.9037;
858.9000;0.0741;-0.9014;
859.2000;0.0733;-0.8946;
859.5000;0.0806;-0.8788;
859.8000;0.0741;-0.9037;
860.1000;0.0676;-0.9241;
860.4000;0.0659;-0.9309;
860.7000;0.0765;-0.9037;
861.0000;0.0749;-0.9014;
861.3000;0.0749;-0.9037;
861.6000;0.0765;-0.8969;
861.9000;0.0724;-0.9037;
862.2000;0.0724;-0.9060;
862.5000;0.0749;-0.8992;
862.8000;0.0741;-0.9060;
863.1000;0.0806;-0.8856;
863.4000;0.0700;-0.9150;
863.7000;0.0757;-0.9082;
864.0000;0.0733;-0.9105;
864.3000;0.0692;-0.9173;
864.6000;0.0724;-0.9037;
864.9000;0.0749;-0.9014;
865.2000;0.0724;-0.9060;
865.5000;0.0814;-0.8765;
865.8000;0.0757;-0.8924;
866.1000;0.0749;-0.9037;
866.4000;0.0757;-0.9014;
866.7000;0.0741;-0.9105;
867.0000;0.0749;-0.9128;
867.3000;0.0741;-0.9082;
867.6000;0.0749;-0.9060;
867.9000;0.0855;-0.8788;
868.2000;0.0765;-0.9105;
868.5000;0.0749;-0.9196;
868.8000;0.0749;-0.9241;
869.1000;0.0741;-0.9263;
869.4000;0.0749;-0.9241;
869.7000;0.0741;-0.9218;
870.0000;0.0700;-0.9263;
870.3000;0.0773;-0.9082;
870.6000;0.0806;-0.8856;
870.9000;0.0733;-0.8969;
871.2000;0.0733;-0.8946;
871.5000;0.0765;-0.8856;
871.8000;0.0765;-0.8969;
872.1000;0.0757;-0.9060;
872.4000;0.0741;-0.9037;
872.7000;0.0716;-0.9196;
873.0000;0.0765;-0.8992;
873.3000;0.0708;-0.9150;
873.6000;0.0724;-0.9128;
873.9000;0.0733;-0.9128;
874.2000;0.0765;-0.9150;
874.5000;0.0733;-0.9196;
874.8000;0.0733;-0.9173;
875.1000;0.0716;-0.9309;
875.4000;0.0741;-0.9173;
875.7000;0.0757;-0.9173;
876.0000;0.0741;-0.9196;
876.3000;0.0724;-0.9241;
876.6000;0.0733;-0.9196;
876.9000;0.0765;-0.9105;
877.2000;0.0741;-0.9173;
877.5000;0.0757;-0.9060;
877.8000;0.0733;-0.9082;
878.1000;0.0765;-0.9014;
878.4000;0.0741;-0.9037;
878.7000;0.0741;-0.8969;
879.0000;0.0700;-0.9150;
879.3000;0.0741;-0.9037;
879.6000;0.0749;-0.8992;
879.9000;0.0765;-0.9082;
880.2000;0.0749;-0.9218;
880.5000;0.0741;-0.9263;
880.8000;0.0716;-0.9263;
881.1000;0.0708;-0.9241;
881.4000;0.0757;-0.9128;
881.7000;0.0733;-0.9173;
882.0000;0.0741;-0.9105;
882.3000;0.0765;-0.9060;
882.6000;0.0773;-0.9060;
882.9000;0.0733;-0.9241;
883.2000;0.0749;-0.9128;
883.5000;0.0765;-0.9128;
883.8000;0.0684;-0.9286;
884.1000;0.0741;-0.9060;
884.4000;0.0733;-0.9060;
884.7000;0.0773;-0.8901;
885.0000;0.0855;-0.8675;
885.3000;0.0676;-0.9128;
885.6000;0.0724;-0.9105;
885.9000;0.0667;-0.9309;
886.2000;0.0741;-0.9128;
886.5000;0.0724;-0.9082;
886.8000;0.0724;-0.9037;
887.1000;0.0724;-0.9082;
887.4000;0.0733;-0.8992;
887.7000;0.0749;-0.9037;
888.0000;0.0765;-0.9037;
888.3000;0.0749;-0.9037;
888.6000;0.0700;-0.9173;
888.9000;0.0741;-0.9082;
889.2000;0.0733;-0.9082;
889.5000;0.0724;-0.9082;
889.8000;0.0749;-0.9060;
890.1000;0.0749;-0.8992;
890.4000;0.0749;-0.8992;
890.7000;0.0749;-0.9037;
891.0000;0.0708;-0.9218;
891.3000;0.0733;-0.9082;
891.6000;0.0733;-0.9128;
891.9000;0.0879;-0.8765;
892.2000;0.0724;-0.9128;
892.5000;0.0733;-0.9105;
892.8000;0.0749;-0.8992;
893.1000;0.0741;-0.8924;
893.4000;0.0733;-0.8946;
893.7000;0.0741;-0.8992;
894.0000;0.0724;-0.9082;
894.3000;0.0716;-0.9082;
894.6000;0.0716;-0.9082;
894.9000;0.0724;-0.9060;
895.2000;0.0708;-0.9060;
895.5000;0.0733;-0.9037;
895.8000;0.0773;-0.8924;
896.1000;0.0716;-0.9037;
896.4000;0.0749;-0.9060;
896.7000;0.0798;-0.9037;
897.0000;0.0724;-0.9173;
897.3000;0.0757;-0.9128;
897.6000;0.0708;-0.9173;
897.9000;0.0741;-0.9037;
898.2000;0.0749;-0.9037;
898.5000;0.0741;-0.8969;
898.8000;0.0749;-0.9014;
899.1000;0.0741;-0.9105;
899.4000;0.0749;-0.9060;
899.7000;0.0708;-0.9060;
900.0000;0.0716;-0.9173;
900.3000;0.0724;-0.9037;
900.6000;0.0733;-0.8924;
900.9000;0.0716;-0.8946;
901.2000;0.0724;-0.8901;
901.5000;0.0741;-0.8901;
901.8000;0.0741;-0.8969;
902.1000;0.0733;-0.8969;
902.4000;0.0724;-0.8992;
902.7000;0.0741;-0.8969;
903.0000;0.0724;-0.9014;
903.3000;0.0724;-0.8992;
903.6000;0.0724;-0.8901;
903.9000;0.0790;-0.8743;
904.2000;0.0798;-0.8765;
904.5000;0.0749;-0.8969;
904.8000;0.0741;-0.8969;
905.1000;0.0741;-0.9014;
905.4000;0.0749;-0.8901;
905.7000;0.0749;-0.8856;
906.0000;0.0733;-0.8924;
906.3000;0.0741;-0.8992;
906.6000;0.0757;-0.8969;
906.9000;0.0733;-0.8946;
907.2000;0.0724;-0.8992;
907.5000;0.0733;-0.8969;
907.8000;0.0757;-0.8946;
908.1000;0.0708;-0.9128;
908.4000;0.0773;-0.8946;
908.7000;0.0733;-0.9060;
909.0000;0.0765;-0.8969;
909.3000;0.0806;-0.8856;
909.6000;0.0822;-0.8765;
909.9000;0.0724;-0.8992;
910.2000;0.0733;-0.8878;
910.5000;0.0733;-0.8833;
910.8000;0.0700;-0.8901;
911.1000;0.0741;-0.8833;
911.4000;0.0733;-0.8856;
911.7000;0.0700;-0.8946;
912.0000;0.0741;-0.8901;
912.3000;0.0749;-0.8901;
912.6000;0.0741;-0.8992;
912.9000;0.0724;-0.9105;
913.2000;0.0749;-0.9037;
913.5000;0.0700;-0.9082;
913.8000;0.0798;-0.8856;
914.1000;0.0757;-0.8901;
914.4000;0.0724;-0.8901;
914.7000;0.0733;-0.8946;
915.0000;0.0765;-0.8924;
915.3000;0.0749;-0.9037;
915.6000;0.0733;-0.9037;
915.9000;0.0724;-0.9128;
916.2000;0.0741;-0.9060;
916.5000;0.0716;-0.9105;
916.8000;0.0716;-0.9128;
917.1000;0.0741;-0.9014;
917.4000;0.0749;-0.9128;
917.7000;0.0741;-0.9082;
918.0000;0.0765;-0.9060;
918.3000;0.0749;-0.9105;
918.6000;0.0749;-0.9173;
918.9000;0.0708;-0.9286;
919.2000;0.0741;-0.9218;
919.5000;0.0790;-0.9082;
919.8000;0.0798;-0.9082;
920.1000;0.0733;-0.9218;
920.4000;0.0700;-0.9241;
920.7000;0.0724;-0.9173;
921.0000;0.0749;-0.9082;
921.3000;0.0741;-0.9173;
921.6000;0.0814;-0.8946;
921.9000;0.0708;-0.9241;
922.2000;0.0724;-0.9196;
922.5000;0.0716;-0.9196;
922.8000;0.0724;-0.9241;
923.1000;0.0733;-0.9105;
923.4000;0.0749;-0.9150;
923.7000;0.0741;-0.9218;
924.0000;0.0733;-0.9286;
924.3000;0.0741;-0.9218;
924.6000;0.0765;-0.9082;
924.9000;0.0741;-0.9037;
925.2000;0.0724;-0.9060;
925.5000;0.0716;-0.9037;
925.8000;0.0733;-0.9082;
926.1000;0.0708;-0.9150;
926.4000;0.0757;-0.9105;
926.7000;0.0733;-0.9060;
927.0000;0.0708;-0.9082;
927.3000;0.0724;-0.8924;
927.6000;0.0733;-0.8878;
927.9000;0.0749;-0.8810;
928.2000;0.0863;-0.8561;
928.5000;0.0716;-0.9014;
928.8000;0.0733;-0.9037;
929.1000;0.0757;-0.9105;
929.4000;0.0741;-0.9150;
929.7000;0.0749;-0.9105;
930.0000;0.0749;-0.9060;
930.3000;0.0700;-0.9196;
930.6000;0.0741;-0.9082;
930.9000;0.0757;-0.9060;
931.2000;0.0806;-0.8946;
931.5000;0.0765;-0.8992;
931.8000;0.0733;-0.9082;
932.1000;0.0757;-0.9128;
932.4000;0.0733;-0.9218;
932.7000;0.0749;-0.9241;
933.0000;0.0741;-0.9128;
933.3000;0.0790;-0.8901;
933.6000;0.0895;-0.8584;
933.9000;0.0716;-0.9060;
934.2000;0.0733;-0.9037;
934.5000;0.0749;-0.8992;
934.8000;0.0781;-0.8924;
935.1000;0.0716;-0.8969;
935.4000;0.0773;-0.8765;
935.7000;0.0749;-0.8765;
936.0000;0.0741;-0.8810;
936.3000;0.0741;-0.8788;
936.6000;0.0790;-0.8720;
936.9000;0.0749;-0.8810;
937.2000;0.0749;-0.8788;
937.5000;0.0733;-0.8901;
937.8000;0.0724;-0.8924;
938.1000;0.0733;-0.8969;
938.4000;0.0781;-0.8833;
938.7000;0.0749;-0.8901;
939.0000;0.0700;-0.9105;
939.3000;0.0741;-0.9037;
939.6000;0.0741;-0.9173;
939.9000;0.0716;-0.9309;
940.2000;0.0708;-0.9377;
940.5000;0.0700;-0.9445;
940.8000;0.0749;-0.9399;
941.1000;0.0733;-0.9445;
941.4000;0.0781;-0.9196;
941.7000;0.0895;-0.8810;
942.0000;0.0847;-0.9060;
942.3000;0.0749;-0.9263;
942.6000;0.0733;-0.9263;
942.9000;0.0741;-0.9173;
943.2000;0.0741;-0.9082;
943.5000;0.0667;-0.9173;
943.8000;0.0741;-0.8992;
944.1000;0.0741;-0.8992;
944.4000;0.0733;-0.9014;
944.7000;0.0733;-0.8924;
945.0000;0.0757;-0.8810;
945.3000;0.0708;-0.8901;
945.6000;0.0790;-0.8743;
945.9000;0.0724;-0.8924;
946.2000;0.0741;-0.9037;
946.5000;0.0733;-0.9037;
946.8000;0.0708;-0.9196;
947.1000;0.0765;-0.9060;
947.4000;0.0733;-0.9196;
947.7000;0.0741;-0.9128;
948.0000;0.0757;-0.9105;
948.3000;0.0749;-0.9082;
948.6000;0.0757;-0.8969;
948.9000;0.0708;-0.8992;
949.2000;0.0716;-0.8946;
949.5000;0.0741;-0.8924;
949.8000;0.0733;-0.8856;
950.1000;0.0724;-0.8878;
950.4000;0.0741;-0.8856;
950.7000;0.0749;-0.8901;
951.0000;0.0724;-0.8969;
951.3000;0.0741;-0.9014;
951.6000;0.0692;-0.9082;
951.9000;0.0659;-0.9196;
952.2000;0.0765;-0.8924;
952.5000;0.0798;-0.8924;
952.8000;0.0724;-0.9128;
953.1000;0.0806;-0.8924;
953.4000;0.0708;-0.9128;
953.7000;0.0741;-0.9060;
954.0000;0.0733;-0.9150;
954.3000;0.0733;-0.9105;
954.6000;0.0749;-0.9173;
954.9000;0.0749;-0.9196;
955.2000;0.0708;-0.9263;
955.5000;0.0733;-0.9150;
955.8000;0.0708;-0.9128;
956.1000;0.0749;-0.8946;
956.4000;0.0773;-0.8878;
956.7000;0.0847;-0.8720;
957.0000;0.0749;-0.8946;
957.3000;0.0847;-0.8720;
957.6000;0.0790;-0.8810;
957.9000;0.0733;-0.8992;
958.2000;0.0724;-0.8946;
958.5000;0.0757;-0.8878;
958.8000;0.0798;-0.8810;
959.1000;0.0733;-0.9060;
959.4000;0.0724;-0.9060;
959.7000;0.0741;-0.9082;
960.0000;0.0741;-0.9082;
960.3000;0.0733;-0.9037;
960.6000;0.0822;-0.8788;
960.9000;0.0700;-0.9150;
961.2000;0.0741;-0.9014;
961.5000;0.0741;-0.9014;
961.8000;0.0741;-0.9014;
962.1000;0.0741;-0.8969;
962.4000;0.0765;-0.8788;
962.7000;0.0757;-0.8856;
963.0000;0.0757;-0.8878;
963.3000;0.0733;-0.8992;
963.6000;0.0741;-0.8992;
963.9000;0.0741;-0.8992;
964.2000;0.0708;-0.9060;
964.5000;0.0700;-0.8992;
964.8000;0.0724;-0.8992;
965.1000;0.0724;-0.9014;
965.4000;0.0700;-0.9082;
965.7000;0.0708;-0.9082;
966.0000;0.0814;-0.8856;
966.3000;0.0733;-0.8969;
966.6000;0.0724;-0.8969;
966.9000;0.0749;-0.8901;
967.2000;0.0749;-0.8946;
967.5000;0.0733;-0.8924;
967.8000;0.0659;-0.9105;
968.1000;0.0708;-0.8901;
968.4000;0.0790;-0.8743;
968.7000;0.0757;-0.8878;
969.0000;0.0724;-0.8969;
969.3000;0.0741;-0.8946;
969.6000;0.0741;-0.8901;
969.9000;0.0757;-0.8878;
970.2000;0.0741;-0.8901;
970.5000;0.0741;-0.8878;
970.8000;0.0733;-0.8969;
971.1000;0.0765;-0.8901;
971.4000;0.0757;-0.8946;
971.7000;0.0741;-0.8969;
972.0000;0.0733;-0.8992;
972.3000;0.0749;-0.8946;
972.6000;0.0749;-0.8878;
972.9000;0.0741;-0.8901;
973.2000;0.0733;-0.8946;
973.5000;0.0749;-0.8924;
973.8000;0.0708;-0.9105;
974.1000;0.0716;-0.9128;
974.4000;0.0765;-0.9128;
974.7000;0.0733;-0.9128;
975.0000;0.0700;-0.9037;
975.3000;0.0716;-0.8992;
975.6000;0.0749;-0.8992;
975.9000;0.0741;-0.9014;
976.2000;0.0724;-0.9014;
976.5000;0.0741;-0.8969;
976.8000;0.0741;-0.8856;
977.1000;0.0790;-0.8697;
977.4000;0.0700;-0.8901;
977.7000;0.0741;-0.8743;
978.0000;0.0733;-0.8788;
978.3000;0.0757;-0.8720;
978.6000;0.0733;-0.8833;
978.9000;0.0724;-0.8946;
979.2000;0.0741;-0.8901;
979.5000;0.0757;-0.8856;
979.8000;0.0749;-0.8833;
980.1000;0.0733;-0.8901;
980.4000;0.0773;-0.8810;
980.7000;0.0724;-0.8946;
981.0000;0.0749;-0.8878;
981.3000;0.0765;-0.8810;
981.6000;0.0708;-0.8924;
981.9000;0.0749;-0.8833;
982.2000;0.0733;-0.8878;
982.5000;0.0749;-0.8810;
982.8000;0.0806;-0.8788;
983.1000;0.0733;-0.8878;
983.4000;0.0749;-0.8788;
983.7000;0.0733;-0.8856;
984.0000;0.0749;-0.8878;
984.3000;0.0733;-0.8924;
984.6000;0.0741;-0.8878;
984.9000;0.0611;-0.9263;
985.2000;0.0741;-0.8878;
985.5000;0.0724;-0.8924;
985.8000;0.0741;-0.8924;
986.1000;0.0716;-0.8946;
986.4000;0.0822;-0.8652;
986.7000;0.0733;-0.8856;
987.0000;0.0765;-0.8765;
987.3000;0.0765;-0.8856;
987.6000;0.0765;-0.8788;
987.9000;0.0757;-0.8788;
988.2000;0.0692;-0.8946;
988.5000;0.0716;-0.8833;
988.8000;0.0749;-0.8697;
989.1000;0.0773;-0.8743;
989.4000;0.0716;-0.8856;
989.7000;0.0733;-0.8810;
990.0000;0.0716;-0.8788;
990.3000;0.0708;-0.8878;
990.6000;0.0749;-0.8743;
990.9000;0.0708;-0.8878;
991.2000;0.0667;-0.8992;
991.5000;0.0749;-0.8810;
991.8000;0.0757;-0.8856;
992.1000;0.0757;-0.8856;
992.4000;0.0855;-0.8607;
992.7000;0.0773;-0.8833;
993.0000;0.0773;-0.8765;
993.3000;0.0700;-0.8924;
993.6000;0.0749;-0.8697;
993.9000;0.0741;-0.8743;
994.2000;0.0822;-0.8652;
994.5000;0.0627;-0.9105;
994.8000;0.0716;-0.8946;
995.1000;0.0757;-0.8969;
995.4000;0.0716;-0.9060;
995.7000;0.0724;-0.8992;
996.0000;0.0765;-0.8878;
996.3000;0.0741;-0.8969;
996.6000;0.0741;-0.8946;
996.9000;0.0765;-0.8924;
997.2000;0.0749;-0.9037;
997.5000;0.0749;-0.8969;
997.8000;0.0757;-0.8810;
998.1000;0.0781;-0.8743;
998.4000;0.0822;-0.8697;
998.7000;0.0741;-0.8946;
999.0000;0.0830;-0.8720;
999.3000;0.0757;-0.8878;
999.6000;0.0765;-0.8901;
999.9000;0.0741;-0.8878;
1000.2000;0.0733;-0.8810;
1000.5000;0.0733;-0.8788;
1000.8000;0.0757;-0.8833;
1001.1000;0.0594;-0.9286;
1001.4000;0.0724;-0.8992;
1001.7000;0.0749;-0.8856;
1002.0000;0.0741;-0.8833;
1002.3000;0.0724;-0.8901;
1002.6000;0.0749;-0.8924;
1002.9000;0.0749;-0.8924;
1003.2000;0.0741;-0.9037;
1003.5000;0.0806;-0.8856;
1003.8000;0.0724;-0.9150;
1004.1000;0.0781;-0.9037;
1004.4000;0.0741;-0.9173;
1004.7000;0.0716;-0.9173;
1005.0000;0.0765;-0.8992;
1005.3000;0.0733;-0.9082;
1005.6000;0.0741;-0.9060;
1005.9000;0.0733;-0.9037;
1006.2000;0.0733;-0.8901;
1006.5000;0.0741;-0.8810;
1006.8000;0.0741;-0.8856;
1007.1000;0.0724;-0.8856;
1007.4000;0.0781;-0.8765;
1007.7000;0.0757;-0.8765;
1008.0000;0.0741;-0.8833;
1008.3000;0.0765;-0.8856;
1008.6000;0.0798;-0.8765;
1008.9000;0.0757;-0.8901;
1009.2000;0.0741;-0.8924;
1009.5000;0.0724;-0.8992;
1009.8000;0.0822;-0.8629;
1010.1000;0.0724;-0.8901;
1010.4000;0.0741;-0.8810;
1010.7000;0.0602;-0.9128;
1011.0000;0.0724;-0.8810;
1011.3000;0.0741;-0.8833;
1011.6000;0.0830;-0.8561;
1011.9000;0.0749;-0.8720;
1012.2000;0.0676;-0.8856;
1012.5000;0.0814;-0.8516;
1012.8000;0.0724;-0.8833;
1013.1000;0.0741;-0.8765;
1013.4000;0.0741;-0.8788;
1013.7000;0.0733;-0.8833;
1014.0000;0.0790;-0.8675;
1014.3000;0.0749;-0.8765;
1014.6000;0.0692;-0.8878;
1014.9000;0.0716;-0.8924;
1015.2000;0.0757;-0.8810;
1015.5000;0.0781;-0.8765;
1015.8000;0.0757;-0.8833;
1016.1000;0.0733;-0.8901;
1016.4000;0.0724;-0.8833;
1016.7000;0.0733;-0.8833;
1017.0000;0.0741;-0.8878;
1017.3000;0.0724;-0.8924;
1017.6000;0.0724;-0.8969;
1017.9000;0.0749;-0.8856;
1018.2000;0.0741;-0.8901;
1018.5000;0.0716;-0.8878;
1018.8000;0.0757;-0.8765;
1019.1000;0.0700;-0.8833;
1019.4000;0.0741;-0.8856;
1019.7000;0.0765;-0.8765;
1020.0000;0.0733;-0.8720;
1020.3000;0.0741;-0.8697;
1020.6000;0.0757;-0.8607;
1020.9000;0.0724;-0.8697;
1021.2000;0.0757;-0.8652;
1021.5000;0.0716;-0.8743;
1021.8000;0.0733;-0.8833;
1022.1000;0.0757;-0.8765;
1022.4000;0.0749;-0.8810;
1022.7000;0.0724;-0.8856;
1023.0000;0.0749;-0.8743;
1023.3000;0.0733;-0.8833;
1023.6000;0.0749;-0.8788;
1023.9000;0.0781;-0.8697;
1024.2000;0.0708;-0.8833;
1024.5000;0.0749;-0.8788;
1024.8000;0.0716;-0.8878;
1025.1000;0.0855;-0.8539;
1025.4000;0.0733;-0.8765;
1025.7000;0.0757;-0.8720;
1026.0000;0.0602;-0.9105;
1026.3000;0.0741;-0.8788;
1026.6000;0.0724;-0.8810;
1026.9000;0.0757;-0.8833;
1027.2000;0.0749;-0.8833;
1027.5000;0.0798;-0.8743;
1027.8000;0.0741;-0.8788;
1028.1000;0.0733;-0.8878;
1028.4000;0.0716;-0.8924;
1028.7000;0.0716;-0.8901;
1029.0000;0.0733;-0.8924;
1029.3000;0.0733;-0.9014;
1029.6000;0.0733;-0.9014;
1029.9000;0.0724;-0.9082;
1030.2000;0.0733;-0.9037;
1030.5000;0.0733;-0.9128;
1030.8000;0.0724;-0.9173;
1031.1000;0.0749;-0.9082;
1031.4000;0.0724;-0.9128;
1031.7000;0.0757;-0.8924;
1032.0000;0.0716;-0.9060;
1032.3000;0.0765;-0.8878;
1032.6000;0.0741;-0.8810;
1032.9000;0.0733;-0.8856;
1033.2000;0.0757;-0.8743;
1033.5000;0.0765;-0.8765;
1033.8000;0.0724;-0.8810;
1034.1000;0.0741;-0.8810;
1034.4000;0.0749;-0.8833;
1034.7000;0.0798;-0.8720;
1035.0000;0.0895;-0.8471;
1035.3000;0.0749;-0.8810;
1035.6000;0.0790;-0.8720;
1035.9000;0.0741;-0.8878;
1036.2000;0.0765;-0.8743;
1036.5000;0.0790;-0.8675;
1036.8000;0.0749;-0.8720;
1037.1000;0.0741;-0.8697;
1037.4000;0.0773;-0.8629;
1037.7000;0.0692;-0.8924;
1038.0000;0.0749;-0.8720;
1038.3000;0.0741;-0.8697;
1038.6000;0.0724;-0.8765;
1038.9000;0.0765;-0.8788;
1039.2000;0.0757;-0.8810;
1039.5000;0.0724;-0.8856;
1039.8000;0.0757;-0.8743;
1040.1000;0.0757;-0.8765;
1040.4000;0.0741;-0.8743;
1040.7000;0.0773;-0.8720;
1041.0000;0.0741;-0.8833;
1041.3000;0.0724;-0.8810;
1041.6000;0.0724;-0.8833;
1041.9000;0.0733;-0.8833;
1042.2000;0.0749;-0.8856;
1042.5000;0.0724;-0.8924;
1042.8000;0.0733;-0.8878;
1043.1000;0.0749;-0.8878;
1043.4000;0.0741;-0.8946;
1043.7000;0.0749;-0.8901;
1044.0000;0.0741;-0.8969;
1044.3000;0.0741;-0.8969;
1044.6000;0.0741;-0.8924;
1044.9000;0.0749;-0.8878;
1045.2000;0.0749;-0.8856;
1045.5000;0.0749;-0.8833;
1045.8000;0.0724;-0.8856;
1046.1000;0.0790;-0.8743;
1046.4000;0.0724;-0.8878;
1046.7000;0.0716;-0.8924;
1047.0000;0.0741;-0.8788;
1047.3000;0.0733;-0.8788;
1047.6000;0.0749;-0.8788;
1047.9000;0.0765;-0.8810;
1048.2000;0.0733;-0.8901;
1048.5000;0.0619;-0.9218;
1048.8000;0.0749;-0.8901;
1049.1000;0.0741;-0.8969;
1049.4000;0.0781;-0.8810;
1049.7000;0.0741;-0.8856;
1050.0000;0.0643;-0.9218;
1050.3000;0.0749;-0.8924;
1050.6000;0.0757;-0.8878;
1050.9000;0.0708;-0.8992;
1051.2000;0.0757;-0.8720;
1051.5000;0.0757;-0.8765;
1051.8000;0.0684;-0.9037;
1052.1000;0.0741;-0.8924;
1052.4000;0.0749;-0.8946;
1052.7000;0.0757;-0.8946;
1053.0000;0.0619;-0.9241;
1053.3000;0.0733;-0.8924;
1053.6000;0.0724;-0.8946;
1053.9000;0.0733;-0.8969;
1054.2000;0.0724;-0.8924;
1054.5000;0.0855;-0.8629;
1054.8000;0.0733;-0.8924;
1055.1000;0.0716;-0.9014;
1055.4000;0.0741;-0.8856;
1055.7000;0.0733;-0.8833;
1056.0000;0.0749;-0.8856;
1056.3000;0.0741;-0.8878;
1056.6000;0.0765;-0.8833;
1056.9000;0.0724;-0.8878;
1057.2000;0.0765;-0.8856;
1057.5000;0.0757;-0.8856;
1057.8000;0.0724;-0.8946;
1058.1000;0.0757;-0.8901;
1058.4000;0.0724;-0.8946;
1058.7000;0.0847;-0.8697;
1059.0000;0.0757;-0.8833;
1059.3000;0.0651;-0.9128;
1059.6000;0.0716;-0.9037;
1059.9000;0.0749;-0.8946;
1060.2000;0.0765;-0.8878;
1060.5000;0.0716;-0.8924;
1060.8000;0.0749;-0.8833;
1061.1000;0.0700;-0.8878;
1061.4000;0.0716;-0.8856;
1061.7000;0.0700;-0.8833;
1062.0000;0.0741;-0.8697;
1062.3000;0.0765;-0.8629;
1062.6000;0.0741;-0.8788;
1062.9000;0.0757;-0.8810;
1063.2000;0.0757;-0.8833;
1063.5000;0.0749;-0.8878;
1063.8000;0.0733;-0.8946;
1064.1000;0.0749;-0.8901;
1064.4000;0.0765;-0.8810;
1064.7000;0.0765;-0.8788;
1065.0000;0.0798;-0.8765;
1065.3000;0.0765;-0.8788;
1065.6000;0.0716;-0.8924;
1065.9000;0.0749;-0.8901;
1066.2000;0.0724;-0.8969;
1066.5000;0.0733;-0.8992;
1066.8000;0.0790;-0.8833;
1067.1000;0.0700;-0.9037;
1067.4000;0.0724;-0.9037;
1067.7000;0.0724;-0.9150;
1068.0000;0.0716;-0.9263;
1068.3000;0.0749;-0.9082;
1068.6000;0.0749;-0.9082;
1068.9000;0.0716;-0.9060;
1069.2000;0.0749;-0.8992;
1069.5000;0.0773;-0.9037;
1069.8000;0.0741;-0.9105;
1070.1000;0.0749;-0.9037;
1070.4000;0.0741;-0.8992;
1070.7000;0.0700;-0.9150;
1071.0000;0.0733;-0.9037;
1071.3000;0.0716;-0.9150;
1071.6000;0.0651;-0.9354;
1071.9000;0.0700;-0.9128;
1072.2000;0.0741;-0.8969;
1072.5000;0.0724;-0.8992;
1072.8000;0.0773;-0.8901;
1073.1000;0.0830;-0.8765;
1073.4000;0.0700;-0.9060;
1073.7000;0.0700;-0.9014;
1074.0000;0.0757;-0.8901;
1074.3000;0.0733;-0.8992;
1074.6000;0.0741;-0.8924;
1074.9000;0.0700;-0.8992;
1075.2000;0.0741;-0.8878;
1075.5000;0.0757;-0.8788;
1075.8000;0.0749;-0.8856;
1076.1000;0.0838;-0.8652;
1076.4000;0.0724;-0.8969;
1076.7000;0.0741;-0.9037;
1077.0000;0.0773;-0.9014;
1077.3000;0.0733;-0.9150;
1077.6000;0.0692;-0.9082;
1077.9000;0.0790;-0.8788;
1078.2000;0.0741;-0.8924;
1078.5000;0.0700;-0.8992;
1078.8000;0.0741;-0.8878;
1079.1000;0.0724;-0.8946;
1079.4000;0.0724;-0.8946;
1079.7000;0.0619;-0.9241;
1080.0000;0.0716;-0.8946;
1080.3000;0.0757;-0.8743;
1080.6000;0.0765;-0.8720;
1080.9000;0.0716;-0.8788;
1081.2000;0.0741;-0.8675;
1081.5000;0.0716;-0.8720;
1081.8000;0.0676;-0.8788;
1082.1000;0.0741;-0.8697;
1082.4000;0.0749;-0.8743;
1082.7000;0.0790;-0.8652;
1083.0000;0.0838;-0.8607;
1083.3000;0.0790;-0.8675;
1083.6000;0.0716;-0.8856;
1083.9000;0.0724;-0.8765;
1084.2000;0.0733;-0.8720;
1084.5000;0.0724;-0.8720;
1084.8000;0.0716;-0.8788;
1085.1000;0.0724;-0.8788;
1085.4000;0.0765;-0.8833;
1085.7000;0.0733;-0.8878;
1086.0000;0.0724;-0.8833;
1086.3000;0.0749;-0.8833;
1086.6000;0.0757;-0.8720;
1086.9000;0.0781;-0.8697;
1087.2000;0.0733;-0.8765;
1087.5000;0.0733;-0.8788;
1087.8000;0.0741;-0.8856;
1088.1000;0.0757;-0.8810;
1088.4000;0.0724;-0.8878;
1088.7000;0.0765;-0.8788;
1089.0000;0.0749;-0.8878;
1089.3000;0.0733;-0.8833;
1089.6000;0.0741;-0.8788;
1089.9000;0.0871;-0.8358;
1090.2000;0.0757;-0.8765;
1090.5000;0.0757;-0.8901;
1090.8000;0.0741;-0.8924;
1091.1000;0.0749;-0.8924;
1091.4000;0.0757;-0.8878;
1091.7000;0.0733;-0.8878;
1092.0000;0.0749;-0.8924;
1092.3000;0.0749;-0.8878;
1092.6000;0.0724;-0.8878;
1092.9000;0.0724;-0.8946;
1093.2000;0.0757;-0.8856;
1093.5000;0.0741;-0.8765;
1093.8000;0.0757;-0.8697;
1094.1000;0.0724;-0.8743;
1094.4000;0.0741;-0.8743;
1094.7000;0.0781;-0.8765;
1095.0000;0.0733;-0.8833;
1095.3000;0.0741;-0.8833;
1095.6000;0.0741;-0.8810;
1095.9000;0.0757;-0.8697;
1096.2000;0.0733;-0.8788;
1096.5000;0.0733;-0.8788;
1096.8000;0.0765;-0.8743;
1097.1000;0.0692;-0.8901;
1097.4000;0.0684;-0.8992;
1097.7000;0.0724;-0.8878;
1098.0000;0.0684;-0.9128;
1098.3000;0.0749;-0.8924;
1098.6000;0.0724;-0.8924;
1098.9000;0.0659;-0.9082;
1099.2000;0.0733;-0.8878;
1099.5000;0.0741;-0.8856;
1099.8000;0.0724;-0.9060;
1100.1000;0.0724;-0.9037;
1100.4000;0.0741;-0.8969;
1100.7000;0.0741;-0.8924;
1101.0000;0.0716;-0.9014;
1101.3000;0.0733;-0.8969;
1101.6000;0.0733;-0.8969;
1101.9000;0.0724;-0.8969;
1102.2000;0.0741;-0.8833;
1102.5000;0.0733;-0.8901;
1102.8000;0.0741;-0.8901;
1103.1000;0.0741;-0.8924;
1103.4000;0.0749;-0.8969;
1103.7000;0.0724;-0.9014;
1104.0000;0.0765;-0.8946;
1104.3000;0.0741;-0.8946;
1104.6000;0.0741;-0.8901;
1104.9000;0.0749;-0.8878;
1105.2000;0.0692;-0.8946;
1105.5000;0.0733;-0.8856;
1105.8000;0.0749;-0.8788;
1106.1000;0.0724;-0.8743;
1106.4000;0.0741;-0.8765;
1106.7000;0.0724;-0.8901;
1107.0000;0.0684;-0.9014;
1107.3000;0.0830;-0.8652;
1107.6000;0.0749;-0.8901;
1107.9000;0.0724;-0.8969;
1108.2000;0.0635;-0.9241;
1108.5000;0.0741;-0.9105;
1108.8000;0.0733;-0.9173;
1109.1000;0.0733;-0.9128;
1109.4000;0.0814;-0.8856;
1109.7000;0.0741;-0.8992;
1110.0000;0.0790;-0.8878;
1110.3000;0.0741;-0.9060;
1110.6000;0.0765;-0.9014;
1110.9000;0.0716;-0.9037;
1111.2000;0.0733;-0.8969;
1111.5000;0.0749;-0.8901;
1111.8000;0.0716;-0.9037;
1112.1000;0.0757;-0.8969;
1112.4000;0.0765;-0.8924;
1112.7000;0.0741;-0.8946;
1113.0000;0.0757;-0.8901;
1113.3000;0.0741;-0.8878;
1113.6000;0.0749;-0.8901;
1113.9000;0.0757;-0.8878;
1114.2000;0.0716;-0.9014;
1114.5000;0.0733;-0.8924;
1114.8000;0.0749;-0.8878;
1115.1000;0.0724;-0.8833;
1115.4000;0.0716;-0.8833;
1115.7000;0.0708;-0.8833;
1116.0000;0.0765;-0.8856;
1116.3000;0.0724;-0.8901;
1116.6000;0.0741;-0.8743;
1116.9000;0.0741;-0.8788;
1117.2000;0.0716;-0.8878;
1117.5000;0.0822;-0.8629;
1117.8000;0.0733;-0.8924;
1118.1000;0.0741;-0.8901;
1118.4000;0.0741;-0.8901;
1118.7000;0.0708;-0.8901;
1119.0000;0.0733;-0.8788;
1119.3000;0.0724;-0.8788;
1119.6000;0.0724;-0.8901;
1119.9000;0.0749;-0.8924;
1120.2000;0.0733;-0.8946;
1120.5000;0.0741;-0.8901;
1120.8000;0.0757;-0.8788;
1121.1000;0.0733;-0.8810;
1121.4000;0.0806;-0.8607;
1121.7000;0.0741;-0.8833;
1122.0000;0.0586;-0.9150;
1122.3000;0.0724;-0.8946;
1122.6000;0.0716;-0.8946;
1122.9000;0.0749;-0.8810;
1123.2000;0.0733;-0.8901;
1123.5000;0.0757;-0.8810;
1123.8000;0.0757;-0.8765;
1124.1000;0.0749;-0.8697;
1124.4000;0.0724;-0.8788;
1124.7000;0.0708;-0.8878;
1125.0000;0.0765;-0.8743;
1125.3000;0.0733;-0.8765;
1125.6000;0.0741;-0.8652;
1125.9000;0.0708;-0.8720;
1126.2000;0.0724;-0.8675;
1126.5000;0.0765;-0.8516;
1126.8000;0.0741;-0.8629;
1127.1000;0.0724;-0.8607;
1127.4000;0.0716;-0.8652;
1127.7000;0.0790;-0.8493;
1128.0000;0.0749;-0.8720;
1128.3000;0.0733;-0.8743;
1128.6000;0.0733;-0.8810;
1128.9000;0.0757;-0.8810;
1129.2000;0.0749;-0.8856;
1129.5000;0.0692;-0.9037;
1129.8000;0.0716;-0.8946;
1130.1000;0.0781;-0.8788;
1130.4000;0.0757;-0.8833;
1130.7000;0.0822;-0.8607;
1131.0000;0.0773;-0.8720;
1131.3000;0.0733;-0.8833;
1131.6000;0.0773;-0.8743;
1131.9000;0.0716;-0.8969;
1132.2000;0.0700;-0.8946;
1132.5000;0.0749;-0.8833;
1132.8000;0.0724;-0.8878;
1133.1000;0.0765;-0.8743;
1133.4000;0.0692;-0.8878;
1133.7000;0.0781;-0.8743;
1134.0000;0.0798;-0.8697;
1134.3000;0.0716;-0.8788;
1134.6000;0.0708;-0.8743;
1134.9000;0.0741;-0.8720;
1135.2000;0.0716;-0.8810;
1135.5000;0.0733;-0.8788;
1135.8000;0.0733;-0.8878;
1136.1000;0.0749;-0.8833;
1136.4000;0.0733;-0.8901;
1136.7000;0.0749;-0.8901;
1137.0000;0.0749;-0.8924;
1137.3000;0.0733;-0.8901;
1137.6000;0.0765;-0.8969;
1137.9000;0.0741;-0.9105;
1138.2000;0.0741;-0.9060;
1138.5000;0.0765;-0.8878;
1138.8000;0.0765;-0.9060;
1139.1000;0.0700;-0.9173;
1139.4000;0.0741;-0.9105;
1139.7000;0.0708;-0.9196;
1140.0000;0.0790;-0.8901;
1140.3000;0.0716;-0.9037;
1140.6000;0.0692;-0.9150;
1140.9000;0.0716;-0.9060;
1141.2000;0.0749;-0.9014;
1141.5000;0.0724;-0.9060;
1141.8000;0.0700;-0.9105;
1142.1000;0.0741;-0.8969;
1142.4000;0.0741;-0.8924;
1142.7000;0.0781;-0.8810;
1143.0000;0.0708;-0.9014;
1143.3000;0.0741;-0.8901;
1143.6000;0.0700;-0.9014;
1143.9000;0.0708;-0.8992;
1144.2000;0.0749;-0.8946;
1144.5000;0.0855;-0.8743;
1144.8000;0.0692;-0.9173;
1145.1000;0.0724;-0.9105;
1145.4000;0.0757;-0.8969;
1145.7000;0.0790;-0.8946;
1146.0000;0.0790;-0.9014;
1146.3000;0.0733;-0.9060;
1146.6000;0.0741;-0.9060;
1146.9000;0.0659;-0.9196;
1147.2000;0.0733;-0.9014;
1147.5000;0.0733;-0.9037;
1147.8000;0.0757;-0.8992;
1148.1000;0.0741;-0.9082;
1148.4000;0.0741;-0.8992;
1148.7000;0.0741;-0.8969;
1149.0000;0.0765;-0.8833;
1149.3000;0.0749;-0.8878;
1149.6000;0.0724;-0.8901;
1149.9000;0.0749;-0.9014;
1150.2000;0.0724;-0.9014;
1150.5000;0.0716;-0.8946;
1150.8000;0.0765;-0.8856;
1151.1000;0.0708;-0.8992;
1151.4000;0.0724;-0.8833;
1151.7000;0.0733;-0.8810;
1152.0000;0.0741;-0.8901;
1152.3000;0.0667;-0.8992;
1152.6000;0.0741;-0.8743;
1152.9000;0.0765;-0.8720;
1153.2000;0.0733;-0.8788;
1153.5000;0.0798;-0.8675;
1153.8000;0.0724;-0.8924;
1154.1000;0.0741;-0.8992;
1154.4000;0.0741;-0.9060;
1154.7000;0.0733;-0.8992;
1155.0000;0.0757;-0.8946;
1155.3000;0.0733;-0.9014;
1155.6000;0.0676;-0.9150;
1155.9000;0.0708;-0.9037;
1156.2000;0.0733;-0.9037;
1156.5000;0.0749;-0.8992;
1156.8000;0.0749;-0.8901;
1157.1000;0.0749;-0.8901;
1157.4000;0.0700;-0.9014;
1157.7000;0.0757;-0.8833;
1158.0000;0.0765;-0.8810;
1158.3000;0.0733;-0.8810;
1158.6000;0.0749;-0.8675;
1158.9000;0.0741;-0.8652;
1159.2000;0.0765;-0.8629;
1159.5000;0.0749;-0.8675;
1159.8000;0.0724;-0.8697;
1160.1000;0.0700;-0.8833;
1160.4000;0.0741;-0.8833;
1160.7000;0.0708;-0.8878;
1161.0000;0.0708;-0.8992;
1161.3000;0.0733;-0.9037;
1161.6000;0.0733;-0.9037;
1161.9000;0.0716;-0.9037;
1162.2000;0.0741;-0.9037;
1162.5000;0.0733;-0.8992;
1162.8000;0.0724;-0.8946;
1163.1000;0.0757;-0.8924;
1163.4000;0.0708;-0.8992;
1163.7000;0.0749;-0.8946;
1164.0000;0.0749;-0.8946;
1164.3000;0.0741;-0.8969;
1164.6000;0.0741;-0.8924;
1164.9000;0.0733;-0.8901;
1165.2000;0.0741;-0.8924;
1165.5000;0.0708;-0.8856;
1165.8000;0.0733;-0.8743;
1166.1000;0.0716;-0.8720;
1166.4000;0.0724;-0.8833;
1166.7000;0.0749;-0.8856;
1167.0000;0.0773;-0.8810;
1167.3000;0.0814;-0.8697;
1167.6000;0.0749;-0.8856;
1167.9000;0.0635;-0.9128;
1168.2000;0.0716;-0.8810;
1168.5000;0.0749;-0.8697;
1168.8000;0.0749;-0.8697;
1169.1000;0.0692;-0.8833;
1169.4000;0.0757;-0.8652;
1169.7000;0.0741;-0.8743;
1170.0000;0.0847;-0.8403;
1170.3000;0.0716;-0.8743;
1170.6000;0.0716;-0.8697;
1170.9000;0.0741;-0.8629;
1171.2000;0.0724;-0.8743;
1171.5000;0.0757;-0.8765;
1171.8000;0.0708;-0.8901;
1172.1000;0.0773;-0.8810;
1172.4000;0.0757;-0.8856;
1172.7000;0.0765;-0.8833;
1173.0000;0.0611;-0.9218;
1173.3000;0.0749;-0.8878;
1173.6000;0.0724;-0.8992;
1173.9000;0.0692;-0.9082;
1174.2000;0.0749;-0.9014;
1174.5000;0.0733;-0.8992;
1174.8000;0.0602;-0.9218;
1175.1000;0.0716;-0.8992;
1175.4000;0.0724;-0.9128;
1175.7000;0.0741;-0.9014;
1176.0000;0.0741;-0.8924;
1176.3000;0.0716;-0.8946;
1176.6000;0.0733;-0.8924;
1176.9000;0.0741;-0.8878;
1177.2000;0.0765;-0.8743;
1177.5000;0.0741;-0.8856;
1177.8000;0.0724;-0.8924;
1178.1000;0.0749;-0.8924;
1178.4000;0.0822;-0.8765;
1178.7000;0.0863;-0.8584;
1179.0000;0.0578;-0.9263;
1179.3000;0.0733;-0.8788;
1179.6000;0.0708;-0.8833;
1179.9000;0.0708;-0.8946;
1180.2000;0.0757;-0.8878;
1180.5000;0.0741;-0.8946;
1180.8000;0.0749;-0.8833;
1181.1000;0.0741;-0.8924;
1181.4000;0.0749;-0.8901;
1181.7000;0.0684;-0.8992;
1182.0000;0.0741;-0.8833;
1182.3000;0.0773;-0.8788;
1182.6000;0.0757;-0.8810;
1182.9000;0.0733;-0.8901;
1183.2000;0.0765;-0.8720;
1183.5000;0.0749;-0.8765;
1183.8000;0.0814;-0.8652;
1184.1000;0.0741;-0.8924;
1184.4000;0.0757;-0.8924;
1184.7000;0.0781;-0.8946;
1185.0000;0.0749;-0.9060;
1185.3000;0.0765;-0.9060;
1185.6000;0.0724;-0.9128;
1185.9000;0.0741;-0.9060;
1186.2000;0.0733;-0.9060;
1186.5000;0.0716;-0.8969;
1186.8000;0.0724;-0.8924;
1187.1000;0.0733;-0.8878;
1187.4000;0.0676;-0.9128;
1187.7000;0.0741;-0.8901;
1188.0000;0.0733;-0.8992;
1188.3000;0.0790;-0.8833;
1188.6000;0.0724;-0.9014;
1188.9000;0.0643;-0.9196;
1189.2000;0.0716;-0.9060;
1189.5000;0.0749;-0.8992;
1189.8000;0.0724;-0.8969;
1190.1000;0.0773;-0.8901;
1190.4000;0.0708;-0.9014;
1190.7000;0.0700;-0.9014;
1191.0000;0.0733;-0.9037;
1191.3000;0.0716;-0.9082;
1191.6000;0.0716;-0.9037;
1191.9000;0.0716;-0.8878;
1192.2000;0.0757;-0.8810;
1192.5000;0.0708;-0.8878;
1192.8000;0.0749;-0.8810;
1193.1000;0.0692;-0.8969;
1193.4000;0.0757;-0.8788;
1193.7000;0.0749;-0.8833;
1194.0000;0.0814;-0.8743;
1194.3000;0.0757;-0.8856;
1194.6000;0.0741;-0.8833;
1194.9000;0.0733;-0.8901;
1195.2000;0.0724;-0.8924;
1195.5000;0.0708;-0.9014;
1195.8000;0.0733;-0.8924;
1196.1000;0.0716;-0.8901;
1196.4000;0.0790;-0.8765;
1196.7000;0.0749;-0.8765;
1197.0000;0.0716;-0.8901;
1197.3000;0.0773;-0.8810;
1197.6000;0.0733;-0.8969;
1197.9000;0.0757;-0.8946;
1198.2000;0.0724;-0.9060;
1198.5000;0.0749;-0.8992;
1198.8000;0.0741;-0.8969;
1199.1000;0.0724;-0.9014;
1199.4000;0.0643;-0.9241;
1199.7000;0.0741;-0.9014;
1200.0000;0.0724;-0.9014;
1200.3000;0.0798;-0.8810;
1200.6000;0.0708;-0.8946;
1200.9000;0.0716;-0.8969;
1201.2000;0.0716;-0.9014;
1201.5000;0.0749;-0.8992;
1201.8000;0.0716;-0.9037;
1202.1000;0.0741;-0.8969;
1202.4000;0.0879;-0.8607;
1202.7000;0.0733;-0.8901;
1203.0000;0.0749;-0.8856;
1203.3000;0.0773;-0.8810;
1203.6000;0.0749;-0.8765;
1203.9000;0.0757;-0.8765;
1204.2000;0.0733;-0.8810;
1204.5000;0.0741;-0.8810;
1204.8000;0.0724;-0.8856;
1205.1000;0.0724;-0.8833;
1205.4000;0.0741;-0.8833;
1205.7000;0.0733;-0.8878;
1206.0000;0.0733;-0.8901;
1206.3000;0.0741;-0.8856;
1206.6000;0.0749;-0.8901;
1206.9000;0.0684;-0.9105;
1207.2000;0.0733;-0.8992;
1207.5000;0.0724;-0.9037;
1207.8000;0.0741;-0.8992;
1208.1000;0.0749;-0.9014;
1208.4000;0.0733;-0.9060;
1208.7000;0.0708;-0.9105;
1209.0000;0.0741;-0.9037;
1209.3000;0.0790;-0.8992;
1209.6000;0.0733;-0.9014;
1209.9000;0.0749;-0.8969;
1210.2000;0.0749;-0.8969;
1210.5000;0.0733;-0.8969;
1210.8000;0.0757;-0.8946;
1211.1000;0.0733;-0.9060;
1211.4000;0.0749;-0.8969;
1211.7000;0.0692;-0.9105;
1212.0000;0.0708;-0.9128;
1212.3000;0.0741;-0.9105;
1212.6000;0.0749;-0.9082;
1212.9000;0.0741;-0.9173;
1213.2000;0.0733;-0.9196;
1213.5000;0.0676;-0.9286;
1213.8000;0.0741;-0.9060;
1214.1000;0.0684;-0.9105;
1214.4000;0.0724;-0.8946;
1214.7000;0.0741;-0.8946;
1215.0000;0.0749;-0.8901;
1215.3000;0.0741;-0.8810;
1215.6000;0.0659;-0.9082;
1215.9000;0.0741;-0.8924;
1216.2000;0.0733;-0.8946;
1216.5000;0.0733;-0.8901;
1216.8000;0.0757;-0.8810;
1217.1000;0.0724;-0.8856;
1217.4000;0.0765;-0.8788;
1217.7000;0.0741;-0.8901;
1218.0000;0.0643;-0.9173;
1218.3000;0.0741;-0.9037;
1218.6000;0.0749;-0.8992;
1218.9000;0.0716;-0.9037;
1219.2000;0.0749;-0.8969;
1219.5000;0.0749;-0.8924;
1219.8000;0.0757;-0.8992;
1220.1000;0.0749;-0.9037;
1220.4000;0.0724;-0.9128;
1220.7000;0.0733;-0.9037;
1221.0000;0.0733;-0.9037;
1221.3000;0.0749;-0.8969;
1221.6000;0.0741;-0.8969;
1221.9000;0.0757;-0.8924;
1222.2000;0.0749;-0.8856;
1222.5000;0.0749;-0.8788;
1222.8000;0.0733;-0.8878;
1223.1000;0.0741;-0.8901;
1223.4000;0.0781;-0.8833;
1223.7000;0.0773;-0.8833;
1224.0000;0.0773;-0.8833;
1224.3000;0.0716;-0.9037;
1224.6000;0.0724;-0.8946;
1224.9000;0.0708;-0.8901;
1225.2000;0.0749;-0.8810;
1225.5000;0.0733;-0.8788;
1225.8000;0.0724;-0.8810;
1226.1000;0.0733;-0.8833;
1226.4000;0.0716;-0.8878;
1226.7000;0.0765;-0.8743;
1227.0000;0.0716;-0.8810;
1227.3000;0.0716;-0.8901;
1227.6000;0.0757;-0.8788;
1227.9000;0.0708;-0.8901;
1228.2000;0.0733;-0.8901;
1228.5000;0.0733;-0.8969;
1228.8000;0.0667;-0.9241;
1229.1000;0.0757;-0.9082;
1229.4000;0.0733;-0.9150;
1229.7000;0.0684;-0.9196;
1230.0000;0.0724;-0.8992;
1230.3000;0.0749;-0.8924;
1230.6000;0.0879;-0.8584;
1230.9000;0.0716;-0.8992;
1231.2000;0.0733;-0.9037;
1231.5000;0.0749;-0.9014;
1231.8000;0.0724;-0.9082;
1232.1000;0.0741;-0.8946;
1232.4000;0.0749;-0.8856;
1232.7000;0.0741;-0.8856;
1233.0000;0.0741;-0.8856;
1233.3000;0.0749;-0.8901;
1233.6000;0.0765;-0.8901;
1233.9000;0.0741;-0.8946;
1234.2000;0.0741;-0.8878;
1234.5000;0.0684;-0.8946;
1234.8000;0.0733;-0.8901;
1235.1000;0.0716;-0.8924;
1235.4000;0.0667;-0.9037;
1235.7000;0.0733;-0.8901;
1236.0000;0.0733;-0.8833;
1236.3000;0.0741;-0.8788;
1236.6000;0.0700;-0.8901;
1236.9000;0.0684;-0.8901;
1237.2000;0.0724;-0.8901;
1237.5000;0.0676;-0.8969;
1237.8000;0.0749;-0.8878;
1238.1000;0.0749;-0.8878;
1238.4000;0.0733;-0.9014;
1238.7000;0.0708;-0.8992;
1239.0000;0.0773;-0.8878;
1239.3000;0.0749;-0.8924;
1239.6000;0.0749;-0.8992;
1239.9000;0.0724;-0.9128;
1240.2000;0.0733;-0.9082;
1240.5000;0.0765;-0.9037;
1240.8000;0.0733;-0.9037;
1241.1000;0.0871;-0.8720;
1241.4000;0.0708;-0.9082;
1241.7000;0.0716;-0.9037;
1242.0000;0.0757;-0.8856;
1242.3000;0.0733;-0.8856;
1242.6000;0.0619;-0.9082;
1242.9000;0.0749;-0.8810;
1243.2000;0.0749;-0.8810;
1243.5000;0.0733;-0.8856;
1243.8000;0.0749;-0.8901;
1244.1000;0.0733;-0.8969;
1244.4000;0.0749;-0.8969;
1244.7000;0.0716;-0.8992;
1245.0000;0.0724;-0.9060;
1245.3000;0.0733;-0.9082;
1245.6000;0.0749;-0.9037;
1245.9000;0.0724;-0.9105;
1246.2000;0.0692;-0.9150;
1246.5000;0.0724;-0.8946;
1246.8000;0.0716;-0.8946;
1247.1000;0.0733;-0.8901;
1247.4000;0.0700;-0.8969;
1247.7000;0.0781;-0.8765;
1248.0000;0.0757;-0.8856;
1248.3000;0.0757;-0.8992;
1248.6000;0.0716;-0.9105;
1248.9000;0.0716;-0.9014;
1249.2000;0.0716;-0.9082;
1249.5000;0.0749;-0.9014;
1249.8000;0.0757;-0.8992;
1250.1000;0.0733;-0.9060;
1250.4000;0.0724;-0.9082;
1250.7000;0.0708;-0.9196;
1251.0000;0.0733;-0.9173;
1251.3000;0.0741;-0.9128;
1251.6000;0.0741;-0.9105;
1251.9000;0.0741;-0.9060;
1252.2000;0.0749;-0.8969;
1252.5000;0.0700;-0.9105;
1252.8000;0.0741;-0.9037;
1253.1000;0.0741;-0.9173;
1253.4000;0.0749;-0.9082;
1253.7000;0.0757;-0.9060;
1254.0000;0.0781;-0.9082;
1254.3000;0.0733;-0.9173;
1254.6000;0.0749;-0.9060;
1254.9000;0.0733;-0.9150;
1255.2000;0.0700;-0.9196;
1255.5000;0.0765;-0.8992;
1255.8000;0.0741;-0.8992;
1256.1000;0.0733;-0.8878;
1256.4000;0.0798;-0.8652;
1256.7000;0.0765;-0.8765;
1257.0000;0.0716;-0.8810;
1257.3000;0.0741;-0.8856;
1257.6000;0.0749;-0.8878;
1257.9000;0.0749;-0.8878;
1258.2000;0.0733;-0.8924;
1258.5000;0.0741;-0.8924;
1258.8000;0.0749;-0.8901;
1259.1000;0.0708;-0.8969;
1259.4000;0.0724;-0.8878;
1259.7000;0.0716;-0.8992;
1260.0000;0.0765;-0.8924;
1260.3000;0.0741;-0.9060;
1260.6000;0.0724;-0.9105;
1260.9000;0.0757;-0.9105;
1261.2000;0.0749;-0.9128;
1261.5000;0.0724;-0.9105;
1261.8000;0.0708;-0.9082;
1262.1000;0.0741;-0.9060;
1262.4000;0.0700;-0.9196;
1262.7000;0.0733;-0.9105;
1263.0000;0.0814;-0.8901;
1263.3000;0.0757;-0.9060;
1263.6000;0.0806;-0.8901;
1263.9000;0.0733;-0.9082;
1264.2000;0.0733;-0.9150;
1264.5000;0.0741;-0.9241;
1264.8000;0.0733;-0.9128;
1265.1000;0.0724;-0.9196;
1265.4000;0.0733;-0.9196;
1265.7000;0.0724;-0.9196;
1266.0000;0.0838;-0.8924;
1266.3000;0.0724;-0.9128;
1266.6000;0.0724;-0.9082;
1266.9000;0.0757;-0.9014;
1267.2000;0.0773;-0.8946;
1267.5000;0.0741;-0.8969;
1267.8000;0.0733;-0.8946;
1268.1000;0.0741;-0.8969;
1268.4000;0.0724;-0.8992;
1268.7000;0.0757;-0.8901;
1269.0000;0.0724;-0.8856;
1269.3000;0.0741;-0.8833;
1269.6000;0.0733;-0.8924;
1269.9000;0.0830;-0.8743;
1270.2000;0.0879;-0.8675;
1270.5000;0.0733;-0.8924;
1270.8000;0.0749;-0.8946;
1271.1000;0.0716;-0.9014;
1271.4000;0.0741;-0.8924;
1271.7000;0.0749;-0.8924;
1272.0000;0.0749;-0.8946;
1272.3000;0.0781;-0.8901;
1272.6000;0.0724;-0.9014;
1272.9000;0.0741;-0.8992;
1273.2000;0.0749;-0.8901;
1273.5000;0.0733;-0.8901;
1273.8000;0.0733;-0.9037;
1274.1000;0.0741;-0.9060;
1274.4000;0.0602;-0.9399;
1274.7000;0.0749;-0.9037;
1275.0000;0.0741;-0.9082;
1275.3000;0.0749;-0.9060;
1275.6000;0.0724;-0.9128;
1275.9000;0.0733;-0.9150;
1276.2000;0.0627;-0.9399;
1276.5000;0.0724;-0.9105;
1276.8000;0.0667;-0.9128;
1277.1000;0.0790;-0.8810;
1277.4000;0.0716;-0.8946;
1277.7000;0.0724;-0.8901;
1278.0000;0.0716;-0.8878;
1278.3000;0.0724;-0.8856;
1278.6000;0.0708;-0.8901;
1278.9000;0.0724;-0.8878;
1279.2000;0.0594;-0.9196;
1279.5000;0.0733;-0.8856;
1279.8000;0.0847;-0.8607;
1280.1000;0.0749;-0.8878;
1280.4000;0.0798;-0.8720;
1280.7000;0.0765;-0.8878;
1281.0000;0.0757;-0.8878;
1281.3000;0.0741;-0.8901;
1281.6000;0.0741;-0.8856;
1281.9000;0.0724;-0.8856;
1282.2000;0.0733;-0.8878;
1282.5000;0.0741;-0.8924;
1282.8000;0.0724;-0.9060;
1283.1000;0.0741;-0.8969;
1283.4000;0.0895;-0.8539;
1283.7000;0.0749;-0.8969;
1284.0000;0.0708;-0.9037;
1284.3000;0.0822;-0.8833;
1284.6000;0.0684;-0.9241;
1284.9000;0.0700;-0.9173;
1285.2000;0.0741;-0.9128;
1285.5000;0.0733;-0.9150;
1285.8000;0.0749;-0.9037;
1286.1000;0.0741;-0.9037;
1286.4000;0.0716;-0.9014;
1286.7000;0.0741;-0.8878;
1287.0000;0.0733;-0.8946;
1287.3000;0.0741;-0.8924;
1287.6000;0.0676;-0.9082;
1287.9000;0.0781;-0.8901;
1288.2000;0.0741;-0.9037;
1288.5000;0.0741;-0.9105;
1288.8000;0.0757;-0.9105;
1289.1000;0.0749;-0.9128;
1289.4000;0.0749;-0.9082;
1289.7000;0.0798;-0.8924;
1290.0000;0.0773;-0.8969;
1290.3000;0.0757;-0.8969;
1290.6000;0.0708;-0.9014;
1290.9000;0.0741;-0.8856;
1291.2000;0.0757;-0.8856;
1291.5000;0.0733;-0.8878;
1291.8000;0.0708;-0.8946;
1292.1000;0.0741;-0.8924;
1292.4000;0.0765;-0.8856;
1292.7000;0.0733;-0.8878;
1293.0000;0.0749;-0.8901;
1293.3000;0.0749;-0.8992;
1293.6000;0.0741;-0.9060;
1293.9000;0.0765;-0.8992;
1294.2000;0.0733;-0.8992;
1294.5000;0.0716;-0.9014;
1294.8000;0.0773;-0.8946;
1295.1000;0.0765;-0.8946;
1295.4000;0.0749;-0.8946;
1295.7000;0.0765;-0.8833;
1296.0000;0.0749;-0.8856;
1296.3000;0.0724;-0.8969;
1296.6000;0.0724;-0.8833;
1296.9000;0.0716;-0.8878;
1297.2000;0.0757;-0.8788;
1297.5000;0.0773;-0.8720;
1297.8000;0.0749;-0.8810;
1298.1000;0.0749;-0.8810;
1298.4000;0.0765;-0.8810;
1298.7000;0.0733;-0.8856;
1299.0000;0.0773;-0.8720;
1299.3000;0.0765;-0.8810;
1299.6000;0.0611;-0.9218;
1299.9000;0.0741;-0.8901;
1300.2000;0.0749;-0.8924;
1300.5000;0.0790;-0.8856;
1300.8000;0.0749;-0.8924;
1301.1000;0.0659;-0.9150;
1301.4000;0.0724;-0.9014;
1301.7000;0.0749;-0.8856;
1302.0000;0.0733;-0.8856;
1302.3000;0.0749;-0.8856;
1302.6000;0.0749;-0.8924;
1302.9000;0.0765;-0.8833;
1303.2000;0.0676;-0.9037;
1303.5000;0.0676;-0.9037;
1303.8000;0.0741;-0.8878;
1304.1000;0.0757;-0.8878;
1304.4000;0.0871;-0.8629;
1304.7000;0.0724;-0.9082;
1305.0000;0.0716;-0.9060;
1305.3000;0.0667;-0.9173;
1305.6000;0.0757;-0.8833;
1305.9000;0.0790;-0.8743;
1306.2000;0.0724;-0.8878;
1306.5000;0.0757;-0.8856;
1306.8000;0.0749;-0.8833;
1307.1000;0.0700;-0.8992;
1307.4000;0.0790;-0.8765;
1307.7000;0.0724;-0.8992;
1308.0000;0.0692;-0.9128;
1308.3000;0.0741;-0.8969;
1308.6000;0.0741;-0.9037;
1308.9000;0.0700;-0.9105;
1309.2000;0.0733;-0.9014;
1309.5000;0.0700;-0.9014;
1309.8000;0.0716;-0.8924;
1310.1000;0.0692;-0.8992;
1310.4000;0.0757;-0.8924;
1310.7000;0.0724;-0.9014;
1311.0000;0.0716;-0.9014;
1311.3000;0.0724;-0.9037;
1311.6000;0.0724;-0.9014;
1311.9000;0.0724;-0.9082;
1312.2000;0.0724;-0.9173;
1312.5000;0.0757;-0.9037;
1312.8000;0.0741;-0.9060;
1313.1000;0.0733;-0.8946;
1313.4000;0.0765;-0.8946;
1313.7000;0.0716;-0.8992;
1314.0000;0.0708;-0.9014;
1314.3000;0.0733;-0.8992;
1314.6000;0.0798;-0.8810;
1314.9000;0.0741;-0.9014;
1315.2000;0.0716;-0.9128;
1315.5000;0.0773;-0.9082;
1315.8000;0.0749;-0.9060;
1316.1000;0.0733;-0.9060;
1316.4000;0.0676;-0.9150;
1316.7000;0.0790;-0.8810;
1317.0000;0.0684;-0.9014;
1317.3000;0.0790;-0.8810;
1317.6000;0.0733;-0.8992;
1317.9000;0.0733;-0.9014;
1318.2000;0.0708;-0.9128;
1318.5000;0.0741;-0.8992;
1318.8000;0.0627;-0.9354;
1319.1000;0.0733;-0.9060;
1319.4000;0.0757;-0.8992;
1319.7000;0.0741;-0.8992;
1320.0000;0.0741;-0.8969;
1320.3000;0.0757;-0.8946;
1320.6000;0.0741;-0.9105;
1320.9000;0.0724;-0.9105;
1321.2000;0.0708;-0.9037;
1321.5000;0.0708;-0.9037;
1321.8000;0.0684;-0.9105;
1322.1000;0.0708;-0.9060;
1322.4000;0.0741;-0.9037;
1322.7000;0.0733;-0.9128;
1323.0000;0.0676;-0.9309;
1323.3000;0.0749;-0.9218;
1323.6000;0.0733;-0.9286;
1323.9000;0.0773;-0.9173;
1324.2000;0.0733;-0.9331;
1324.5000;0.0708;-0.9263;
1324.8000;0.0749;-0.9218;
1325.1000;0.0716;-0.9309;
1325.4000;0.0692;-0.9309;
1325.7000;0.0773;-0.9173;
1326.0000;0.0700;-0.9331;
1326.3000;0.0733;-0.9263;
1326.6000;0.0741;-0.9331;
1326.9000;0.0757;-0.9218;
1327.2000;0.0741;-0.9309;
1327.5000;0.0741;-0.9263;
1327.8000;0.0724;-0.9309;
1328.1000;0.0741;-0.9241;
1328.4000;0.0741;-0.9218;
1328.7000;0.0733;-0.9286;
1329.0000;0.0773;-0.9241;
1329.3000;0.0749;-0.9331;
1329.6000;0.0798;-0.9263;
1329.9000;0.0724;-0.9354;
1330.2000;0.0733;-0.9331;
1330.5000;0.0741;-0.9354;
1330.8000;0.0716;-0.9422;
1331.1000;0.0724;-0.9467;
1331.4000;0.0741;-0.9377;
1331.7000;0.0781;-0.9218;
1332.0000;0.0741;-0.9173;
1332.3000;0.0724;-0.9218;
1332.6000;0.0724;-0.9128;
1332.9000;0.0716;-0.9218;
1333.2000;0.0765;-0.9105;
1333.5000;0.0724;-0.9263;
1333.8000;0.0741;-0.9286;
1334.1000;0.0757;-0.9241;
1334.4000;0.0749;-0.9354;
1334.7000;0.0667;-0.9558;
1335.0000;0.0871;-0.8992;
1335.3000;0.0733;-0.9309;
1335.6000;0.0757;-0.9241;
1335.9000;0.0676;-0.9399;
1336.2000;0.0692;-0.9241;
1336.5000;0.0724;-0.9173;
1336.8000;0.0733;-0.9105;
1337.1000;0.0724;-0.9060;
1337.4000;0.0781;-0.9060;
1337.7000;0.0765;-0.9082;
1338.0000;0.0733;-0.9150;
1338.3000;0.0773;-0.9014;
1338.6000;0.0749;-0.9150;
1338.9000;0.0749;-0.9150;
1339.2000;0.0627;-0.9467;
1339.5000;0.0741;-0.9082;
1339.8000;0.0733;-0.9150;
1340.1000;0.0741;-0.9037;
1340.4000;0.0749;-0.9060;
1340.7000;0.0724;-0.9037;
1341.0000;0.0741;-0.9037;
1341.3000;0.0741;-0.9014;
1341.6000;0.0716;-0.9105;
1341.9000;0.0733;-0.9060;
1342.2000;0.0692;-0.9241;
1342.5000;0.0716;-0.9241;
1342.8000;0.0733;-0.9218;
1343.1000;0.0741;-0.9196;
1343.4000;0.0741;-0.9105;
1343.7000;0.0716;-0.9105;
1344.0000;0.0724;-0.9082;
1344.3000;0.0724;-0.9105;
1344.6000;0.0741;-0.9128;
1344.9000;0.0741;-0.9105;
1345.2000;0.0733;-0.9196;
1345.5000;0.0733;-0.9263;
1345.8000;0.0700;-0.9263;
1346.1000;0.0757;-0.9128;
1346.4000;0.0741;-0.9105;
1346.7000;0.0716;-0.9150;
1347.0000;0.0635;-0.9286;
1347.3000;0.0724;-0.9082;
1347.6000;0.0733;-0.9037;
1347.9000;0.0724;-0.9060;
1348.2000;0.0716;-0.9014;
1348.5000;0.0716;-0.9037;
1348.8000;0.0757;-0.8992;
1349.1000;0.0724;-0.9105;
1349.4000;0.0692;-0.9173;
1349.7000;0.0724;-0.9082;
1350.0000;0.0757;-0.9128;
1350.3000;0.0733;-0.9150;
1350.6000;0.0733;-0.9037;
1350.9000;0.0757;-0.9014;
1351.2000;0.0733;-0.9014;
1351.5000;0.0700;-0.9060;
1351.8000;0.0700;-0.9150;
1352.1000;0.0724;-0.9060;
1352.4000;0.0733;-0.9014;
1352.7000;0.0765;-0.8969;
1353.0000;0.0765;-0.9082;
1353.3000;0.0806;-0.8901;
1353.6000;0.0708;-0.9218;
1353.9000;0.0667;-0.9377;
1354.2000;0.0733;-0.9263;
1354.5000;0.0773;-0.9150;
1354.8000;0.0757;-0.9218;
1355.1000;0.0733;-0.9241;
1355.4000;0.0692;-0.9422;
1355.7000;0.0724;-0.9263;
1356.0000;0.0684;-0.9241;
1356.3000;0.0757;-0.9128;
1356.6000;0.0871;-0.8901;
1356.9000;0.0602;-0.9535;
1357.2000;0.0724;-0.9218;
1357.5000;0.0741;-0.9150;
1357.8000;0.0781;-0.9082;
1358.1000;0.0733;-0.9218;
1358.4000;0.0749;-0.9241;
1358.7000;0.0749;-0.9218;
1359.0000;0.0708;-0.9309;
1359.3000;0.0741;-0.9128;
1359.6000;0.0749;-0.9173;
1359.9000;0.0733;-0.9241;
1360.2000;0.0700;-0.9173;
1360.5000;0.0749;-0.9082;
1360.8000;0.0749;-0.9196;
1361.1000;0.0733;-0.9218;
1361.4000;0.0716;-0.9196;
1361.7000;0.0765;-0.9082;
1362.0000;0.0724;-0.9173;
1362.3000;0.0716;-0.9218;
1362.6000;0.0773;-0.9105;
1362.9000;0.0757;-0.9218;
1363.2000;0.0733;-0.9331;
1363.5000;0.0741;-0.9241;
1363.8000;0.0716;-0.9263;
1364.1000;0.0733;-0.9173;
1364.4000;0.0781;-0.9105;
1364.7000;0.0773;-0.9105;
1365.0000;0.0895;-0.8765;
1365.3000;0.0749;-0.9105;
1365.6000;0.0757;-0.9060;
1365.9000;0.0667;-0.9309;
1366.2000;0.0733;-0.9241;
1366.5000;0.0749;-0.9218;
1366.8000;0.0733;-0.9241;
1367.1000;0.0724;-0.9309;
1367.4000;0.0749;-0.9331;
1367.7000;0.0724;-0.9399;
1368.0000;0.0733;-0.9309;
1368.3000;0.0733;-0.9309;
1368.6000;0.0773;-0.9173;
1368.9000;0.0765;-0.9309;
1369.2000;0.0741;-0.9399;
1369.5000;0.0733;-0.9399;
1369.8000;0.0806;-0.9173;
1370.1000;0.0822;-0.9037;
1370.4000;0.0684;-0.9309;
1370.7000;0.0724;-0.9241;
1371.0000;0.0733;-0.9218;
1371.3000;0.0716;-0.9263;
1371.6000;0.0733;-0.9263;
1371.9000;0.0733;-0.9377;
1372.2000;0.0757;-0.9309;
1372.5000;0.0757;-0.9377;
1372.8000;0.0741;-0.9331;
1373.1000;0.0733;-0.9422;
1373.4000;0.0757;-0.9354;
1373.7000;0.0741;-0.9399;
1374.0000;0.0741;-0.9422;
1374.3000;0.0749;-0.9399;
1374.6000;0.0749;-0.9399;
1374.9000;0.0741;-0.9286;
1375.2000;0.0700;-0.9331;
1375.5000;0.0651;-0.9535;
1375.8000;0.0724;-0.9128;
1376.1000;0.0692;-0.9150;
1376.4000;0.0773;-0.9105;
1376.7000;0.0716;-0.9309;
1377.0000;0.0708;-0.9354;
1377.3000;0.0814;-0.9196;
1377.6000;0.0790;-0.9309;
1377.9000;0.0887;-0.9037;
1378.2000;0.0757;-0.9445;
1378.5000;0.0773;-0.9399;
1378.8000;0.0798;-0.9309;
1379.1000;0.0749;-0.9399;
1379.4000;0.0790;-0.9263;
1379.7000;0.0757;-0.9331;
1380.0000;0.0611;-0.9671;
1380.3000;0.0741;-0.9331;
1380.6000;0.0676;-0.9513;
1380.9000;0.0700;-0.9377;
1381.2000;0.0724;-0.9331;
1381.5000;0.0741;-0.9286;
1381.8000;0.0724;-0.9286;
1382.1000;0.0733;-0.9241;
1382.4000;0.0724;-0.9263;
1382.7000;0.0733;-0.9309;
1383.0000;0.0757;-0.9196;
1383.3000;0.0741;-0.9150;
1383.6000;0.0749;-0.9082;
1383.9000;0.0733;-0.9173;
1384.2000;0.0798;-0.9060;
1384.5000;0.0700;-0.9309;
1384.8000;0.0733;-0.9309;
1385.1000;0.0741;-0.9331;
1385.4000;0.0757;-0.9309;
1385.7000;0.0749;-0.9263;
1386.0000;0.0765;-0.9218;
1386.3000;0.0716;-0.9286;
1386.6000;0.0757;-0.9218;
1386.9000;0.0733;-0.9241;
1387.2000;0.0716;-0.9309;
1387.5000;0.0724;-0.9263;
1387.8000;0.0741;-0.9241;
1388.1000;0.0757;-0.9105;
1388.4000;0.0716;-0.9150;
1388.7000;0.0741;-0.9037;
1389.0000;0.0724;-0.9060;
1389.3000;0.0765;-0.8946;
1389.6000;0.0733;-0.9060;
1389.9000;0.0741;-0.9060;
1390.2000;0.0741;-0.8992;
1390.5000;0.0765;-0.8878;
1390.8000;0.0741;-0.8924;
1391.1000;0.0741;-0.8901;
1391.4000;0.0692;-0.8992;
1391.7000;0.0733;-0.8856;
1392.0000;0.0733;-0.8878;
1392.3000;0.0741;-0.8901;
1392.6000;0.0765;-0.8833;
1392.9000;0.0749;-0.8810;
1393.2000;0.0749;-0.8901;
1393.5000;0.0773;-0.8856;
1393.8000;0.0749;-0.9037;
1394.1000;0.0724;-0.9060;
1394.4000;0.0724;-0.8946;
1394.7000;0.0749;-0.8901;
1395.0000;0.0733;-0.8924;
1395.3000;0.0724;-0.8969;
1395.6000;0.0741;-0.8992;
1395.9000;0.0716;-0.9082;
1396.2000;0.0733;-0.9060;
1396.5000;0.0716;-0.9196;
1396.8000;0.0733;-0.9218;
1397.1000;0.0733;-0.9196;
1397.4000;0.0741;-0.9128;
1397.7000;0.0724;-0.9173;
1398.0000;0.0741;-0.9082;
1398.3000;0.0741;-0.9060;
1398.6000;0.0781;-0.9014;
1398.9000;0.0724;-0.9173;
1399.2000;0.0741;-0.9150;
1399.5000;0.0741;-0.9241;
1399.8000;0.0741;-0.9331;
