time/ms;Fluo/V;P700 deltaI/I x10³;
-199.8000;0.0757;-0.9852;
-199.5000;0.0749;-0.9898;
-199.2000;0.0757;-0.9920;
-198.9000;0.0741;-0.9943;
-198.6000;0.0757;-0.9898;
-198.3000;0.0765;-0.9852;
-198.0000;0.0676;-1.0124;
-197.7000;0.0765;-0.9943;
-197.4000;0.0765;-0.9966;
-197.1000;0.0757;-1.0011;
-196.8000;0.0741;-1.0034;
-196.5000;0.0757;-0.9943;
-196.2000;0.0773;-0.9852;
-195.9000;0.0757;-0.9830;
-195.6000;0.0733;-0.9898;
-195.3000;0.0741;-0.9966;
-195.0000;0.0716;-0.9988;
-194.7000;0.0741;-1.0034;
-194.4000;0.0741;-1.0011;
-194.1000;0.0765;-0.9966;
-193.8000;0.0741;-0.9920;
-193.5000;0.0749;-0.9807;
-193.2000;0.0741;-0.9762;
-192.9000;0.0741;-0.9784;
-192.6000;0.0741;-0.9852;
-192.3000;0.0773;-0.9807;
-192.0000;0.0830;-0.9626;
-191.7000;0.0757;-0.9784;
-191.4000;0.0757;-0.9762;
-191.1000;0.0781;-0.9671;
-190.8000;0.0749;-0.9762;
-190.5000;0.0749;-0.9739;
-190.2000;0.0700;-0.9830;
-189.9000;0.0757;-0.9581;
-189.6000;0.0749;-0.9626;
-189.3000;0.0741;-0.9694;
-189.0000;0.0700;-0.9830;
-188.7000;0.0741;-0.9762;
-188.4000;0.0781;-0.9716;
-188.1000;0.0741;-0.9739;
-187.8000;0.0741;-0.9739;
-187.5000;0.0602;-1.0101;
-187.2000;0.0716;-0.9852;
-186.9000;0.0749;-0.9716;
-186.6000;0.0741;-0.9784;
-186.3000;0.0765;-0.9649;
-186.0000;0.0757;-0.9694;
-185.7000;0.0757;-0.9762;
-185.4000;0.0741;-0.9784;
-185.1000;0.0749;-0.9739;
-184.8000;0.0692;-0.9898;
-184.5000;0.0741;-0.9807;
-184.2000;0.0773;-0.9762;
-183.9000;0.0765;-0.9784;
-183.6000;0.0757;-0.9830;
-183.3000;0.0741;-0.9830;
-183.0000;0.0749;-0.9784;
-182.7000;0.0741;-0.9716;
-182.4000;0.0757;-0.9784;
-182.1000;0.0773;-0.9784;
-181.8000;0.0773;-0.9762;
-181.5000;0.0749;-0.9784;
-181.2000;0.0790;-0.9716;
-180.9000;0.0765;-0.9807;
-180.6000;0.0749;-0.9875;
-180.3000;0.0602;-1.0237;
-180.0000;0.0757;-0.9943;
-179.7000;0.0741;-0.9920;
-179.4000;0.0716;-1.0011;
-179.1000;0.0708;-0.9966;
-178.8000;0.0692;-1.0034;
-178.5000;0.0733;-0.9943;
-178.2000;0.0733;-1.0034;
-177.9000;0.0757;-1.0011;
-177.6000;0.0741;-0.9988;
-177.3000;0.0741;-0.9920;
-177.0000;0.0757;-0.9875;
-176.7000;0.0741;-0.9852;
-176.4000;0.0741;-0.9852;
-176.1000;0.0724;-0.9852;
-175.8000;0.0757;-0.9807;
-175.5000;0.0757;-0.9784;
-175.2000;0.0765;-0.9716;
-174.9000;0.0749;-0.9807;
-174.6000;0.0814;-0.9535;
-174.3000;0.0749;-0.9626;
-174.0000;0.0741;-0.9694;
-173.7000;0.0757;-0.9739;
-173.4000;0.0757;-0.9807;
-173.1000;0.0765;-0.9784;
-172.8000;0.0651;-0.9943;
-172.5000;0.0700;-0.9807;
-172.2000;0.0716;-0.9784;
-171.9000;0.0765;-0.9694;
-171.6000;0.0765;-0.9694;
-171.3000;0.0749;-0.9739;
-171.0000;0.0757;-0.9694;
-170.7000;0.0741;-0.9694;
-170.4000;0.0830;-0.9558;
-170.1000;0.0749;-0.9852;
-169.8000;0.0724;-0.9920;
-169.5000;0.0806;-0.9762;
-169.2000;0.0733;-0.9943;
-168.9000;0.0781;-0.9852;
-168.6000;0.0724;-1.0011;
-168.3000;0.0741;-0.9966;
-168.0000;0.0741;-0.9920;
-167.7000;0.0708;-1.0056;
-167.4000;0.0749;-0.9943;
-167.1000;0.0773;-0.9920;
-166.8000;0.0806;-0.9807;
-166.5000;0.0749;-0.9920;
-166.2000;0.0749;-0.9852;
-165.9000;0.0749;-0.9784;
-165.6000;0.0757;-0.9739;
-165.3000;0.0765;-0.9739;
-165.0000;0.0741;-0.9875;
-164.7000;0.0724;-0.9920;
-164.4000;0.0749;-0.9784;
-164.1000;0.0724;-0.9875;
-163.8000;0.0741;-0.9830;
-163.5000;0.0724;-0.9852;
-163.2000;0.0733;-0.9716;
-162.9000;0.0749;-0.9649;
-162.6000;0.0781;-0.9558;
-162.3000;0.0741;-0.9694;
-162.0000;0.0749;-0.9739;
-161.7000;0.0692;-0.9875;
-161.4000;0.0765;-0.9603;
-161.1000;0.0749;-0.9581;
-160.8000;0.0830;-0.9445;
-160.5000;0.0765;-0.9558;
-160.2000;0.0708;-0.9603;
-159.9000;0.0757;-0.9558;
-159.6000;0.0733;-0.9603;
-159.3000;0.0749;-0.9626;
-159.0000;0.0765;-0.9490;
-158.7000;0.0806;-0.9399;
-158.4000;0.0749;-0.9558;
-158.1000;0.0765;-0.9445;
-157.8000;0.0741;-0.9399;
-157.5000;0.0733;-0.9422;
-157.2000;0.0765;-0.9399;
-156.9000;0.0757;-0.9422;
-156.6000;0.0773;-0.9377;
-156.3000;0.0676;-0.9716;
-156.0000;0.0733;-0.9581;
-155.7000;0.0814;-0.9399;
-155.4000;0.0765;-0.9581;
-155.1000;0.0749;-0.9603;
-154.8000;0.0749;-0.9603;
-154.5000;0.0700;-0.9694;
-154.2000;0.0830;-0.9399;
-153.9000;0.0765;-0.9603;
-153.6000;0.0741;-0.9626;
-153.3000;0.0733;-0.9626;
-153.0000;0.0643;-0.9807;
-152.7000;0.0708;-0.9649;
-152.4000;0.0724;-0.9626;
-152.1000;0.0724;-0.9603;
-151.8000;0.0692;-0.9784;
-151.5000;0.0724;-0.9716;
-151.2000;0.0733;-0.9762;
-150.9000;0.0733;-0.9830;
-150.6000;0.0733;-0.9875;
-150.3000;0.0749;-0.9898;
-150.0000;0.0749;-0.9852;
-149.7000;0.0724;-0.9875;
-149.4000;0.0757;-0.9784;
-149.1000;0.0741;-0.9716;
-148.8000;0.0781;-0.9603;
-148.5000;0.0611;-1.0124;
-148.2000;0.0749;-0.9716;
-147.9000;0.0757;-0.9649;
-147.6000;0.0741;-0.9671;
-147.3000;0.0749;-0.9694;
-147.0000;0.0667;-0.9852;
-146.7000;0.0724;-0.9762;
-146.4000;0.0757;-0.9649;
-146.1000;0.0684;-0.9943;
-145.8000;0.0749;-0.9762;
-145.5000;0.0676;-1.0034;
-145.2000;0.0765;-0.9852;
-144.9000;0.0676;-1.0079;
-144.6000;0.0749;-0.9875;
-144.3000;0.0749;-0.9852;
-144.0000;0.0749;-0.9830;
-143.7000;0.0773;-0.9716;
-143.4000;0.0667;-0.9943;
-143.1000;0.0765;-0.9739;
-142.8000;0.0773;-0.9716;
-142.5000;0.0757;-0.9875;
-142.2000;0.0749;-0.9920;
-141.9000;0.0733;-0.9920;
-141.6000;0.0822;-0.9716;
-141.3000;0.0741;-0.9943;
-141.0000;0.0741;-0.9988;
-140.7000;0.0814;-0.9830;
-140.4000;0.0773;-0.9875;
-140.1000;0.0733;-0.9988;
-139.8000;0.0838;-0.9694;
-139.5000;0.0611;-1.0237;
-139.2000;0.0749;-0.9966;
-138.9000;0.0749;-1.0034;
-138.6000;0.0692;-1.0169;
-138.3000;0.0765;-0.9943;
-138.0000;0.0724;-1.0011;
-137.7000;0.0757;-0.9988;
-137.4000;0.0733;-1.0011;
-137.1000;0.0741;-0.9943;
-136.8000;0.0724;-0.9920;
-136.5000;0.0765;-0.9830;
-136.2000;0.0757;-0.9784;
-135.9000;0.0749;-0.9966;
-135.6000;0.0757;-0.9943;
-135.3000;0.0733;-0.9920;
-135.0000;0.0765;-0.9830;
-134.7000;0.0749;-0.9966;
-134.4000;0.0773;-0.9898;
-134.1000;0.0733;-0.9920;
-133.8000;0.0757;-0.9830;
-133.5000;0.0781;-0.9739;
-133.2000;0.0749;-0.9852;
-132.9000;0.0733;-0.9920;
-132.6000;0.0781;-0.9694;
-132.3000;0.0749;-0.9762;
-132.0000;0.0757;-0.9762;
-131.7000;0.0741;-0.9807;
-131.4000;0.0757;-0.9694;
-131.1000;0.0765;-0.9649;
-130.8000;0.0773;-0.9626;
-130.5000;0.0716;-0.9739;
-130.2000;0.0773;-0.9671;
-129.9000;0.0708;-0.9830;
-129.6000;0.0741;-0.9784;
-129.3000;0.0765;-0.9716;
-129.0000;0.0724;-0.9784;
-128.7000;0.0733;-0.9603;
-128.4000;0.0765;-0.9490;
-128.1000;0.0733;-0.9649;
-127.8000;0.0765;-0.9558;
-127.5000;0.0741;-0.9626;
-127.2000;0.0586;-0.9988;
-126.9000;0.0806;-0.9445;
-126.6000;0.0757;-0.9649;
-126.3000;0.0724;-0.9649;
-126.0000;0.0757;-0.9671;
-125.7000;0.0733;-0.9671;
-125.4000;0.0716;-0.9784;
-125.1000;0.0741;-0.9898;
-124.8000;0.0724;-0.9852;
-124.5000;0.0716;-0.9807;
-124.2000;0.0749;-0.9807;
-123.9000;0.0757;-0.9807;
-123.6000;0.0765;-0.9830;
-123.3000;0.0733;-0.9852;
-123.0000;0.0741;-0.9830;
-122.7000;0.0757;-0.9739;
-122.4000;0.0651;-0.9898;
-122.1000;0.0749;-0.9535;
-121.8000;0.0716;-0.9603;
-121.5000;0.0700;-0.9626;
-121.2000;0.0765;-0.9490;
-120.9000;0.0757;-0.9603;
-120.6000;0.0765;-0.9671;
-120.3000;0.0757;-0.9694;
-120.0000;0.0692;-0.9852;
-119.7000;0.0757;-0.9716;
-119.4000;0.0733;-0.9694;
-119.1000;0.0733;-0.9739;
-118.8000;0.0708;-0.9762;
-118.5000;0.0749;-0.9671;
-118.2000;0.0830;-0.9445;
-117.9000;0.0724;-0.9716;
-117.6000;0.0822;-0.9445;
-117.3000;0.0757;-0.9649;
-117.0000;0.0700;-0.9762;
-116.7000;0.0627;-0.9988;
-116.4000;0.0765;-0.9694;
-116.1000;0.0749;-0.9716;
-115.8000;0.0757;-0.9716;
-115.5000;0.0676;-0.9898;
-115.2000;0.0741;-0.9739;
-114.9000;0.0733;-0.9739;
-114.6000;0.0733;-0.9807;
-114.3000;0.0757;-0.9694;
-114.0000;0.0757;-0.9694;
-113.7000;0.0757;-0.9694;
-113.4000;0.0724;-0.9762;
-113.1000;0.0765;-0.9784;
-112.8000;0.0733;-0.9875;
-112.5000;0.0733;-0.9852;
-112.2000;0.0733;-0.9920;
-111.9000;0.0765;-0.9830;
-111.6000;0.0765;-0.9852;
-111.3000;0.0733;-0.9875;
-111.0000;0.0741;-0.9784;
-110.7000;0.0724;-0.9875;
-110.4000;0.0765;-0.9784;
-110.1000;0.0733;-0.9852;
-109.8000;0.0757;-0.9807;
-109.5000;0.0733;-0.9943;
-109.2000;0.0765;-0.9920;
-108.9000;0.0749;-0.9830;
-108.6000;0.0749;-0.9694;
-108.3000;0.0651;-0.9898;
-108.0000;0.0806;-0.9513;
-107.7000;0.0749;-0.9558;
-107.4000;0.0733;-0.9558;
-107.1000;0.0749;-0.9535;
-106.8000;0.0676;-0.9716;
-106.5000;0.0724;-0.9649;
-106.2000;0.0741;-0.9649;
-105.9000;0.0773;-0.9671;
-105.6000;0.0757;-0.9649;
-105.3000;0.0724;-0.9807;
-105.0000;0.0733;-0.9807;
-104.7000;0.0741;-0.9716;
-104.4000;0.0765;-0.9535;
-104.1000;0.0716;-0.9694;
-103.8000;0.0733;-0.9807;
-103.5000;0.0765;-0.9807;
-103.2000;0.0716;-0.9875;
-102.9000;0.0749;-0.9807;
-102.6000;0.0733;-0.9784;
-102.3000;0.0741;-0.9762;
-102.0000;0.0741;-0.9784;
-101.7000;0.0749;-0.9762;
-101.4000;0.0602;-1.0056;
-101.1000;0.0724;-0.9898;
-100.8000;0.0749;-0.9807;
-100.5000;0.0716;-0.9852;
-100.2000;0.0757;-0.9762;
-99.9000;0.0757;-0.9716;
-99.6000;0.0847;-0.9535;
-99.3000;0.0708;-0.9898;
-99.0000;0.0773;-0.9694;
-98.7000;0.0684;-1.0034;
-98.4000;0.0757;-0.9784;
-98.1000;0.0749;-0.9784;
-97.8000;0.0700;-0.9784;
-97.5000;0.0749;-0.9649;
-97.2000;0.0749;-0.9626;
-96.9000;0.0773;-0.9558;
-96.6000;0.0765;-0.9558;
-96.3000;0.0724;-0.9603;
-96.0000;0.0749;-0.9535;
-95.7000;0.0716;-0.9581;
-95.4000;0.0708;-0.9694;
-95.1000;0.0741;-0.9603;
-94.8000;0.0733;-0.9671;
-94.5000;0.0692;-0.9784;
-94.2000;0.0749;-0.9739;
-93.9000;0.0716;-0.9807;
-93.6000;0.0741;-0.9807;
-93.3000;0.0757;-0.9762;
-93.0000;0.0733;-0.9762;
-92.7000;0.0724;-0.9739;
-92.4000;0.0741;-0.9739;
-92.1000;0.0684;-0.9943;
-91.8000;0.0741;-0.9739;
-91.5000;0.0733;-0.9807;
-91.2000;0.0765;-0.9671;
-90.9000;0.0749;-0.9671;
-90.6000;0.0781;-0.9603;
-90.3000;0.0749;-0.9694;
-90.0000;0.0749;-0.9603;
-89.7000;0.0773;-0.9558;
-89.4000;0.0724;-0.9626;
-89.1000;0.0765;-0.9581;
-88.8000;0.0733;-0.9716;
-88.5000;0.0765;-0.9694;
-88.2000;0.0733;-0.9739;
-87.9000;0.0724;-0.9739;
-87.6000;0.0741;-0.9762;
-87.3000;0.0716;-0.9694;
-87.0000;0.0757;-0.9694;
-86.7000;0.0716;-0.9920;
-86.4000;0.0741;-1.0011;
-86.1000;0.0651;-1.0237;
-85.8000;0.0741;-0.9898;
-85.5000;0.0708;-0.9966;
-85.2000;0.0724;-0.9966;
-84.9000;0.0692;-1.0056;
-84.6000;0.0838;-0.9716;
-84.3000;0.0708;-1.0056;
-84.0000;0.0814;-0.9762;
-83.7000;0.0741;-0.9966;
-83.4000;0.0733;-0.9988;
-83.1000;0.0757;-0.9898;
-82.8000;0.0773;-0.9852;
-82.5000;0.0741;-0.9943;
-82.2000;0.0749;-0.9920;
-81.9000;0.0757;-0.9830;
-81.6000;0.0741;-0.9784;
-81.3000;0.0781;-0.9784;
-81.0000;0.0741;-0.9898;
-80.7000;0.0741;-0.9943;
-80.4000;0.0749;-0.9943;
-80.1000;0.0773;-0.9852;
-79.8000;0.0716;-0.9898;
-79.5000;0.0781;-0.9807;
-79.2000;0.0773;-0.9920;
-78.9000;0.0749;-1.0056;
-78.6000;0.0724;-0.9988;
-78.3000;0.0790;-0.9807;
-78.0000;0.0716;-0.9830;
-77.7000;0.0733;-0.9830;
-77.4000;0.0611;-1.0147;
-77.1000;0.0749;-0.9875;
-76.8000;0.0814;-0.9671;
-76.5000;0.0806;-0.9716;
-76.2000;0.0741;-0.9966;
-75.9000;0.0733;-0.9943;
-75.6000;0.0741;-0.9920;
-75.3000;0.0716;-0.9966;
-75.0000;0.0749;-0.9875;
-74.7000;0.0749;-0.9943;
-74.4000;0.0733;-0.9966;
-74.1000;0.0765;-0.9920;
-73.8000;0.0724;-1.0011;
-73.5000;0.0733;-0.9966;
-73.2000;0.0733;-0.9966;
-72.9000;0.0757;-0.9943;
-72.6000;0.0749;-0.9875;
-72.3000;0.0733;-0.9966;
-72.0000;0.0749;-0.9943;
-71.7000;0.0724;-0.9966;
-71.4000;0.0733;-0.9898;
-71.1000;0.0757;-0.9898;
-70.8000;0.0724;-0.9966;
-70.5000;0.0773;-0.9762;
-70.2000;0.0724;-0.9784;
-69.9000;0.0741;-0.9694;
-69.6000;0.0708;-0.9784;
-69.3000;0.0733;-0.9762;
-69.0000;0.0749;-0.9694;
-68.7000;0.0749;-0.9694;
-68.4000;0.0733;-0.9739;
-68.1000;0.0733;-0.9739;
-67.8000;0.0765;-0.9762;
-67.5000;0.0749;-0.9807;
-67.2000;0.0741;-0.9716;
-66.9000;0.0757;-0.9762;
-66.6000;0.0741;-0.9739;
-66.3000;0.0733;-0.9716;
-66.0000;0.0708;-0.9898;
-65.7000;0.0741;-0.9830;
-65.4000;0.0733;-0.9807;
-65.1000;0.0741;-0.9762;
-64.8000;0.0757;-0.9784;
-64.5000;0.0741;-0.9830;
-64.2000;0.0733;-0.9920;
-63.9000;0.0733;-0.9898;
-63.6000;0.0749;-0.9920;
-63.3000;0.0741;-0.9852;
-63.0000;0.0741;-0.9852;
-62.7000;0.0741;-0.9852;
-62.4000;0.0749;-0.9920;
-62.1000;0.0838;-0.9762;
-61.8000;0.0724;-0.9966;
-61.5000;0.0733;-0.9898;
-61.2000;0.0847;-0.9716;
-60.9000;0.0716;-1.0011;
-60.6000;0.0798;-0.9830;
-60.3000;0.0749;-0.9943;
-60.0000;0.0749;-0.9898;
-59.7000;0.0741;-0.9898;
-59.4000;0.0741;-0.9875;
-59.1000;0.0765;-0.9898;
-58.8000;0.0765;-0.9943;
-58.5000;0.0733;-0.9920;
-58.2000;0.0814;-0.9739;
-57.9000;0.0724;-1.0011;
-57.6000;0.0741;-0.9875;
-57.3000;0.0765;-0.9807;
-57.0000;0.0749;-0.9852;
-56.7000;0.0724;-0.9830;
-56.4000;0.0749;-0.9762;
-56.1000;0.0757;-0.9875;
-55.8000;0.0765;-0.9943;
-55.5000;0.0773;-0.9988;
-55.2000;0.0724;-1.0124;
-54.9000;0.0741;-1.0056;
-54.6000;0.0749;-1.0101;
-54.3000;0.0741;-1.0101;
-54.0000;0.0684;-1.0124;
-53.7000;0.0806;-0.9852;
-53.4000;0.0741;-0.9966;
-53.1000;0.0773;-0.9875;
-52.8000;0.0716;-1.0034;
-52.5000;0.0741;-0.9898;
-52.2000;0.0749;-0.9852;
-51.9000;0.0741;-0.9898;
-51.6000;0.0749;-0.9898;
-51.3000;0.0741;-0.9830;
-51.0000;0.0838;-0.9626;
-50.7000;0.0757;-0.9875;
-50.4000;0.0765;-0.9807;
-50.1000;0.0741;-0.9784;
-49.8000;0.0733;-0.9807;
-49.5000;0.0757;-0.9784;
-49.2000;0.0724;-0.9966;
-48.9000;0.0765;-0.9830;
-48.6000;0.0741;-0.9920;
-48.3000;0.0733;-0.9920;
-48.0000;0.0651;-1.0192;
-47.7000;0.0895;-0.9513;
-47.4000;0.0741;-0.9898;
-47.1000;0.0749;-0.9920;
-46.8000;0.0716;-1.0011;
-46.5000;0.0741;-0.9920;
-46.2000;0.0798;-0.9807;
-45.9000;0.0757;-0.9920;
-45.6000;0.0781;-0.9830;
-45.3000;0.0733;-0.9898;
-45.0000;0.0749;-0.9920;
-44.7000;0.0765;-0.9875;
-44.4000;0.0749;-0.9988;
-44.1000;0.0765;-0.9920;
-43.8000;0.0749;-0.9943;
-43.5000;0.0741;-0.9875;
-43.2000;0.0733;-0.9807;
-42.9000;0.0741;-0.9694;
-42.6000;0.0749;-0.9671;
-42.3000;0.0733;-0.9784;
-42.0000;0.0757;-0.9716;
-41.7000;0.0708;-0.9852;
-41.4000;0.0749;-0.9716;
-41.1000;0.0798;-0.9535;
-40.8000;0.0765;-0.9649;
-40.5000;0.0757;-0.9626;
-40.2000;0.0741;-0.9671;
-39.9000;0.0716;-0.9694;
-39.6000;0.0733;-0.9671;
-39.3000;0.0741;-0.9603;
-39.0000;0.0757;-0.9535;
-38.7000;0.0733;-0.9558;
-38.4000;0.0741;-0.9671;
-38.1000;0.0749;-0.9649;
-37.8000;0.0749;-0.9603;
-37.5000;0.0757;-0.9626;
-37.2000;0.0749;-0.9649;
-36.9000;0.0724;-0.9739;
-36.6000;0.0676;-0.9875;
-36.3000;0.0741;-0.9694;
-36.0000;0.0765;-0.9694;
-35.7000;0.0757;-0.9716;
-35.4000;0.0716;-0.9807;
-35.1000;0.0773;-0.9762;
-34.8000;0.0602;-1.0192;
-34.5000;0.0741;-0.9852;
-34.2000;0.0733;-0.9875;
-33.9000;0.0724;-0.9875;
-33.6000;0.0700;-0.9898;
-33.3000;0.0716;-0.9875;
-33.0000;0.0733;-0.9898;
-32.7000;0.0749;-1.0011;
-32.4000;0.0798;-0.9784;
-32.1000;0.0773;-0.9830;
-31.8000;0.0757;-0.9875;
-31.5000;0.0700;-1.0011;
-31.2000;0.0749;-0.9830;
-30.9000;0.0741;-0.9898;
-30.6000;0.0749;-0.9875;
-30.3000;0.0659;-1.0101;
-30.0000;0.0741;-0.9898;
-29.7000;0.0847;-0.9535;
-29.4000;0.0773;-0.9694;
-29.1000;0.0790;-0.9694;
-28.8000;0.0749;-0.9784;
-28.5000;0.0765;-0.9852;
-28.2000;0.0749;-0.9966;
-27.9000;0.0757;-0.9920;
-27.6000;0.0724;-0.9852;
-27.3000;0.0765;-0.9807;
-27.0000;0.0741;-0.9875;
-26.7000;0.0838;-0.9694;
-26.4000;0.0733;-0.9920;
-26.1000;0.0757;-0.9875;
-25.8000;0.0781;-0.9830;
-25.5000;0.0749;-0.9920;
-25.2000;0.0716;-1.0056;
-24.9000;0.0684;-1.0034;
-24.6000;0.0749;-0.9898;
-24.3000;0.0749;-0.9943;
-24.0000;0.0700;-0.9988;
-23.7000;0.0765;-0.9694;
-23.4000;0.0773;-0.9671;
-23.1000;0.0765;-0.9694;
-22.8000;0.0749;-0.9694;
-22.5000;0.0749;-0.9671;
-22.2000;0.0749;-0.9694;
-21.9000;0.0741;-0.9716;
-21.6000;0.0733;-0.9716;
-21.3000;0.0749;-0.9694;
-21.0000;0.0749;-0.9626;
-20.7000;0.0757;-0.9581;
-20.4000;0.0757;-0.9671;
-20.1000;0.0741;-0.9649;
-19.8000;0.0765;-0.9535;
-19.5000;0.0773;-0.9626;
-19.2000;0.0643;-0.9966;
-18.9000;0.0716;-0.9762;
-18.6000;0.0733;-0.9716;
-18.3000;0.0716;-0.9830;
-18.0000;0.0773;-0.9671;
-17.7000;0.0757;-0.9784;
-17.4000;0.0733;-0.9830;
-17.1000;0.0741;-0.9830;
-16.8000;0.0741;-0.9739;
-16.5000;0.0741;-0.9716;
-16.2000;0.0716;-0.9784;
-15.9000;0.0757;-0.9626;
-15.6000;0.0692;-0.9739;
-15.3000;0.0765;-0.9535;
-15.0000;0.0749;-0.9558;
-14.7000;0.0781;-0.9535;
-14.4000;0.0749;-0.9694;
-14.1000;0.0724;-0.9716;
-13.8000;0.0822;-0.9513;
-13.5000;0.0733;-0.9739;
-13.2000;0.0741;-0.9739;
-12.9000;0.0757;-0.9626;
-12.6000;0.0798;-0.9558;
-12.3000;0.0741;-0.9649;
-12.0000;0.0708;-0.9762;
-11.7000;0.0741;-0.9739;
-11.4000;0.0765;-0.9694;
-11.1000;0.0757;-0.9784;
-10.8000;0.0757;-0.9875;
-10.5000;0.0757;-0.9898;
-10.2000;0.0814;-0.9649;
-9.9000;0.0757;-0.9830;
-9.6000;0.0773;-0.9943;
-9.3000;0.0749;-1.0011;
-9.0000;0.0765;-1.0011;
-8.7000;0.0667;-1.0260;
-8.4000;0.0684;-1.0237;
-8.1000;0.0667;-1.0169;
-7.8000;0.0749;-1.0011;
-7.5000;0.0830;-0.9830;
-7.2000;0.0757;-1.0011;
-6.9000;0.0749;-0.9852;
-6.6000;0.0765;-0.9739;
-6.3000;0.0773;-0.9649;
-6.0000;0.0733;-0.9762;
-5.7000;0.0749;-0.9739;
-5.4000;0.0757;-0.9694;
-5.1000;0.0765;-0.9716;
-4.8000;0.0749;-0.9762;
-4.5000;0.0741;-0.9830;
-4.2000;0.0749;-0.9784;
-3.9000;0.0716;-0.9966;
-3.6000;0.0733;-0.9920;
-3.3000;0.0749;-0.9784;
-3.0000;0.0741;-0.9852;
-2.7000;0.0765;-0.9920;
-2.4000;0.0741;-1.0011;
-2.1000;0.0749;-1.0124;
-1.8000;0.0773;-1.0056;
-1.5000;0.0741;-1.0147;
-1.2000;0.0749;-1.0101;
-0.9000;0.0798;-1.0011;
-0.6000;0.0790;-1.0124;
-0.3000;0.0806;-1.0056;
0.0000;0.0806;-1.0056;
0.3000;0.0773;-1.0192;
0.6000;0.0757;-1.0079;
0.9000;0.0757;-1.0101;
1.2000;0.0790;-0.9920;
1.5000;0.0806;-0.9649;
1.8000;0.0806;-0.9603;
2.1000;0.0822;-0.9513;
2.4000;0.0822;-0.9445;
2.7000;0.0830;-0.9331;
3.0000;0.0757;-0.9354;
3.3000;0.0847;-0.9173;
3.6000;0.0822;-0.9196;
3.9000;0.0741;-0.9399;
4.2000;0.0944;-0.8833;
4.5000;0.0863;-0.8992;
4.8000;0.0871;-0.8969;
5.1000;0.0863;-0.8901;
5.4000;0.0871;-0.8856;
5.7000;0.0838;-0.8969;
6.0000;0.0830;-0.9037;
6.3000;0.0879;-0.8901;
6.6000;0.0798;-0.9014;
6.9000;0.0863;-0.8856;
7.2000;0.0863;-0.8833;
7.5000;0.0912;-0.8697;
7.8000;0.0838;-0.8878;
8.1000;0.0871;-0.8833;
8.4000;0.0887;-0.8833;
8.7000;0.0863;-0.8833;
9.0000;0.0895;-0.8788;
9.3000;0.0781;-0.9128;
9.6000;0.0952;-0.8607;
9.9000;0.0977;-0.8629;
10.2000;0.0879;-0.8856;
10.5000;0.0863;-0.8810;
10.8000;0.0863;-0.8878;
11.1000;0.0887;-0.8788;
11.4000;0.0879;-0.8765;
11.7000;0.0749;-0.9014;
12.0000;0.0879;-0.8652;
12.3000;0.0895;-0.8584;
12.6000;0.0838;-0.8697;
12.9000;0.0879;-0.8675;
13.2000;0.0790;-0.8992;
13.5000;0.0895;-0.8697;
13.8000;0.0920;-0.8607;
14.1000;0.0895;-0.8743;
14.4000;0.0863;-0.8788;
14.7000;0.0879;-0.8765;
15.0000;0.0863;-0.8833;
15.3000;0.0790;-0.8969;
15.6000;0.0749;-0.9082;
15.9000;0.0830;-0.8901;
16.2000;0.0838;-0.8810;
16.5000;0.0985;-0.8403;
16.8000;0.0855;-0.8743;
17.1000;0.0847;-0.8833;
17.4000;0.0887;-0.8675;
17.7000;0.0847;-0.8810;
18.0000;0.0863;-0.8788;
18.3000;0.0847;-0.8788;
18.6000;0.0871;-0.8765;
18.9000;0.0814;-0.8856;
19.2000;0.0847;-0.8788;
19.5000;0.0920;-0.8697;
19.8000;0.0887;-0.8810;
20.1000;0.0920;-0.8697;
20.4000;0.0879;-0.8743;
20.7000;0.0863;-0.8810;
21.0000;0.0969;-0.8584;
21.3000;0.0879;-0.8901;
21.6000;0.0863;-0.8878;
21.9000;0.0871;-0.8833;
22.2000;0.0912;-0.8720;
22.5000;0.0887;-0.8743;
22.8000;0.0871;-0.8743;
23.1000;0.0887;-0.8629;
23.4000;0.0920;-0.8516;
23.7000;0.0863;-0.8629;
24.0000;0.0871;-0.8584;
24.3000;0.0912;-0.8516;
24.6000;0.0895;-0.8516;
24.9000;0.0895;-0.8584;
25.2000;0.0822;-0.8788;
25.5000;0.0887;-0.8561;
25.8000;0.0904;-0.8561;
26.1000;0.0863;-0.8629;
26.4000;0.0871;-0.8493;
26.7000;0.0895;-0.8561;
27.0000;0.0904;-0.8652;
27.3000;0.0895;-0.8607;
27.6000;0.0879;-0.8675;
27.9000;0.0887;-0.8697;
28.2000;0.0879;-0.8697;
28.5000;0.0993;-0.8312;
28.8000;0.0912;-0.8584;
29.1000;0.0887;-0.8539;
29.4000;0.0904;-0.8516;
29.7000;0.0887;-0.8629;
30.0000;0.0749;-0.9037;
30.3000;0.0838;-0.8901;
30.6000;0.0912;-0.8561;
30.9000;0.0936;-0.8516;
31.2000;0.0822;-0.8810;
31.5000;0.0920;-0.8539;
31.8000;0.0904;-0.8652;
32.1000;0.0904;-0.8743;
32.4000;0.0781;-0.9082;
32.7000;0.0887;-0.8765;
33.0000;0.0912;-0.8743;
33.3000;0.0814;-0.9037;
33.6000;0.0904;-0.8833;
33.9000;0.0912;-0.8652;
34.2000;0.0904;-0.8652;
34.5000;0.0895;-0.8675;
34.8000;0.0879;-0.8584;
35.1000;0.0977;-0.8335;
35.4000;0.0912;-0.8471;
35.7000;0.0895;-0.8539;
36.0000;0.0838;-0.8720;
36.3000;0.0895;-0.8629;
36.6000;0.0904;-0.8652;
36.9000;0.0847;-0.8743;
37.2000;0.0895;-0.8561;
37.5000;0.0895;-0.8493;
37.8000;0.0895;-0.8471;
38.1000;0.0912;-0.8425;
38.4000;0.0961;-0.8267;
38.7000;0.0887;-0.8471;
39.0000;0.0814;-0.8629;
39.3000;0.0887;-0.8403;
39.6000;0.0895;-0.8380;
39.9000;0.0879;-0.8380;
40.2000;0.0887;-0.8335;
40.5000;0.0830;-0.8539;
40.8000;0.0895;-0.8312;
41.1000;0.0871;-0.8380;
41.4000;0.0895;-0.8267;
41.7000;0.0879;-0.8358;
42.0000;0.0863;-0.8425;
42.3000;0.0920;-0.8335;
42.6000;0.0904;-0.8403;
42.9000;0.0912;-0.8380;
43.2000;0.0944;-0.8267;
43.5000;0.0871;-0.8425;
43.8000;0.0822;-0.8652;
44.1000;0.0879;-0.8539;
44.4000;0.0904;-0.8471;
44.7000;0.0904;-0.8403;
45.0000;0.0863;-0.8471;
45.3000;0.0863;-0.8448;
45.6000;0.0912;-0.8471;
45.9000;0.0879;-0.8516;
46.2000;0.0944;-0.8403;
46.5000;0.0887;-0.8380;
46.8000;0.0904;-0.8312;
47.1000;0.0822;-0.8471;
47.4000;0.0895;-0.8380;
47.7000;0.0887;-0.8358;
48.0000;0.0920;-0.8403;
48.3000;0.1009;-0.8244;
48.6000;0.0895;-0.8471;
48.9000;0.0912;-0.8425;
49.2000;0.0887;-0.8403;
49.5000;0.0912;-0.8290;
49.8000;0.0887;-0.8425;
50.1000;0.0887;-0.8448;
50.4000;0.0879;-0.8403;
50.7000;0.0912;-0.8380;
51.0000;0.0879;-0.8448;
51.3000;0.0912;-0.8403;
51.6000;0.0895;-0.8516;
51.9000;0.0879;-0.8493;
52.2000;0.0961;-0.8312;
52.5000;0.0887;-0.8561;
52.8000;0.0879;-0.8675;
53.1000;0.0887;-0.8720;
53.4000;0.0895;-0.8720;
53.7000;0.0895;-0.8743;
54.0000;0.0912;-0.8607;
54.3000;0.0920;-0.8493;
54.6000;0.0904;-0.8448;
54.9000;0.0895;-0.8448;
55.2000;0.0863;-0.8561;
55.5000;0.0928;-0.8380;
55.8000;0.0912;-0.8448;
56.1000;0.0887;-0.8561;
56.4000;0.0855;-0.8720;
56.7000;0.0895;-0.8561;
57.0000;0.0895;-0.8607;
57.3000;0.0904;-0.8539;
57.6000;0.0871;-0.8561;
57.9000;0.0871;-0.8539;
58.2000;0.0912;-0.8493;
58.5000;0.0920;-0.8471;
58.8000;0.0895;-0.8471;
59.1000;0.0895;-0.8471;
59.4000;0.0904;-0.8516;
59.7000;0.0871;-0.8629;
60.0000;0.0895;-0.8584;
60.3000;0.0879;-0.8516;
60.6000;0.0904;-0.8493;
60.9000;0.0871;-0.8607;
61.2000;0.0904;-0.8493;
61.5000;0.0944;-0.8312;
61.8000;0.0912;-0.8403;
62.1000;0.0944;-0.8358;
62.4000;0.0879;-0.8607;
62.7000;0.0952;-0.8380;
63.0000;0.0838;-0.8720;
63.3000;0.0879;-0.8629;
63.6000;0.0904;-0.8539;
63.9000;0.0887;-0.8561;
64.2000;0.0904;-0.8584;
64.5000;0.0895;-0.8629;
64.8000;0.0936;-0.8607;
65.1000;0.0904;-0.8697;
65.4000;0.0904;-0.8720;
65.7000;0.0895;-0.8720;
66.0000;0.0895;-0.8743;
66.3000;0.0895;-0.8765;
66.6000;0.0895;-0.8833;
66.9000;0.0912;-0.8810;
67.2000;0.0912;-0.8765;
67.5000;0.0838;-0.8901;
67.8000;0.0904;-0.8833;
68.1000;0.0879;-0.8788;
68.4000;0.0920;-0.8697;
68.7000;0.0895;-0.8743;
69.0000;0.0904;-0.8810;
69.3000;0.0904;-0.8743;
69.6000;0.0895;-0.8720;
69.9000;0.0895;-0.8629;
70.2000;0.0879;-0.8607;
70.5000;0.0895;-0.8607;
70.8000;0.0879;-0.8539;
71.1000;0.0887;-0.8629;
71.4000;0.0887;-0.8743;
71.7000;0.0904;-0.8743;
72.0000;0.0879;-0.8743;
72.3000;0.1034;-0.8380;
72.6000;0.0920;-0.8675;
72.9000;0.0798;-0.9037;
73.2000;0.0912;-0.8720;
73.5000;0.0920;-0.8720;
73.8000;0.0895;-0.8720;
74.1000;0.0912;-0.8697;
74.4000;0.0887;-0.8765;
74.7000;0.0912;-0.8697;
75.0000;0.0895;-0.8675;
75.3000;0.0895;-0.8697;
75.6000;0.0887;-0.8607;
75.9000;0.0895;-0.8629;
76.2000;0.0895;-0.8629;
76.5000;0.0830;-0.8765;
76.8000;0.0879;-0.8629;
77.1000;0.0895;-0.8493;
77.4000;0.0887;-0.8607;
77.7000;0.0912;-0.8629;
78.0000;0.0871;-0.8720;
78.3000;0.0904;-0.8561;
78.6000;0.0928;-0.8493;
78.9000;0.0912;-0.8607;
79.2000;0.0847;-0.8833;
79.5000;0.0895;-0.8652;
79.8000;0.0895;-0.8584;
80.1000;0.0871;-0.8675;
80.4000;0.0887;-0.8607;
80.7000;0.0879;-0.8675;
81.0000;0.0985;-0.8403;
81.3000;0.0887;-0.8652;
81.6000;0.0895;-0.8607;
81.9000;0.0895;-0.8607;
82.2000;0.0928;-0.8471;
82.5000;0.0912;-0.8471;
82.8000;0.0904;-0.8607;
83.1000;0.0887;-0.8697;
83.4000;0.0871;-0.8810;
83.7000;0.0822;-0.8878;
84.0000;0.0936;-0.8607;
84.3000;0.0806;-0.8901;
84.6000;0.0904;-0.8675;
84.9000;0.0904;-0.8607;
85.2000;0.0895;-0.8561;
85.5000;0.0952;-0.8448;
85.8000;0.0895;-0.8720;
86.1000;0.0928;-0.8539;
86.4000;0.0895;-0.8539;
86.7000;0.0879;-0.8675;
87.0000;0.0912;-0.8584;
87.3000;0.0928;-0.8584;
87.6000;0.0895;-0.8697;
87.9000;0.0887;-0.8810;
88.2000;0.0912;-0.8743;
88.5000;0.0863;-0.8901;
88.8000;0.0895;-0.8833;
89.1000;0.0887;-0.8856;
89.4000;0.0798;-0.9082;
89.7000;0.0904;-0.8765;
90.0000;0.0904;-0.8810;
90.3000;0.0863;-0.8901;
90.6000;0.0904;-0.8743;
90.9000;0.0904;-0.8765;
91.2000;0.0904;-0.8833;
91.5000;0.0904;-0.8810;
91.8000;0.0879;-0.8856;
92.1000;0.0904;-0.8878;
92.4000;0.0912;-0.8878;
92.7000;0.0904;-0.8856;
93.0000;0.0912;-0.8810;
93.3000;0.0936;-0.8788;
93.6000;0.0904;-0.8743;
93.9000;0.0952;-0.8629;
94.2000;0.0895;-0.8810;
94.5000;0.0944;-0.8720;
94.8000;0.0920;-0.8765;
95.1000;0.0928;-0.8810;
95.4000;0.0904;-0.8901;
95.7000;0.0895;-0.8856;
96.0000;0.0904;-0.8924;
96.3000;0.0904;-0.8946;
96.6000;0.0920;-0.8946;
96.9000;0.0912;-0.8969;
97.2000;0.0879;-0.9014;
97.5000;0.0912;-0.8901;
97.8000;0.0920;-0.8810;
98.1000;0.0904;-0.8810;
98.4000;0.0904;-0.8856;
98.7000;0.0912;-0.8856;
99.0000;0.0904;-0.8946;
99.3000;0.0887;-0.8969;
99.6000;0.0904;-0.8901;
99.9000;0.0912;-0.8856;
100.2000;0.0904;-0.8878;
100.5000;0.0912;-0.8878;
100.8000;0.0895;-0.8901;
101.1000;0.0928;-0.8833;
101.4000;0.0920;-0.8901;
101.7000;0.0904;-0.8901;
102.0000;0.0863;-0.9014;
102.3000;0.0912;-0.8878;
102.6000;0.0847;-0.9173;
102.9000;0.0895;-0.9037;
103.2000;0.1018;-0.8810;
103.5000;0.0879;-0.9105;
103.8000;0.0895;-0.9037;
104.1000;0.0904;-0.8992;
104.4000;0.0895;-0.8969;
104.7000;0.0912;-0.8901;
105.0000;0.0912;-0.8856;
105.3000;0.0952;-0.8697;
105.6000;0.0904;-0.8856;
105.9000;0.0847;-0.8924;
106.2000;0.0920;-0.8743;
106.5000;0.0928;-0.8743;
106.8000;0.0863;-0.8924;
107.1000;0.0806;-0.9060;
107.4000;0.1009;-0.8584;
107.7000;0.0806;-0.9014;
108.0000;0.0863;-0.8878;
108.3000;0.0830;-0.8901;
108.6000;0.0936;-0.8652;
108.9000;0.0912;-0.8720;
109.2000;0.0944;-0.8675;
109.5000;0.0920;-0.8743;
109.8000;0.0912;-0.8743;
110.1000;0.0904;-0.8743;
110.4000;0.0912;-0.8697;
110.7000;0.0830;-0.8924;
111.0000;0.0920;-0.8765;
111.3000;0.0887;-0.8720;
111.6000;0.0895;-0.8652;
111.9000;0.1001;-0.8380;
112.2000;0.0871;-0.8584;
112.5000;0.0871;-0.8675;
112.8000;0.0904;-0.8584;
113.1000;0.0895;-0.8607;
113.4000;0.0944;-0.8471;
113.7000;0.0887;-0.8607;
114.0000;0.0904;-0.8675;
114.3000;0.0920;-0.8629;
114.6000;0.0904;-0.8629;
114.9000;0.0895;-0.8652;
115.2000;0.0912;-0.8652;
115.5000;0.0904;-0.8743;
115.8000;0.1009;-0.8675;
116.1000;0.0944;-0.8743;
116.4000;0.0912;-0.8833;
116.7000;0.0887;-0.8856;
117.0000;0.0928;-0.8743;
117.3000;0.0920;-0.8743;
117.6000;0.0920;-0.8810;
117.9000;0.0895;-0.8720;
118.2000;0.0912;-0.8607;
118.5000;0.0895;-0.8675;
118.8000;0.0904;-0.8629;
119.1000;0.0855;-0.8561;
119.4000;0.0895;-0.8448;
119.7000;0.0887;-0.8493;
120.0000;0.0895;-0.8629;
120.3000;0.0912;-0.8607;
120.6000;0.0936;-0.8584;
120.9000;0.0879;-0.8743;
121.2000;0.1009;-0.8403;
121.5000;0.0904;-0.8629;
121.8000;0.0904;-0.8539;
122.1000;0.0985;-0.8358;
122.4000;0.0895;-0.8652;
122.7000;0.0904;-0.8652;
123.0000;0.0928;-0.8652;
123.3000;0.0904;-0.8607;
123.6000;0.0928;-0.8539;
123.9000;0.0920;-0.8539;
124.2000;0.0879;-0.8652;
124.5000;0.0904;-0.8629;
124.8000;0.0887;-0.8561;
125.1000;0.0912;-0.8471;
125.4000;0.0895;-0.8584;
125.7000;0.0912;-0.8607;
126.0000;0.0790;-0.8856;
126.3000;0.1018;-0.8199;
126.6000;0.1009;-0.8290;
126.9000;0.0912;-0.8539;
127.2000;0.0879;-0.8584;
127.5000;0.0920;-0.8448;
127.8000;0.0904;-0.8493;
128.1000;0.0887;-0.8516;
128.4000;0.0887;-0.8471;
128.7000;0.0895;-0.8516;
129.0000;0.0928;-0.8425;
129.3000;0.0895;-0.8516;
129.6000;0.0912;-0.8539;
129.9000;0.0904;-0.8584;
130.2000;0.0912;-0.8539;
130.5000;0.0887;-0.8584;
130.8000;0.0895;-0.8539;
131.1000;0.0920;-0.8516;
131.4000;0.0904;-0.8539;
131.7000;0.0928;-0.8471;
132.0000;0.0904;-0.8561;
132.3000;0.0904;-0.8607;
132.6000;0.0961;-0.8516;
132.9000;0.0912;-0.8516;
133.2000;0.0944;-0.8539;
133.5000;0.0920;-0.8561;
133.8000;0.0887;-0.8652;
134.1000;0.0928;-0.8561;
134.4000;0.0920;-0.8652;
134.7000;0.0904;-0.8743;
135.0000;0.0920;-0.8607;
135.3000;0.0879;-0.8720;
135.6000;0.0904;-0.8652;
135.9000;0.0904;-0.8743;
136.2000;0.0904;-0.8743;
136.5000;0.0920;-0.8788;
136.8000;0.0920;-0.8788;
137.1000;0.0863;-0.8901;
137.4000;0.0871;-0.8969;
137.7000;0.0863;-0.8969;
138.0000;0.0895;-0.8833;
138.3000;0.0904;-0.8901;
138.6000;0.0912;-0.8901;
138.9000;0.0920;-0.8720;
139.2000;0.0944;-0.8561;
139.5000;0.0912;-0.8607;
139.8000;0.0887;-0.8629;
140.1000;0.0961;-0.8584;
140.4000;0.0928;-0.8720;
140.7000;0.0920;-0.8652;
141.0000;0.0912;-0.8629;
141.3000;0.0879;-0.8788;
141.6000;0.0961;-0.8629;
141.9000;0.0952;-0.8675;
142.2000;0.0928;-0.8652;
142.5000;0.0871;-0.8720;
142.8000;0.0895;-0.8629;
143.1000;0.0871;-0.8765;
143.4000;0.0936;-0.8629;
143.7000;0.0936;-0.8561;
144.0000;0.0993;-0.8516;
144.3000;0.0912;-0.8720;
144.6000;0.0928;-0.8697;
144.9000;0.0920;-0.8697;
145.2000;0.0895;-0.8743;
145.5000;0.0904;-0.8833;
145.8000;0.0928;-0.8743;
146.1000;0.0904;-0.8765;
146.4000;0.0806;-0.9082;
146.7000;0.0928;-0.8788;
147.0000;0.0871;-0.8810;
147.3000;0.0961;-0.8493;
147.6000;0.0985;-0.8448;
147.9000;0.0904;-0.8629;
148.2000;0.0912;-0.8607;
148.5000;0.0904;-0.8629;
148.8000;0.0904;-0.8607;
149.1000;0.0904;-0.8675;
149.4000;0.0944;-0.8675;
149.7000;0.0855;-0.8901;
150.0000;0.0912;-0.8720;
150.3000;0.0855;-0.8833;
150.6000;0.1009;-0.8425;
150.9000;0.0912;-0.8652;
151.2000;0.0895;-0.8675;
151.5000;0.0895;-0.8675;
151.8000;0.0912;-0.8652;
152.1000;0.0928;-0.8675;
152.4000;0.0912;-0.8743;
152.7000;0.0757;-0.9196;
153.0000;0.0904;-0.8765;
153.3000;0.0904;-0.8833;
153.6000;0.0920;-0.8788;
153.9000;0.0904;-0.8856;
154.2000;0.0912;-0.8901;
154.5000;0.0936;-0.8743;
154.8000;0.0920;-0.8765;
155.1000;0.0904;-0.8833;
155.4000;0.0912;-0.8878;
155.7000;0.0904;-0.8788;
156.0000;0.0936;-0.8856;
156.3000;0.0887;-0.8924;
156.6000;0.0904;-0.8901;
156.9000;0.0895;-0.8878;
157.2000;0.0912;-0.8788;
157.5000;0.0879;-0.8833;
157.8000;0.0887;-0.8810;
158.1000;0.0904;-0.8765;
158.4000;0.0895;-0.8810;
158.7000;0.0895;-0.8765;
159.0000;0.0912;-0.8743;
159.3000;0.0920;-0.8743;
159.6000;0.0912;-0.8629;
159.9000;0.0928;-0.8584;
160.2000;0.0912;-0.8629;
160.5000;0.0895;-0.8697;
160.8000;0.0912;-0.8652;
161.1000;0.0912;-0.8607;
161.4000;0.0912;-0.8720;
161.7000;0.0920;-0.8765;
162.0000;0.0904;-0.8856;
162.3000;0.0936;-0.8720;
162.6000;0.0879;-0.8878;
162.9000;0.0936;-0.8720;
163.2000;0.0904;-0.8720;
163.5000;0.0920;-0.8629;
163.8000;0.0920;-0.8607;
164.1000;0.0781;-0.8969;
164.4000;0.0944;-0.8516;
164.7000;0.0912;-0.8607;
165.0000;0.0928;-0.8516;
165.3000;0.0912;-0.8561;
165.6000;0.0904;-0.8697;
165.9000;0.0904;-0.8720;
166.2000;0.0928;-0.8516;
166.5000;0.0928;-0.8471;
166.8000;0.0887;-0.8629;
167.1000;0.0920;-0.8652;
167.4000;0.0855;-0.8788;
167.7000;0.0904;-0.8743;
168.0000;0.0887;-0.8810;
168.3000;0.0887;-0.8833;
168.6000;0.0944;-0.8720;
168.9000;0.0920;-0.8675;
169.2000;0.0936;-0.8629;
169.5000;0.0920;-0.8675;
169.8000;0.0895;-0.8810;
170.1000;0.0895;-0.8878;
170.4000;0.0904;-0.8833;
170.7000;0.0912;-0.8810;
171.0000;0.0904;-0.8810;
171.3000;0.0912;-0.8856;
171.6000;0.0830;-0.9037;
171.9000;0.0895;-0.8946;
172.2000;0.0895;-0.8924;
172.5000;0.0904;-0.9014;
172.8000;0.0879;-0.9105;
173.1000;0.0928;-0.9082;
173.4000;0.0961;-0.9014;
173.7000;0.0993;-0.8856;
174.0000;0.0904;-0.8969;
174.3000;0.0920;-0.8901;
174.6000;0.0830;-0.9082;
174.9000;0.0871;-0.8924;
175.2000;0.0904;-0.8901;
175.5000;0.0944;-0.8833;
175.8000;0.0871;-0.8878;
176.1000;0.0952;-0.8720;
176.4000;0.0904;-0.8946;
176.7000;0.0920;-0.8946;
177.0000;0.0847;-0.9173;
177.3000;0.0920;-0.8924;
177.6000;0.0904;-0.9014;
177.9000;0.0904;-0.9060;
178.2000;0.0895;-0.9037;
178.5000;0.0928;-0.9037;
178.8000;0.0904;-0.9082;
179.1000;0.0879;-0.9105;
179.4000;0.0887;-0.9014;
179.7000;0.0838;-0.9082;
180.0000;0.0936;-0.8765;
180.3000;0.0920;-0.8743;
180.6000;0.0912;-0.8765;
180.9000;0.0928;-0.8629;
181.2000;0.0920;-0.8607;
181.5000;0.0765;-0.8992;
181.8000;0.0904;-0.8697;
182.1000;0.0912;-0.8629;
182.4000;0.0912;-0.8629;
182.7000;0.0895;-0.8629;
183.0000;0.0912;-0.8584;
183.3000;0.0912;-0.8652;
183.6000;0.0904;-0.8629;
183.9000;0.0912;-0.8607;
184.2000;0.0928;-0.8607;
184.5000;0.0895;-0.8652;
184.8000;0.0928;-0.8584;
185.1000;0.0920;-0.8697;
185.4000;0.0928;-0.8720;
185.7000;0.0920;-0.8743;
186.0000;0.0904;-0.8743;
186.3000;0.0985;-0.8561;
186.6000;0.0895;-0.8765;
186.9000;0.0912;-0.8810;
187.2000;0.0822;-0.9037;
187.5000;0.0895;-0.8833;
187.8000;0.0904;-0.8878;
188.1000;0.0879;-0.8856;
188.4000;0.0920;-0.8856;
188.7000;0.0887;-0.8788;
189.0000;0.0912;-0.8743;
189.3000;0.0855;-0.8788;
189.6000;0.0928;-0.8629;
189.9000;0.0904;-0.8743;
190.2000;0.0887;-0.8810;
190.5000;0.0928;-0.8833;
190.8000;0.0895;-0.8924;
191.1000;0.0879;-0.8969;
191.4000;0.0904;-0.8901;
191.7000;0.0887;-0.8946;
192.0000;0.0887;-0.8901;
192.3000;0.0912;-0.8969;
192.6000;0.0895;-0.8969;
192.9000;0.0944;-0.8743;
193.2000;0.0920;-0.8810;
193.5000;0.0871;-0.8878;
193.8000;0.0952;-0.8810;
194.1000;0.0904;-0.8878;
194.4000;0.0838;-0.9082;
194.7000;0.0920;-0.8901;
195.0000;0.0920;-0.8856;
195.3000;0.0912;-0.8924;
195.6000;0.1066;-0.8448;
195.9000;0.0904;-0.8833;
196.2000;0.0887;-0.8878;
196.5000;0.0912;-0.8788;
196.8000;0.0912;-0.8743;
197.1000;0.0944;-0.8810;
197.4000;0.0952;-0.8788;
197.7000;0.0904;-0.8856;
198.0000;0.0855;-0.9037;
198.3000;0.0895;-0.8992;
198.6000;0.0847;-0.9128;
198.9000;0.0863;-0.8969;
199.2000;0.0969;-0.8697;
199.5000;0.0904;-0.8878;
199.8000;0.0977;-0.8697;
200.1000;0.0944;-0.8856;
200.4000;0.0879;-0.9037;
200.7000;0.0977;-0.8878;
201.0000;0.0904;-0.9014;
201.3000;0.0887;-0.9060;
201.6000;0.0879;-0.9082;
201.9000;0.0904;-0.8946;
202.2000;0.0920;-0.8924;
202.5000;0.0912;-0.8878;
202.8000;0.0904;-0.8878;
203.1000;0.0985;-0.8652;
203.4000;0.0781;-0.9150;
203.7000;0.0912;-0.8969;
204.0000;0.0912;-0.8924;
204.3000;0.1042;-0.8607;
204.6000;0.0895;-0.9014;
204.9000;0.0920;-0.8924;
205.2000;0.0920;-0.8856;
205.5000;0.0863;-0.8969;
205.8000;0.0904;-0.8878;
206.1000;0.0895;-0.8856;
206.4000;0.0895;-0.8901;
206.7000;0.0912;-0.8833;
207.0000;0.0871;-0.8969;
207.3000;0.0904;-0.8878;
207.6000;0.0887;-0.8810;
207.9000;0.0806;-0.9037;
208.2000;0.1034;-0.8380;
208.5000;0.0912;-0.8743;
208.8000;0.0904;-0.8765;
209.1000;0.0936;-0.8675;
209.4000;0.0920;-0.8720;
209.7000;0.0895;-0.8743;
210.0000;0.0904;-0.8743;
210.3000;0.0855;-0.8901;
210.6000;0.0928;-0.8743;
210.9000;0.0912;-0.8765;
211.2000;0.0895;-0.8720;
211.5000;0.0904;-0.8765;
211.8000;0.0887;-0.8810;
212.1000;0.0887;-0.8856;
212.4000;0.0879;-0.8924;
212.7000;0.0912;-0.8946;
213.0000;0.0895;-0.8924;
213.3000;0.0912;-0.8924;
213.6000;0.0928;-0.8969;
213.9000;0.0871;-0.9105;
214.2000;0.0912;-0.9014;
214.5000;0.0904;-0.8901;
214.8000;0.0928;-0.8924;
215.1000;0.0904;-0.9014;
215.4000;0.0928;-0.8946;
215.7000;0.0904;-0.8924;
216.0000;0.0912;-0.8924;
216.3000;0.0912;-0.8833;
216.6000;0.0928;-0.8788;
216.9000;0.0912;-0.8833;
217.2000;0.0928;-0.8788;
217.5000;0.0912;-0.8765;
217.8000;0.0920;-0.8788;
218.1000;0.0895;-0.8788;
218.4000;0.0912;-0.8788;
218.7000;0.0904;-0.8878;
219.0000;0.0920;-0.8878;
219.3000;0.0928;-0.8924;
219.6000;0.0798;-0.9218;
219.9000;0.0977;-0.8697;
220.2000;0.0920;-0.8946;
220.5000;0.0904;-0.9060;
220.8000;0.0920;-0.8856;
221.1000;0.0912;-0.8878;
221.4000;0.0855;-0.9037;
221.7000;0.0895;-0.8856;
222.0000;0.0920;-0.8946;
222.3000;0.0895;-0.9014;
222.6000;0.0887;-0.9105;
222.9000;0.0887;-0.9105;
223.2000;0.0936;-0.8878;
223.5000;0.0920;-0.8833;
223.8000;0.0912;-0.8878;
224.1000;0.0904;-0.8856;
224.4000;0.0912;-0.8788;
224.7000;0.0904;-0.8810;
225.0000;0.0895;-0.8833;
225.3000;0.0895;-0.8946;
225.6000;0.0904;-0.8833;
225.9000;0.0895;-0.8924;
226.2000;0.0912;-0.8901;
226.5000;0.0855;-0.8946;
226.8000;0.0887;-0.8765;
227.1000;0.0920;-0.8743;
227.4000;0.0985;-0.8607;
227.7000;0.0985;-0.8675;
228.0000;0.0895;-0.8901;
228.3000;0.0977;-0.8788;
228.6000;0.0912;-0.9037;
228.9000;0.0920;-0.8992;
229.2000;0.0895;-0.9105;
229.5000;0.0920;-0.9037;
229.8000;0.0838;-0.9218;
230.1000;0.0928;-0.9060;
230.4000;0.0887;-0.9150;
230.7000;0.0912;-0.9173;
231.0000;0.0928;-0.9150;
231.3000;0.0904;-0.9196;
231.6000;0.0912;-0.9128;
231.9000;0.0855;-0.9218;
232.2000;0.0912;-0.9037;
232.5000;0.0904;-0.9082;
232.8000;0.0895;-0.9105;
233.1000;0.0944;-0.8992;
233.4000;0.0944;-0.9060;
233.7000;0.0920;-0.9060;
234.0000;0.0920;-0.8992;
234.3000;0.0895;-0.9060;
234.6000;0.0928;-0.9014;
234.9000;0.0879;-0.9105;
235.2000;0.0904;-0.8946;
235.5000;0.0895;-0.8924;
235.8000;0.0879;-0.8946;
236.1000;0.0928;-0.8856;
236.4000;0.0920;-0.8924;
236.7000;0.0904;-0.9037;
237.0000;0.0936;-0.8969;
237.3000;0.0863;-0.9105;
237.6000;0.0879;-0.9082;
237.9000;0.0879;-0.9037;
238.2000;0.0904;-0.8992;
238.5000;0.0863;-0.9128;
238.8000;0.0920;-0.9037;
239.1000;0.0920;-0.8969;
239.4000;0.0879;-0.9014;
239.7000;0.0928;-0.8833;
240.0000;0.0904;-0.8924;
240.3000;0.0985;-0.8810;
240.6000;0.0895;-0.8969;
240.9000;0.0895;-0.8901;
241.2000;0.0944;-0.8743;
241.5000;0.0879;-0.8788;
241.8000;0.0895;-0.8810;
242.1000;0.0904;-0.8901;
242.4000;0.0944;-0.8810;
242.7000;0.0936;-0.8901;
243.0000;0.0887;-0.9060;
243.3000;0.0912;-0.9037;
243.6000;0.0879;-0.9150;
243.9000;0.0920;-0.8992;
244.2000;0.0887;-0.8969;
244.5000;0.0920;-0.8856;
244.8000;0.0920;-0.8856;
245.1000;0.0920;-0.8788;
245.4000;0.0895;-0.8833;
245.7000;0.0920;-0.8810;
246.0000;0.0887;-0.8856;
246.3000;0.0912;-0.8788;
246.6000;0.0904;-0.8856;
246.9000;0.0912;-0.8810;
247.2000;0.0879;-0.8878;
247.5000;0.0920;-0.8720;
247.8000;0.0904;-0.8788;
248.1000;0.0912;-0.8765;
248.4000;0.0912;-0.8901;
248.7000;0.0928;-0.8992;
249.0000;0.0920;-0.8969;
249.3000;0.0887;-0.9037;
249.6000;0.0895;-0.9037;
249.9000;0.0936;-0.8901;
250.2000;0.0944;-0.8833;
250.5000;0.0928;-0.8856;
250.8000;0.0895;-0.8924;
251.1000;0.0936;-0.8901;
251.4000;0.0904;-0.9060;
251.7000;0.0969;-0.8878;
252.0000;0.0912;-0.9037;
252.3000;0.0904;-0.9105;
252.6000;0.0920;-0.9060;
252.9000;0.0920;-0.9060;
253.2000;0.0904;-0.9150;
253.5000;0.0920;-0.9150;
253.8000;0.0969;-0.9014;
254.1000;0.0904;-0.9128;
254.4000;0.0895;-0.9173;
254.7000;0.0928;-0.9082;
255.0000;0.0904;-0.9105;
255.3000;0.0944;-0.8901;
255.6000;0.0904;-0.8969;
255.9000;0.0904;-0.8924;
256.2000;0.0912;-0.8901;
256.5000;0.0936;-0.8833;
256.8000;0.0912;-0.8924;
257.1000;0.0871;-0.8946;
257.4000;0.0904;-0.8833;
257.7000;0.0920;-0.8878;
258.0000;0.0895;-0.9014;
258.3000;0.0830;-0.9196;
258.6000;0.0904;-0.8992;
258.9000;0.0928;-0.8946;
259.2000;0.0920;-0.8992;
259.5000;0.0952;-0.8924;
259.8000;0.0912;-0.9037;
260.1000;0.0838;-0.9218;
260.4000;0.0920;-0.9014;
260.7000;0.0928;-0.8946;
261.0000;0.0904;-0.8992;
261.3000;0.0887;-0.9014;
261.6000;0.0928;-0.8856;
261.9000;0.0944;-0.8833;
262.2000;0.0912;-0.8969;
262.5000;0.0952;-0.8833;
262.8000;0.0904;-0.8901;
263.1000;0.0904;-0.8833;
263.4000;0.0806;-0.8969;
263.7000;0.0928;-0.8743;
264.0000;0.0936;-0.8788;
264.3000;0.0887;-0.8901;
264.6000;0.0912;-0.8969;
264.9000;0.0920;-0.8924;
265.2000;0.0928;-0.8901;
265.5000;0.0952;-0.8720;
265.8000;0.0928;-0.8743;
266.1000;0.0920;-0.8856;
266.4000;0.0928;-0.8856;
266.7000;0.0920;-0.8969;
267.0000;0.0904;-0.8924;
267.3000;0.0838;-0.9014;
267.6000;0.0920;-0.8901;
267.9000;0.0912;-0.8810;
268.2000;0.0920;-0.8810;
268.5000;0.0895;-0.8901;
268.8000;0.0879;-0.8878;
269.1000;0.0920;-0.8765;
269.4000;0.0904;-0.8810;
269.7000;0.0904;-0.8833;
270.0000;0.0912;-0.8765;
270.3000;0.0895;-0.8901;
270.6000;0.0912;-0.8810;
270.9000;0.0895;-0.8856;
271.2000;0.0920;-0.8810;
271.5000;0.0920;-0.8720;
271.8000;0.0912;-0.8629;
272.1000;0.0904;-0.8629;
272.4000;0.0912;-0.8629;
272.7000;0.0920;-0.8584;
273.0000;0.0887;-0.8675;
273.3000;0.0936;-0.8652;
273.6000;0.0887;-0.8720;
273.9000;0.0928;-0.8697;
274.2000;0.0920;-0.8788;
274.5000;0.0920;-0.8856;
274.8000;0.0920;-0.8833;
275.1000;0.0928;-0.8878;
275.4000;0.0936;-0.8833;
275.7000;0.0944;-0.8810;
276.0000;0.0887;-0.8901;
276.3000;0.0928;-0.8833;
276.6000;0.0912;-0.8901;
276.9000;0.0887;-0.8833;
277.2000;0.0887;-0.8810;
277.5000;0.0887;-0.8765;
277.8000;0.0904;-0.8697;
278.1000;0.0928;-0.8697;
278.4000;0.0920;-0.8720;
278.7000;0.0790;-0.9082;
279.0000;0.0904;-0.8743;
279.3000;0.0961;-0.8629;
279.6000;0.0895;-0.8765;
279.9000;0.0944;-0.8652;
280.2000;0.0920;-0.8788;
280.5000;0.0912;-0.8788;
280.8000;0.0895;-0.8901;
281.1000;0.0912;-0.8901;
281.4000;0.0904;-0.8946;
281.7000;0.0920;-0.8946;
282.0000;0.0895;-0.9014;
282.3000;0.0879;-0.9105;
282.6000;0.0912;-0.8901;
282.9000;0.0904;-0.8878;
283.2000;0.0977;-0.8652;
283.5000;0.0904;-0.8810;
283.8000;0.0895;-0.8788;
284.1000;0.0904;-0.8878;
284.4000;0.0912;-0.8810;
284.7000;0.0904;-0.8856;
285.0000;0.0920;-0.8833;
285.3000;0.0904;-0.8901;
285.6000;0.0895;-0.8946;
285.9000;0.0895;-0.8833;
286.2000;0.0904;-0.8878;
286.5000;0.0879;-0.8924;
286.8000;0.0936;-0.8765;
287.1000;0.0961;-0.8607;
287.4000;0.1066;-0.8358;
287.7000;0.0912;-0.8765;
288.0000;0.0904;-0.8788;
288.3000;0.0855;-0.8969;
288.6000;0.0847;-0.8992;
288.9000;0.0912;-0.8810;
289.2000;0.0928;-0.8878;
289.5000;0.0912;-0.8924;
289.8000;0.0895;-0.8992;
290.1000;0.0912;-0.8924;
290.4000;0.0912;-0.8901;
290.7000;0.0904;-0.8878;
291.0000;0.0887;-0.8901;
291.3000;0.0887;-0.8878;
291.6000;0.0936;-0.8720;
291.9000;0.1042;-0.8516;
292.2000;0.0912;-0.8901;
292.5000;0.0920;-0.8901;
292.8000;0.0847;-0.9037;
293.1000;0.0912;-0.8856;
293.4000;0.0904;-0.8743;
293.7000;0.0904;-0.8720;
294.0000;0.0912;-0.8743;
294.3000;0.0912;-0.8788;
294.6000;0.0912;-0.8810;
294.9000;0.0798;-0.9060;
295.2000;0.0920;-0.8720;
295.5000;0.0936;-0.8697;
295.8000;0.0920;-0.8765;
296.1000;0.0936;-0.8765;
296.4000;0.0887;-0.8924;
296.7000;0.0920;-0.8946;
297.0000;0.0912;-0.8946;
297.3000;0.0879;-0.8924;
297.6000;0.0969;-0.8697;
297.9000;0.0920;-0.8810;
298.2000;0.0904;-0.8720;
298.5000;0.0895;-0.8743;
298.8000;0.0912;-0.8629;
299.1000;0.0920;-0.8561;
299.4000;0.0928;-0.8629;
299.7000;0.0904;-0.8652;
300.0000;0.0895;-0.8720;
300.3000;0.0879;-0.8743;
300.6000;0.0904;-0.8675;
300.9000;0.0920;-0.8629;
301.2000;0.0928;-0.8561;
301.5000;0.0912;-0.8629;
301.8000;0.0928;-0.8516;
302.1000;0.0847;-0.8697;
302.4000;0.0912;-0.8561;
302.7000;0.0912;-0.8629;
303.0000;0.0904;-0.8607;
303.3000;0.0847;-0.8856;
303.6000;0.0912;-0.8720;
303.9000;0.0895;-0.8697;
304.2000;0.0847;-0.8856;
304.5000;0.0928;-0.8652;
304.8000;0.0871;-0.8788;
305.1000;0.0895;-0.8720;
305.4000;0.0887;-0.8788;
305.7000;0.0912;-0.8697;
306.0000;0.0895;-0.8697;
306.3000;0.0912;-0.8697;
306.6000;0.0904;-0.8743;
306.9000;0.0920;-0.8743;
307.2000;0.0895;-0.8720;
307.5000;0.0904;-0.8697;
307.8000;0.0920;-0.8720;
308.1000;0.0895;-0.8697;
308.4000;0.0928;-0.8584;
308.7000;0.0912;-0.8652;
309.0000;0.0887;-0.8629;
309.3000;0.0920;-0.8584;
309.6000;0.0912;-0.8584;
309.9000;0.0887;-0.8629;
310.2000;0.0912;-0.8720;
310.5000;0.0912;-0.8697;
310.8000;0.0904;-0.8629;
311.1000;0.0985;-0.8448;
311.4000;0.0790;-0.9037;
311.7000;0.0912;-0.8765;
312.0000;0.0912;-0.8720;
312.3000;0.0765;-0.9128;
312.6000;0.0944;-0.8720;
312.9000;0.0985;-0.8607;
313.2000;0.0936;-0.8833;
313.5000;0.0904;-0.8833;
313.8000;0.0879;-0.8901;
314.1000;0.0887;-0.8810;
314.4000;0.0920;-0.8629;
314.7000;0.0944;-0.8675;
315.0000;0.0952;-0.8652;
315.3000;0.0904;-0.8720;
315.6000;0.0806;-0.9014;
315.9000;0.0879;-0.8833;
316.2000;0.0920;-0.8765;
316.5000;0.0904;-0.8901;
316.8000;0.0936;-0.8788;
317.1000;0.0928;-0.8765;
317.4000;0.0952;-0.8720;
317.7000;0.0904;-0.8810;
318.0000;0.0912;-0.8810;
318.3000;0.0920;-0.8765;
318.6000;0.0887;-0.8856;
318.9000;0.0887;-0.8788;
319.2000;0.0863;-0.8856;
319.5000;0.0887;-0.8720;
319.8000;0.0887;-0.8675;
320.1000;0.0887;-0.8675;
320.4000;0.0920;-0.8607;
320.7000;0.0879;-0.8720;
321.0000;0.0895;-0.8675;
321.3000;0.0887;-0.8697;
321.6000;0.0920;-0.8584;
321.9000;0.0895;-0.8629;
322.2000;0.0912;-0.8652;
322.5000;0.0912;-0.8697;
322.8000;0.0912;-0.8675;
323.1000;0.0912;-0.8561;
323.4000;0.0904;-0.8607;
323.7000;0.0904;-0.8584;
324.0000;0.0879;-0.8584;
324.3000;0.0904;-0.8493;
324.6000;0.0912;-0.8471;
324.9000;0.0904;-0.8584;
325.2000;0.0904;-0.8561;
325.5000;0.0887;-0.8720;
325.8000;0.0895;-0.8720;
326.1000;0.0855;-0.8810;
326.4000;0.0912;-0.8561;
326.7000;0.0912;-0.8539;
327.0000;0.0879;-0.8539;
327.3000;0.0879;-0.8584;
327.6000;0.0936;-0.8539;
327.9000;0.0904;-0.8584;
328.2000;0.0895;-0.8697;
328.5000;0.0879;-0.8743;
328.8000;0.0928;-0.8607;
329.1000;0.0912;-0.8720;
329.4000;0.0936;-0.8629;
329.7000;0.0895;-0.8765;
330.0000;0.0863;-0.8833;
330.3000;0.0887;-0.8743;
330.6000;0.0904;-0.8629;
330.9000;0.0904;-0.8561;
331.2000;0.0920;-0.8516;
331.5000;0.0895;-0.8584;
331.8000;0.0895;-0.8539;
332.1000;0.0895;-0.8561;
332.4000;0.0895;-0.8629;
332.7000;0.0871;-0.8788;
333.0000;0.0895;-0.8765;
333.3000;0.0904;-0.8720;
333.6000;0.0920;-0.8584;
333.9000;0.0920;-0.8652;
334.2000;0.0822;-0.8878;
334.5000;0.0912;-0.8607;
334.8000;0.0904;-0.8607;
335.1000;0.0936;-0.8471;
335.4000;0.0781;-0.8810;
335.7000;0.0977;-0.8312;
336.0000;0.0912;-0.8493;
336.3000;0.1001;-0.8312;
336.6000;0.0912;-0.8561;
336.9000;0.0895;-0.8561;
337.2000;0.0871;-0.8652;
337.5000;0.1034;-0.8267;
337.8000;0.0912;-0.8607;
338.1000;0.0912;-0.8539;
338.4000;0.0895;-0.8448;
338.7000;0.0936;-0.8358;
339.0000;0.0969;-0.8290;
339.3000;0.0912;-0.8471;
339.6000;0.0895;-0.8584;
339.9000;0.1009;-0.8335;
340.2000;0.0944;-0.8493;
340.5000;0.0928;-0.8561;
340.8000;0.0993;-0.8380;
341.1000;0.0904;-0.8584;
341.4000;0.0928;-0.8448;
341.7000;0.0904;-0.8493;
342.0000;0.0887;-0.8539;
342.3000;0.0904;-0.8584;
342.6000;0.0928;-0.8539;
342.9000;0.0904;-0.8584;
343.2000;0.0920;-0.8516;
343.5000;0.0904;-0.8607;
343.8000;0.0887;-0.8720;
344.1000;0.1099;-0.8222;
344.4000;0.0920;-0.8629;
344.7000;0.0928;-0.8675;
345.0000;0.0920;-0.8675;
345.3000;0.0920;-0.8584;
345.6000;0.0928;-0.8493;
345.9000;0.0936;-0.8584;
346.2000;0.0952;-0.8539;
346.5000;0.0887;-0.8788;
346.8000;0.0920;-0.8675;
347.1000;0.0895;-0.8652;
347.4000;0.0920;-0.8629;
347.7000;0.0912;-0.8629;
348.0000;0.0887;-0.8675;
348.3000;0.0847;-0.8743;
348.6000;0.0895;-0.8629;
348.9000;0.0912;-0.8539;
349.2000;0.0904;-0.8607;
349.5000;0.0904;-0.8584;
349.8000;0.0928;-0.8493;
350.1000;0.0920;-0.8493;
350.4000;0.0920;-0.8516;
350.7000;0.0806;-0.8743;
351.0000;0.0920;-0.8493;
351.3000;0.0773;-0.8810;
351.6000;0.0904;-0.8584;
351.9000;0.0904;-0.8539;
352.2000;0.0952;-0.8380;
352.5000;0.0912;-0.8425;
352.8000;0.0887;-0.8493;
353.1000;0.0904;-0.8448;
353.4000;0.0961;-0.8358;
353.7000;0.0904;-0.8471;
354.0000;0.0904;-0.8493;
354.3000;0.0952;-0.8312;
354.6000;0.0920;-0.8358;
354.9000;0.0887;-0.8403;
355.2000;0.0920;-0.8267;
355.5000;0.0912;-0.8380;
355.8000;0.0920;-0.8403;
356.1000;0.0920;-0.8403;
356.4000;0.0871;-0.8561;
356.7000;0.0895;-0.8493;
357.0000;0.0912;-0.8425;
357.3000;0.0912;-0.8448;
357.6000;0.0904;-0.8516;
357.9000;0.0920;-0.8493;
358.2000;0.0847;-0.8675;
358.5000;0.0928;-0.8448;
358.8000;0.0912;-0.8448;
359.1000;0.0895;-0.8425;
359.4000;0.0928;-0.8380;
359.7000;0.0904;-0.8493;
360.0000;0.0977;-0.8358;
360.3000;0.0912;-0.8561;
360.6000;0.0920;-0.8584;
360.9000;0.0920;-0.8629;
361.2000;0.0920;-0.8652;
361.5000;0.0904;-0.8743;
361.8000;0.0855;-0.8924;
362.1000;0.0920;-0.8788;
362.4000;0.0895;-0.8765;
362.7000;0.0912;-0.8675;
363.0000;0.0855;-0.8675;
363.3000;0.0887;-0.8652;
363.6000;0.0928;-0.8584;
363.9000;0.0879;-0.8652;
364.2000;0.0928;-0.8516;
364.5000;0.0912;-0.8584;
364.8000;0.0912;-0.8584;
365.1000;0.0904;-0.8629;
365.4000;0.0928;-0.8561;
365.7000;0.0928;-0.8561;
366.0000;0.0920;-0.8652;
366.3000;0.0904;-0.8765;
366.6000;0.0904;-0.8652;
366.9000;0.0928;-0.8584;
367.2000;0.1009;-0.8380;
367.5000;0.0863;-0.8697;
367.8000;0.0912;-0.8607;
368.1000;0.0879;-0.8675;
368.4000;0.0895;-0.8607;
368.7000;0.0912;-0.8561;
369.0000;0.0798;-0.8901;
369.3000;0.0904;-0.8675;
369.6000;0.1034;-0.8471;
369.9000;0.0912;-0.8810;
370.2000;0.0895;-0.8924;
370.5000;0.0912;-0.8924;
370.8000;0.1009;-0.8561;
371.1000;0.0895;-0.8856;
371.4000;0.0969;-0.8697;
371.7000;0.0936;-0.8743;
372.0000;0.0895;-0.8856;
372.3000;0.0806;-0.9128;
372.6000;0.0977;-0.8765;
372.9000;0.0855;-0.9060;
373.2000;0.0928;-0.8856;
373.5000;0.0895;-0.8833;
373.8000;0.0887;-0.8765;
374.1000;0.0928;-0.8607;
374.4000;0.0944;-0.8584;
374.7000;0.0936;-0.8584;
375.0000;0.0920;-0.8652;
375.3000;0.0969;-0.8493;
375.6000;0.0928;-0.8629;
375.9000;0.0904;-0.8607;
376.2000;0.0944;-0.8448;
376.5000;0.0895;-0.8584;
376.8000;0.0895;-0.8697;
377.1000;0.0993;-0.8425;
377.4000;0.0887;-0.8720;
377.7000;0.0863;-0.8720;
378.0000;0.0936;-0.8584;
378.3000;0.0912;-0.8584;
378.6000;0.0912;-0.8629;
378.9000;0.0912;-0.8607;
379.2000;0.0887;-0.8675;
379.5000;0.0928;-0.8539;
379.8000;0.0920;-0.8561;
380.1000;0.0936;-0.8539;
380.4000;0.0887;-0.8607;
380.7000;0.0920;-0.8471;
381.0000;0.0928;-0.8448;
381.3000;0.0944;-0.8425;
381.6000;0.0904;-0.8561;
381.9000;0.0887;-0.8652;
382.2000;0.0920;-0.8697;
382.5000;0.0895;-0.8720;
382.8000;0.0895;-0.8675;
383.1000;0.0895;-0.8607;
383.4000;0.0936;-0.8448;
383.7000;0.0895;-0.8516;
384.0000;0.0904;-0.8493;
384.3000;0.0895;-0.8539;
384.6000;0.0920;-0.8607;
384.9000;0.0993;-0.8493;
385.2000;0.0912;-0.8765;
385.5000;0.0904;-0.8810;
385.8000;0.0920;-0.8788;
386.1000;0.0904;-0.8788;
386.4000;0.0887;-0.8765;
386.7000;0.0904;-0.8697;
387.0000;0.0936;-0.8607;
387.3000;0.0928;-0.8652;
387.6000;0.0920;-0.8652;
387.9000;0.0912;-0.8675;
388.2000;0.0952;-0.8561;
388.5000;0.0920;-0.8697;
388.8000;0.1001;-0.8539;
389.1000;0.0904;-0.8720;
389.4000;0.0904;-0.8675;
389.7000;0.0847;-0.8720;
390.0000;0.0920;-0.8516;
390.3000;0.0928;-0.8471;
390.6000;0.0912;-0.8561;
390.9000;0.1001;-0.8380;
391.2000;0.0895;-0.8743;
391.5000;0.0895;-0.8765;
391.8000;0.0879;-0.8788;
392.1000;0.0895;-0.8765;
392.4000;0.0904;-0.8697;
392.7000;0.0904;-0.8675;
393.0000;0.0822;-0.8878;
393.3000;0.0920;-0.8788;
393.6000;0.0822;-0.9014;
393.9000;0.0993;-0.8516;
394.2000;0.0936;-0.8561;
394.5000;0.0928;-0.8561;
394.8000;0.0920;-0.8629;
395.1000;0.1001;-0.8448;
395.4000;0.0920;-0.8607;
395.7000;0.0879;-0.8675;
396.0000;0.0912;-0.8584;
396.3000;0.0928;-0.8493;
396.6000;0.0928;-0.8584;
396.9000;0.0961;-0.8561;
397.2000;0.0928;-0.8652;
397.5000;0.0952;-0.8584;
397.8000;0.0920;-0.8629;
398.1000;0.0928;-0.8516;
398.4000;0.1009;-0.8358;
398.7000;0.0952;-0.8493;
399.0000;0.0879;-0.8607;
399.3000;0.0887;-0.8516;
399.6000;0.0887;-0.8584;
399.9000;0.0904;-0.8561;
400.2000;0.0904;-0.8539;
400.5000;0.0895;-0.8561;
400.8000;0.0904;-0.8448;
401.1000;0.0912;-0.8448;
401.4000;0.0912;-0.8539;
401.7000;0.0920;-0.8471;
402.0000;0.0912;-0.8448;
402.3000;0.0895;-0.8539;
402.6000;0.0895;-0.8561;
402.9000;0.0912;-0.8607;
403.2000;0.0895;-0.8584;
403.5000;0.0847;-0.8675;
403.8000;0.0904;-0.8561;
404.1000;0.0912;-0.8516;
404.4000;0.0904;-0.8516;
404.7000;0.0895;-0.8561;
405.0000;0.0952;-0.8471;
405.3000;0.0920;-0.8471;
405.6000;0.0920;-0.8493;
405.9000;0.0887;-0.8584;
406.2000;0.0912;-0.8539;
406.5000;0.0920;-0.8403;
406.8000;0.0912;-0.8335;
407.1000;0.0969;-0.8176;
407.4000;0.0920;-0.8244;
407.7000;0.0887;-0.8380;
408.0000;0.0904;-0.8335;
408.3000;0.0904;-0.8290;
408.6000;0.0895;-0.8312;
408.9000;0.0879;-0.8380;
409.2000;0.0904;-0.8267;
409.5000;0.0855;-0.8471;
409.8000;0.0879;-0.8471;
410.1000;0.0887;-0.8471;
410.4000;0.0944;-0.8448;
410.7000;0.0936;-0.8425;
411.0000;0.0920;-0.8471;
411.3000;0.0920;-0.8539;
411.6000;0.0895;-0.8539;
411.9000;0.0904;-0.8493;
412.2000;0.0912;-0.8493;
412.5000;0.0912;-0.8425;
412.8000;0.0912;-0.8448;
413.1000;0.0912;-0.8448;
413.4000;0.0904;-0.8448;
413.7000;0.0879;-0.8561;
414.0000;0.0944;-0.8380;
414.3000;0.0904;-0.8425;
414.6000;0.0969;-0.8312;
414.9000;0.0749;-0.8856;
415.2000;0.0904;-0.8425;
415.5000;0.0920;-0.8380;
415.8000;0.0887;-0.8425;
416.1000;0.0887;-0.8471;
416.4000;0.0944;-0.8358;
416.7000;0.0944;-0.8335;
417.0000;0.0936;-0.8380;
417.3000;0.0895;-0.8471;
417.6000;0.0985;-0.8358;
417.9000;0.0928;-0.8493;
418.2000;0.0920;-0.8448;
418.5000;0.0920;-0.8335;
418.8000;0.0904;-0.8312;
419.1000;0.0904;-0.8290;
419.4000;0.0920;-0.8358;
419.7000;0.1018;-0.8222;
420.0000;0.0936;-0.8425;
420.3000;0.0936;-0.8358;
420.6000;0.0928;-0.8244;
420.9000;0.0912;-0.8290;
421.2000;0.0944;-0.8244;
421.5000;0.0920;-0.8290;
421.8000;0.0912;-0.8312;
422.1000;0.0993;-0.8131;
422.4000;0.0912;-0.8244;
422.7000;0.0904;-0.8312;
423.0000;0.0904;-0.8312;
423.3000;0.0895;-0.8222;
423.6000;0.0879;-0.8312;
423.9000;0.0928;-0.8199;
424.2000;0.0920;-0.8131;
424.5000;0.0904;-0.8154;
424.8000;0.0944;-0.8108;
425.1000;0.0912;-0.8199;
425.4000;0.0928;-0.8199;
425.7000;0.1026;-0.7995;
426.0000;0.0863;-0.8516;
426.3000;0.0863;-0.8652;
426.6000;0.0912;-0.8380;
426.9000;0.0912;-0.8358;
427.2000;0.0887;-0.8448;
427.5000;0.0895;-0.8516;
427.8000;0.0912;-0.8425;
428.1000;0.0920;-0.8380;
428.4000;0.0895;-0.8471;
428.7000;0.0920;-0.8471;
429.0000;0.0944;-0.8425;
429.3000;0.0879;-0.8652;
429.6000;0.0887;-0.8652;
429.9000;0.0871;-0.8697;
430.2000;0.0912;-0.8629;
430.5000;0.0912;-0.8539;
430.8000;0.0895;-0.8539;
431.1000;0.0944;-0.8403;
431.4000;0.0912;-0.8539;
431.7000;0.0895;-0.8607;
432.0000;0.0985;-0.8471;
432.3000;0.0904;-0.8675;
432.6000;0.0944;-0.8584;
432.9000;0.0904;-0.8607;
433.2000;0.0904;-0.8539;
433.5000;0.0912;-0.8403;
433.8000;0.0928;-0.8403;
434.1000;0.0895;-0.8516;
434.4000;0.0912;-0.8448;
434.7000;0.0847;-0.8607;
435.0000;0.0887;-0.8493;
435.3000;0.0912;-0.8448;
435.6000;0.0985;-0.8267;
435.9000;0.0920;-0.8403;
436.2000;0.0871;-0.8607;
436.5000;0.0904;-0.8561;
436.8000;0.0928;-0.8493;
437.1000;0.0904;-0.8516;
437.4000;0.0904;-0.8448;
437.7000;0.0920;-0.8493;
438.0000;0.0912;-0.8493;
438.3000;0.0904;-0.8561;
438.6000;0.0912;-0.8584;
438.9000;0.0838;-0.8788;
439.2000;0.0904;-0.8652;
439.5000;0.0920;-0.8584;
439.8000;0.0912;-0.8652;
440.1000;0.0912;-0.8629;
440.4000;0.0944;-0.8629;
440.7000;0.0879;-0.8765;
441.0000;0.0871;-0.8720;
441.3000;0.0928;-0.8561;
441.6000;0.0928;-0.8471;
441.9000;0.0855;-0.8539;
442.2000;0.0912;-0.8425;
442.5000;0.0912;-0.8493;
442.8000;0.0928;-0.8471;
443.1000;0.0920;-0.8516;
443.4000;0.0912;-0.8561;
443.7000;0.0920;-0.8516;
444.0000;0.0936;-0.8493;
444.3000;0.0920;-0.8539;
444.6000;0.0920;-0.8607;
444.9000;0.0879;-0.8743;
445.2000;0.0977;-0.8516;
445.5000;0.0912;-0.8471;
445.8000;0.0928;-0.8493;
446.1000;0.0944;-0.8493;
446.4000;0.0920;-0.8539;
446.7000;0.0961;-0.8425;
447.0000;0.0895;-0.8493;
447.3000;0.0879;-0.8516;
447.6000;0.0830;-0.8697;
447.9000;0.0895;-0.8539;
448.2000;0.0928;-0.8403;
448.5000;0.0920;-0.8425;
448.8000;0.0904;-0.8403;
449.1000;0.0928;-0.8335;
449.4000;0.0920;-0.8380;
449.7000;0.1042;-0.8131;
450.0000;0.0936;-0.8425;
450.3000;0.0895;-0.8607;
450.6000;0.0855;-0.8720;
450.9000;0.0798;-0.8833;
451.2000;0.0952;-0.8448;
451.5000;0.0863;-0.8652;
451.8000;0.0879;-0.8607;
452.1000;0.0879;-0.8561;
452.4000;0.0912;-0.8448;
452.7000;0.0904;-0.8471;
453.0000;0.0855;-0.8675;
453.3000;0.0920;-0.8539;
453.6000;0.0912;-0.8493;
453.9000;0.0920;-0.8516;
454.2000;0.0887;-0.8539;
454.5000;0.0904;-0.8471;
454.8000;0.0912;-0.8448;
455.1000;0.0855;-0.8652;
455.4000;0.0920;-0.8448;
455.7000;0.0773;-0.8901;
456.0000;0.0912;-0.8607;
456.3000;0.0920;-0.8584;
456.6000;0.0920;-0.8448;
456.9000;0.0912;-0.8448;
457.2000;0.0904;-0.8448;
457.5000;0.0895;-0.8471;
457.8000;0.0920;-0.8448;
458.1000;0.0952;-0.8335;
458.4000;0.0887;-0.8380;
458.7000;0.0952;-0.8267;
459.0000;0.0920;-0.8448;
459.3000;0.0920;-0.8493;
459.6000;0.0920;-0.8471;
459.9000;0.0904;-0.8493;
460.2000;0.0871;-0.8629;
460.5000;0.0904;-0.8584;
460.8000;0.0895;-0.8607;
461.1000;0.0928;-0.8607;
461.4000;0.0920;-0.8584;
461.7000;0.0920;-0.8584;
462.0000;0.0904;-0.8584;
462.3000;0.0920;-0.8561;
462.6000;0.0928;-0.8652;
462.9000;0.0912;-0.8629;
463.2000;0.0887;-0.8697;
463.5000;0.0912;-0.8629;
463.8000;0.0920;-0.8539;
464.1000;0.0895;-0.8584;
464.4000;0.0936;-0.8516;
464.7000;0.0928;-0.8652;
465.0000;0.0920;-0.8629;
465.3000;0.0887;-0.8561;
465.6000;0.0895;-0.8516;
465.9000;0.0936;-0.8493;
466.2000;0.0895;-0.8516;
466.5000;0.0969;-0.8380;
466.8000;0.0879;-0.8629;
467.1000;0.0920;-0.8539;
467.4000;0.0928;-0.8539;
467.7000;0.0912;-0.8516;
468.0000;0.0920;-0.8493;
468.3000;0.0887;-0.8607;
468.6000;0.0904;-0.8629;
468.9000;0.0904;-0.8629;
469.2000;0.0961;-0.8516;
469.5000;0.0904;-0.8539;
469.8000;0.0920;-0.8493;
470.1000;0.0920;-0.8425;
470.4000;0.0928;-0.8448;
470.7000;0.0904;-0.8471;
471.0000;0.0944;-0.8380;
471.3000;0.0887;-0.8471;
471.6000;0.0871;-0.8561;
471.9000;0.0838;-0.8765;
472.2000;0.0912;-0.8539;
472.5000;0.0904;-0.8561;
472.8000;0.0912;-0.8561;
473.1000;0.0904;-0.8584;
473.4000;0.0887;-0.8652;
473.7000;0.0977;-0.8335;
474.0000;0.0879;-0.8448;
474.3000;0.0936;-0.8244;
474.6000;0.0969;-0.8222;
474.9000;0.0879;-0.8448;
475.2000;0.0928;-0.8403;
475.5000;0.0969;-0.8267;
475.8000;0.0928;-0.8425;
476.1000;0.0920;-0.8471;
476.4000;0.0904;-0.8516;
476.7000;0.0895;-0.8539;
477.0000;0.0912;-0.8471;
477.3000;0.0920;-0.8516;
477.6000;0.0961;-0.8425;
477.9000;0.0920;-0.8584;
478.2000;0.0936;-0.8516;
478.5000;0.0879;-0.8675;
478.8000;0.0879;-0.8697;
479.1000;0.1066;-0.8154;
479.4000;0.0887;-0.8652;
479.7000;0.0920;-0.8561;
480.0000;0.0920;-0.8561;
480.3000;0.0904;-0.8652;
480.6000;0.0944;-0.8516;
480.9000;0.0920;-0.8561;
481.2000;0.0904;-0.8516;
481.5000;0.0936;-0.8403;
481.8000;0.0863;-0.8493;
482.1000;0.0977;-0.8290;
482.4000;0.0912;-0.8516;
482.7000;0.0944;-0.8493;
483.0000;0.0928;-0.8448;
483.3000;0.0863;-0.8697;
483.6000;0.0920;-0.8539;
483.9000;0.0895;-0.8561;
484.2000;0.0920;-0.8448;
484.5000;0.0912;-0.8448;
484.8000;0.0920;-0.8584;
485.1000;0.0912;-0.8584;
485.4000;0.0928;-0.8493;
485.7000;0.0936;-0.8471;
486.0000;0.0936;-0.8471;
486.3000;0.0895;-0.8607;
486.6000;0.0904;-0.8493;
486.9000;0.0928;-0.8471;
487.2000;0.0944;-0.8425;
487.5000;0.0895;-0.8539;
487.8000;0.0895;-0.8493;
488.1000;0.0887;-0.8607;
488.4000;0.0895;-0.8652;
488.7000;0.0920;-0.8629;
489.0000;0.0912;-0.8652;
489.3000;0.0936;-0.8584;
489.6000;0.0912;-0.8516;
489.9000;0.0887;-0.8516;
490.2000;0.0904;-0.8516;
490.5000;0.0928;-0.8516;
490.8000;0.0920;-0.8471;
491.1000;0.0904;-0.8516;
491.4000;0.0863;-0.8561;
491.7000;0.0904;-0.8471;
492.0000;0.0904;-0.8425;
492.3000;0.0806;-0.8607;
492.6000;0.0936;-0.8358;
492.9000;0.0895;-0.8425;
493.2000;0.0944;-0.8403;
493.5000;0.0895;-0.8584;
493.8000;0.0912;-0.8629;
494.1000;0.0879;-0.8629;
494.4000;0.0904;-0.8561;
494.7000;0.0928;-0.8539;
495.0000;0.0904;-0.8584;
495.3000;0.0928;-0.8493;
495.6000;0.0912;-0.8380;
495.9000;0.0912;-0.8312;
496.2000;0.0895;-0.8358;
496.5000;0.0944;-0.8267;
496.8000;0.0928;-0.8335;
497.1000;0.0887;-0.8425;
497.4000;0.0887;-0.8493;
497.7000;0.0887;-0.8403;
498.0000;0.0904;-0.8335;
498.3000;0.0895;-0.8312;
498.6000;0.0895;-0.8358;
498.9000;0.0928;-0.8222;
499.2000;0.0920;-0.8267;
499.5000;0.0838;-0.8516;
499.8000;0.0879;-0.8493;
500.1000;0.0961;-0.8199;
500.4000;0.0847;-0.8471;
500.7000;0.0920;-0.8403;
501.0000;0.0920;-0.8312;
501.3000;0.0895;-0.8335;
501.6000;0.0912;-0.8267;
501.9000;0.0912;-0.8335;
502.2000;0.0895;-0.8335;
502.5000;0.0912;-0.8335;
502.8000;0.0920;-0.8312;
503.1000;0.0855;-0.8539;
503.4000;0.0912;-0.8448;
503.7000;0.0879;-0.8493;
504.0000;0.0944;-0.8335;
504.3000;0.0879;-0.8539;
504.6000;0.0904;-0.8425;
504.9000;0.0887;-0.8493;
505.2000;0.0920;-0.8607;
505.5000;0.0895;-0.8629;
505.8000;0.0887;-0.8652;
506.1000;0.0920;-0.8471;
506.4000;0.0912;-0.8471;
506.7000;0.0847;-0.8697;
507.0000;0.0912;-0.8493;
507.3000;0.0912;-0.8471;
507.6000;0.0928;-0.8403;
507.9000;0.0928;-0.8312;
508.2000;0.0920;-0.8290;
508.5000;0.0912;-0.8312;
508.8000;0.0928;-0.8380;
509.1000;0.0928;-0.8380;
509.4000;0.0912;-0.8380;
509.7000;0.0920;-0.8312;
510.0000;0.0912;-0.8380;
510.3000;0.0928;-0.8403;
510.6000;0.0904;-0.8425;
510.9000;0.0928;-0.8380;
511.2000;0.0920;-0.8380;
511.5000;0.0920;-0.8425;
511.8000;0.0887;-0.8471;
512.1000;0.0936;-0.8425;
512.4000;0.0904;-0.8516;
512.7000;0.0969;-0.8290;
513.0000;0.0895;-0.8471;
513.3000;0.0920;-0.8335;
513.6000;0.0936;-0.8425;
513.9000;0.0871;-0.8539;
514.2000;0.0895;-0.8425;
514.5000;0.0928;-0.8312;
514.8000;0.0920;-0.8335;
515.1000;0.0944;-0.8267;
515.4000;0.0871;-0.8425;
515.7000;0.0912;-0.8358;
516.0000;0.0879;-0.8425;
516.3000;0.0855;-0.8448;
516.6000;0.0912;-0.8380;
516.9000;0.0920;-0.8358;
517.2000;0.0822;-0.8652;
517.5000;0.0887;-0.8358;
517.8000;0.0961;-0.8222;
518.1000;0.0912;-0.8335;
518.4000;0.0912;-0.8267;
518.7000;0.0920;-0.8244;
519.0000;0.0904;-0.8312;
519.3000;0.0895;-0.8312;
519.6000;0.0895;-0.8403;
519.9000;0.0895;-0.8448;
520.2000;0.0904;-0.8471;
520.5000;0.0912;-0.8425;
520.8000;0.0993;-0.8222;
521.1000;0.0936;-0.8471;
521.4000;0.0969;-0.8493;
521.7000;0.0920;-0.8720;
522.0000;0.0928;-0.8743;
522.3000;0.0936;-0.8652;
522.6000;0.0871;-0.8765;
522.9000;0.0920;-0.8539;
523.2000;0.0895;-0.8607;
523.5000;0.0920;-0.8471;
523.8000;0.0977;-0.8335;
524.1000;0.0904;-0.8516;
524.4000;0.0879;-0.8493;
524.7000;0.1018;-0.8176;
525.0000;0.0961;-0.8267;
525.3000;0.1018;-0.8222;
525.6000;0.0977;-0.8244;
525.9000;0.0904;-0.8312;
526.2000;0.0904;-0.8312;
526.5000;0.0871;-0.8335;
526.8000;0.0912;-0.8244;
527.1000;0.0887;-0.8312;
527.4000;0.0912;-0.8358;
527.7000;0.0912;-0.8312;
528.0000;0.0912;-0.8358;
528.3000;0.0944;-0.8222;
528.6000;0.0920;-0.8290;
528.9000;0.0904;-0.8425;
529.2000;0.0879;-0.8516;
529.5000;0.0879;-0.8493;
529.8000;0.0928;-0.8358;
530.1000;0.0912;-0.8448;
530.4000;0.0912;-0.8471;
530.7000;0.0863;-0.8652;
531.0000;0.0895;-0.8539;
531.3000;0.0912;-0.8516;
531.6000;0.0920;-0.8561;
531.9000;0.0969;-0.8448;
532.2000;0.0904;-0.8607;
532.5000;0.0944;-0.8493;
532.8000;0.1018;-0.8267;
533.1000;0.0912;-0.8561;
533.4000;0.0895;-0.8652;
533.7000;0.0912;-0.8561;
534.0000;0.0904;-0.8561;
534.3000;0.0912;-0.8675;
534.6000;0.0895;-0.8765;
534.9000;0.0928;-0.8697;
535.2000;0.0887;-0.8720;
535.5000;0.0928;-0.8629;
535.8000;0.0920;-0.8675;
536.1000;0.0904;-0.8607;
536.4000;0.0912;-0.8561;
536.7000;0.0904;-0.8561;
537.0000;0.0887;-0.8629;
537.3000;0.0928;-0.8448;
537.6000;0.0912;-0.8448;
537.9000;0.0879;-0.8516;
538.2000;0.0912;-0.8516;
538.5000;0.0904;-0.8561;
538.8000;0.0904;-0.8607;
539.1000;0.0904;-0.8471;
539.4000;0.0985;-0.8222;
539.7000;0.0904;-0.8403;
540.0000;0.0904;-0.8403;
540.3000;0.0920;-0.8335;
540.6000;0.0928;-0.8358;
540.9000;0.0928;-0.8493;
541.2000;0.0904;-0.8561;
541.5000;0.0912;-0.8493;
541.8000;0.0952;-0.8358;
542.1000;0.0920;-0.8516;
542.4000;0.0871;-0.8584;
542.7000;0.0895;-0.8561;
543.0000;0.0936;-0.8471;
543.3000;0.0838;-0.8788;
543.6000;0.0855;-0.8720;
543.9000;0.0904;-0.8539;
544.2000;0.0928;-0.8380;
544.5000;0.0928;-0.8358;
544.8000;0.0863;-0.8561;
545.1000;0.0895;-0.8493;
545.4000;0.0887;-0.8539;
545.7000;0.0928;-0.8425;
546.0000;0.0895;-0.8493;
546.3000;0.0806;-0.8697;
546.6000;0.0847;-0.8493;
546.9000;0.0912;-0.8539;
547.2000;0.0928;-0.8493;
547.5000;0.0936;-0.8561;
547.8000;0.0936;-0.8539;
548.1000;0.0904;-0.8539;
548.4000;0.0969;-0.8403;
548.7000;0.0920;-0.8584;
549.0000;0.0904;-0.8539;
549.3000;0.0961;-0.8403;
549.6000;0.0765;-0.8856;
549.9000;0.1034;-0.8312;
550.2000;0.0928;-0.8629;
550.5000;0.0936;-0.8629;
550.8000;0.0895;-0.8675;
551.1000;0.0871;-0.8743;
551.4000;0.0904;-0.8652;
551.7000;0.0887;-0.8629;
552.0000;0.0790;-0.8856;
552.3000;0.0912;-0.8607;
552.6000;0.0912;-0.8629;
552.9000;0.0936;-0.8539;
553.2000;0.0879;-0.8652;
553.5000;0.0904;-0.8471;
553.8000;0.0928;-0.8403;
554.1000;0.0912;-0.8403;
554.4000;0.0887;-0.8448;
554.7000;0.0993;-0.8108;
555.0000;0.0920;-0.8267;
555.3000;0.0920;-0.8290;
555.6000;0.0895;-0.8425;
555.9000;0.0944;-0.8425;
556.2000;0.0944;-0.8493;
556.5000;0.0904;-0.8561;
556.8000;0.0985;-0.8335;
557.1000;0.0912;-0.8425;
557.4000;0.0920;-0.8312;
557.7000;0.0969;-0.8176;
558.0000;0.0879;-0.8358;
558.3000;0.0936;-0.8199;
558.6000;0.0887;-0.8312;
558.9000;0.0928;-0.8290;
559.2000;0.0912;-0.8380;
559.5000;0.0806;-0.8629;
559.8000;0.0904;-0.8471;
560.1000;0.0993;-0.8267;
560.4000;0.0912;-0.8380;
560.7000;0.0912;-0.8425;
561.0000;0.0904;-0.8493;
561.3000;0.0936;-0.8448;
561.6000;0.1001;-0.8244;
561.9000;0.0895;-0.8516;
562.2000;0.0895;-0.8584;
562.5000;0.0936;-0.8448;
562.8000;0.0895;-0.8607;
563.1000;0.0904;-0.8584;
563.4000;0.0912;-0.8652;
563.7000;0.0977;-0.8448;
564.0000;0.0904;-0.8607;
564.3000;0.0912;-0.8561;
564.6000;0.0879;-0.8652;
564.9000;0.0895;-0.8539;
565.2000;0.0895;-0.8584;
565.5000;0.0838;-0.8810;
565.8000;0.0928;-0.8539;
566.1000;0.0904;-0.8607;
566.4000;0.0977;-0.8380;
566.7000;0.0912;-0.8516;
567.0000;0.0920;-0.8516;
567.3000;0.0863;-0.8720;
567.6000;0.0985;-0.8425;
567.9000;0.0920;-0.8539;
568.2000;0.0871;-0.8743;
568.5000;0.0798;-0.8878;
568.8000;0.0887;-0.8607;
569.1000;0.0887;-0.8561;
569.4000;0.0936;-0.8493;
569.7000;0.0904;-0.8561;
570.0000;0.0895;-0.8675;
570.3000;0.0985;-0.8403;
570.6000;0.0977;-0.8312;
570.9000;0.0928;-0.8493;
571.2000;0.0928;-0.8471;
571.5000;0.0904;-0.8539;
571.8000;0.0912;-0.8493;
572.1000;0.0944;-0.8471;
572.4000;0.0904;-0.8652;
572.7000;0.0904;-0.8584;
573.0000;0.0928;-0.8516;
573.3000;0.0887;-0.8675;
573.6000;0.0887;-0.8629;
573.9000;0.0904;-0.8584;
574.2000;0.0920;-0.8471;
574.5000;0.0920;-0.8471;
574.8000;0.0920;-0.8380;
575.1000;0.0993;-0.8154;
575.4000;0.0912;-0.8448;
575.7000;0.0912;-0.8539;
576.0000;0.0855;-0.8697;
576.3000;0.0912;-0.8493;
576.6000;0.0895;-0.8584;
576.9000;0.0920;-0.8425;
577.2000;0.0904;-0.8358;
577.5000;0.0952;-0.8267;
577.8000;0.0912;-0.8425;
578.1000;0.0920;-0.8358;
578.4000;0.0895;-0.8448;
578.7000;0.0920;-0.8471;
579.0000;0.0920;-0.8561;
579.3000;0.0887;-0.8675;
579.6000;0.0879;-0.8607;
579.9000;0.0871;-0.8561;
580.2000;0.0928;-0.8358;
580.5000;0.0944;-0.8312;
580.8000;0.0904;-0.8425;
581.1000;0.0838;-0.8675;
581.4000;0.0944;-0.8403;
581.7000;0.0920;-0.8448;
582.0000;0.0887;-0.8516;
582.3000;0.0985;-0.8267;
582.6000;0.0920;-0.8335;
582.9000;0.0912;-0.8380;
583.2000;0.0855;-0.8516;
583.5000;0.0912;-0.8358;
583.8000;0.0904;-0.8403;
584.1000;0.0952;-0.8290;
584.4000;0.0871;-0.8448;
584.7000;0.0904;-0.8448;
585.0000;0.0895;-0.8403;
585.3000;0.0863;-0.8448;
585.6000;0.0912;-0.8358;
585.9000;0.0904;-0.8403;
586.2000;0.0904;-0.8403;
586.5000;0.0928;-0.8290;
586.8000;0.0887;-0.8425;
587.1000;0.0887;-0.8425;
587.4000;0.0904;-0.8403;
587.7000;0.0928;-0.8358;
588.0000;0.0879;-0.8539;
588.3000;0.0895;-0.8448;
588.6000;0.0887;-0.8448;
588.9000;0.0887;-0.8448;
589.2000;0.0879;-0.8516;
589.5000;0.0879;-0.8561;
589.8000;0.0895;-0.8448;
590.1000;0.0904;-0.8471;
590.4000;0.0895;-0.8425;
590.7000;0.0838;-0.8539;
591.0000;0.0920;-0.8448;
591.3000;0.0920;-0.8448;
591.6000;0.0912;-0.8448;
591.9000;0.0920;-0.8425;
592.2000;0.0904;-0.8516;
592.5000;0.0977;-0.8312;
592.8000;0.0912;-0.8471;
593.1000;0.0936;-0.8425;
593.4000;0.0895;-0.8493;
593.7000;0.0920;-0.8403;
594.0000;0.0920;-0.8448;
594.3000;0.0912;-0.8471;
594.6000;0.0920;-0.8471;
594.9000;0.0912;-0.8471;
595.2000;0.0895;-0.8516;
595.5000;0.0912;-0.8471;
595.8000;0.0912;-0.8425;
596.1000;0.0895;-0.8425;
596.4000;0.0871;-0.8493;
596.7000;0.0895;-0.8425;
597.0000;0.0904;-0.8403;
597.3000;0.0895;-0.8358;
597.6000;0.0879;-0.8425;
597.9000;0.0920;-0.8312;
598.2000;0.0863;-0.8539;
598.5000;0.0985;-0.8244;
598.8000;0.0904;-0.8403;
599.1000;0.0871;-0.8561;
599.4000;0.0920;-0.8471;
599.7000;0.0904;-0.8471;
600.0000;0.0920;-0.8493;
600.3000;0.0920;-0.8403;
600.6000;0.0895;-0.8403;
600.9000;0.0904;-0.8425;
601.2000;0.0904;-0.8539;
601.5000;0.0830;-0.8833;
601.8000;0.0887;-0.8810;
602.1000;0.0879;-0.8924;
602.4000;0.0847;-0.9082;
602.7000;0.0871;-0.9128;
603.0000;0.0855;-0.9263;
603.3000;0.0887;-0.9241;
603.6000;0.0879;-0.9331;
603.9000;0.0871;-0.9467;
604.2000;0.0863;-0.9467;
604.5000;0.0822;-0.9603;
604.8000;0.1001;-0.9105;
605.1000;0.0855;-0.9399;
605.4000;0.0830;-0.9467;
605.7000;0.0781;-0.9671;
606.0000;0.0855;-0.9581;
606.3000;0.0920;-0.9490;
606.6000;0.0863;-0.9671;
606.9000;0.0920;-0.9558;
607.2000;0.0887;-0.9716;
607.5000;0.0855;-0.9784;
607.8000;0.0790;-0.9898;
608.1000;0.0879;-0.9671;
608.4000;0.0936;-0.9558;
608.7000;0.0920;-0.9535;
609.0000;0.0855;-0.9739;
609.3000;0.0830;-0.9807;
609.6000;0.0936;-0.9626;
609.9000;0.0757;-1.0034;
610.2000;0.0847;-0.9762;
610.5000;0.0855;-0.9694;
610.8000;0.0830;-0.9762;
611.1000;0.0814;-0.9762;
611.4000;0.0822;-0.9671;
611.7000;0.0822;-0.9739;
612.0000;0.0798;-0.9671;
612.3000;0.0838;-0.9558;
612.6000;0.0798;-0.9716;
612.9000;0.0814;-0.9671;
613.2000;0.0855;-0.9535;
613.5000;0.0814;-0.9649;
613.8000;0.0806;-0.9694;
614.1000;0.0806;-0.9807;
614.4000;0.0814;-0.9943;
614.7000;0.0822;-0.9966;
615.0000;0.0830;-0.9898;
615.3000;0.0830;-0.9875;
615.6000;0.0773;-0.9966;
615.9000;0.0855;-0.9784;
616.2000;0.0830;-0.9898;
616.5000;0.0863;-0.9784;
616.8000;0.0830;-0.9807;
617.1000;0.0773;-0.9943;
617.4000;0.0806;-0.9875;
617.7000;0.0806;-0.9762;
618.0000;0.0814;-0.9716;
618.3000;0.0806;-0.9875;
618.6000;0.0822;-0.9943;
618.9000;0.0944;-0.9626;
619.2000;0.0822;-0.9966;
619.5000;0.0814;-1.0011;
619.8000;0.0806;-1.0011;
620.1000;0.0822;-0.9875;
620.4000;0.0806;-0.9762;
620.7000;0.0773;-0.9807;
621.0000;0.0806;-0.9671;
621.3000;0.0830;-0.9558;
621.6000;0.0814;-0.9626;
621.9000;0.0749;-0.9807;
622.2000;0.0765;-0.9784;
622.5000;0.0741;-0.9875;
622.8000;0.0781;-0.9739;
623.1000;0.0806;-0.9807;
623.4000;0.0814;-0.9762;
623.7000;0.0700;-1.0056;
624.0000;0.0830;-0.9716;
624.3000;0.0790;-0.9830;
624.6000;0.0871;-0.9626;
624.9000;0.0790;-0.9875;
625.2000;0.0765;-0.9920;
625.5000;0.0790;-0.9875;
625.8000;0.0798;-0.9875;
626.1000;0.0790;-0.9943;
626.4000;0.0822;-0.9920;
626.7000;0.0798;-1.0011;
627.0000;0.0757;-1.0169;
627.3000;0.0814;-0.9988;
627.6000;0.0733;-1.0169;
627.9000;0.0952;-0.9739;
628.2000;0.0814;-0.9988;
628.5000;0.0798;-1.0011;
628.8000;0.0814;-0.9988;
629.1000;0.0798;-1.0056;
629.4000;0.0741;-1.0079;
629.7000;0.0790;-0.9988;
630.0000;0.0814;-0.9966;
630.3000;0.0814;-1.0011;
630.6000;0.0757;-1.0192;
630.9000;0.0781;-1.0079;
631.2000;0.0814;-0.9898;
631.5000;0.0733;-1.0079;
631.8000;0.0798;-0.9852;
632.1000;0.0773;-0.9898;
632.4000;0.0798;-0.9830;
632.7000;0.0814;-0.9739;
633.0000;0.0781;-0.9784;
633.3000;0.0773;-0.9807;
633.6000;0.0887;-0.9581;
633.9000;0.0781;-0.9988;
634.2000;0.0798;-0.9943;
634.5000;0.0822;-0.9898;
634.8000;0.0798;-0.9898;
635.1000;0.0757;-1.0034;
635.4000;0.0798;-0.9966;
635.7000;0.0790;-0.9966;
636.0000;0.0765;-0.9988;
636.3000;0.0798;-0.9943;
636.6000;0.0790;-0.9943;
636.9000;0.0790;-1.0056;
637.2000;0.0781;-0.9966;
637.5000;0.0773;-0.9966;
637.8000;0.0765;-0.9920;
638.1000;0.0798;-0.9830;
638.4000;0.0781;-0.9830;
638.7000;0.0757;-0.9943;
639.0000;0.0806;-0.9943;
639.3000;0.0798;-1.0011;
639.6000;0.0781;-1.0034;
639.9000;0.0822;-0.9898;
640.2000;0.0749;-0.9943;
640.5000;0.0757;-0.9898;
640.8000;0.0790;-0.9898;
641.1000;0.0798;-0.9898;
641.4000;0.0806;-0.9807;
641.7000;0.0765;-0.9920;
642.0000;0.0879;-0.9671;
642.3000;0.0765;-0.9943;
642.6000;0.0773;-0.9898;
642.9000;0.0798;-0.9875;
643.2000;0.0798;-0.9875;
643.5000;0.0790;-0.9830;
643.8000;0.0790;-0.9898;
644.1000;0.0928;-0.9535;
644.4000;0.0773;-0.9898;
644.7000;0.0757;-0.9920;
645.0000;0.0741;-1.0011;
645.3000;0.0790;-0.9966;
645.6000;0.0724;-1.0169;
645.9000;0.0733;-1.0101;
646.2000;0.0773;-0.9920;
646.5000;0.0798;-0.9807;
646.8000;0.0814;-0.9784;
647.1000;0.0708;-1.0101;
647.4000;0.0781;-0.9875;
647.7000;0.0952;-0.9331;
648.0000;0.0806;-0.9716;
648.3000;0.0765;-0.9830;
648.6000;0.0790;-0.9807;
648.9000;0.0773;-0.9784;
649.2000;0.0806;-0.9694;
649.5000;0.0757;-0.9898;
649.8000;0.0757;-0.9966;
650.1000;0.0765;-1.0011;
650.4000;0.0781;-0.9943;
650.7000;0.0708;-1.0124;
651.0000;0.0798;-0.9875;
651.3000;0.0781;-0.9807;
651.6000;0.0708;-0.9920;
651.9000;0.0790;-0.9694;
652.2000;0.0773;-0.9762;
652.5000;0.0773;-0.9852;
652.8000;0.0798;-0.9830;
653.1000;0.0773;-0.9875;
653.4000;0.0781;-0.9875;
653.7000;0.0765;-0.9988;
654.0000;0.0798;-0.9943;
654.3000;0.0798;-0.9807;
654.6000;0.0790;-0.9875;
654.9000;0.0773;-0.9943;
655.2000;0.0757;-0.9966;
655.5000;0.0773;-0.9898;
655.8000;0.0684;-1.0079;
656.1000;0.0765;-1.0011;
656.4000;0.0773;-0.9988;
656.7000;0.0773;-1.0011;
657.0000;0.0765;-0.9988;
657.3000;0.0863;-0.9784;
657.6000;0.0790;-1.0056;
657.9000;0.0781;-1.0124;
658.2000;0.0781;-1.0034;
658.5000;0.0798;-0.9898;
658.8000;0.0781;-0.9898;
659.1000;0.0773;-0.9875;
659.4000;0.0773;-0.9875;
659.7000;0.0781;-0.9830;
660.0000;0.0757;-0.9898;
660.3000;0.0765;-0.9807;
660.6000;0.0855;-0.9603;
660.9000;0.0773;-0.9852;
661.2000;0.0781;-0.9807;
661.5000;0.0765;-0.9807;
661.8000;0.0757;-0.9762;
662.1000;0.0773;-0.9784;
662.4000;0.0757;-0.9807;
662.7000;0.0798;-0.9762;
663.0000;0.0757;-0.9784;
663.3000;0.0749;-0.9830;
663.6000;0.0765;-0.9852;
663.9000;0.0773;-0.9852;
664.2000;0.0757;-0.9875;
664.5000;0.0765;-0.9807;
664.8000;0.0765;-0.9852;
665.1000;0.0781;-0.9807;
665.4000;0.0838;-0.9626;
665.7000;0.0773;-0.9807;
666.0000;0.0692;-1.0056;
666.3000;0.0798;-0.9762;
666.6000;0.0830;-0.9649;
666.9000;0.0773;-0.9762;
667.2000;0.0749;-0.9943;
667.5000;0.0757;-0.9966;
667.8000;0.0765;-0.9920;
668.1000;0.0757;-0.9920;
668.4000;0.0741;-0.9988;
668.7000;0.0765;-0.9920;
669.0000;0.0798;-0.9988;
669.3000;0.0765;-1.0011;
669.6000;0.0757;-1.0011;
669.9000;0.0749;-1.0011;
670.2000;0.0765;-1.0034;
670.5000;0.0716;-1.0147;
670.8000;0.0765;-1.0079;
671.1000;0.0749;-1.0056;
671.4000;0.0838;-0.9852;
671.7000;0.0781;-0.9943;
672.0000;0.0781;-0.9943;
672.3000;0.0773;-0.9943;
672.6000;0.0814;-0.9852;
672.9000;0.0790;-0.9852;
673.2000;0.0847;-0.9739;
673.5000;0.0765;-0.9898;
673.8000;0.0765;-0.9943;
674.1000;0.0749;-1.0079;
674.4000;0.0757;-1.0124;
674.7000;0.0781;-1.0056;
675.0000;0.0724;-1.0124;
675.3000;0.0749;-1.0034;
675.6000;0.0749;-1.0079;
675.9000;0.0781;-0.9988;
676.2000;0.0757;-0.9966;
676.5000;0.0798;-0.9920;
676.8000;0.0838;-0.9784;
677.1000;0.0741;-1.0011;
677.4000;0.0757;-0.9875;
677.7000;0.0773;-0.9830;
678.0000;0.0749;-0.9875;
678.3000;0.0749;-0.9943;
678.6000;0.0773;-0.9852;
678.9000;0.0757;-0.9852;
679.2000;0.0757;-0.9920;
679.5000;0.0798;-0.9807;
679.8000;0.0773;-0.9830;
680.1000;0.0749;-0.9898;
680.4000;0.0781;-0.9875;
680.7000;0.0749;-0.9943;
681.0000;0.0765;-0.9898;
681.3000;0.0733;-0.9988;
681.6000;0.0700;-1.0056;
681.9000;0.0773;-0.9875;
682.2000;0.0773;-0.9875;
682.5000;0.0765;-0.9830;
682.8000;0.0790;-0.9716;
683.1000;0.0781;-0.9739;
683.4000;0.0716;-0.9852;
683.7000;0.0773;-0.9694;
684.0000;0.0773;-0.9649;
684.3000;0.0741;-0.9694;
684.6000;0.0798;-0.9558;
684.9000;0.0781;-0.9694;
685.2000;0.0765;-0.9716;
685.5000;0.0724;-0.9784;
685.8000;0.0749;-0.9830;
686.1000;0.0741;-0.9830;
686.4000;0.0749;-0.9875;
686.7000;0.0749;-0.9898;
687.0000;0.0765;-0.9920;
687.3000;0.0790;-0.9898;
687.6000;0.0765;-0.9988;
687.9000;0.0667;-1.0283;
688.2000;0.0790;-0.9943;
688.5000;0.0781;-1.0034;
688.8000;0.0733;-1.0192;
689.1000;0.0765;-1.0079;
689.4000;0.0765;-1.0192;
689.7000;0.0781;-1.0124;
690.0000;0.0773;-1.0101;
690.3000;0.0724;-1.0215;
690.6000;0.0749;-1.0169;
690.9000;0.0814;-1.0079;
691.2000;0.0733;-1.0169;
691.5000;0.0733;-1.0124;
691.8000;0.0765;-1.0034;
692.1000;0.0773;-0.9966;
692.4000;0.0765;-1.0011;
692.7000;0.0765;-1.0056;
693.0000;0.0749;-1.0034;
693.3000;0.0757;-0.9920;
693.6000;0.0724;-0.9966;
693.9000;0.0733;-0.9830;
694.2000;0.0757;-0.9852;
694.5000;0.0798;-0.9875;
694.8000;0.0790;-0.9920;
695.1000;0.0724;-1.0101;
695.4000;0.0773;-1.0011;
695.7000;0.0773;-0.9943;
696.0000;0.0684;-1.0215;
696.3000;0.0765;-0.9966;
696.6000;0.0773;-0.9807;
696.9000;0.0749;-0.9943;
697.2000;0.0716;-1.0034;
697.5000;0.0757;-0.9875;
697.8000;0.0773;-0.9875;
698.1000;0.0773;-0.9898;
698.4000;0.0765;-0.9943;
698.7000;0.0773;-0.9966;
699.0000;0.0692;-1.0192;
699.3000;0.0847;-0.9762;
699.6000;0.0741;-0.9988;
699.9000;0.0765;-0.9966;
700.2000;0.0708;-0.9988;
700.5000;0.0773;-0.9852;
700.8000;0.0708;-1.0034;
701.1000;0.0765;-0.9852;
701.4000;0.0790;-0.9762;
701.7000;0.0757;-0.9875;
702.0000;0.0757;-0.9875;
702.3000;0.0741;-0.9898;
702.6000;0.0773;-0.9875;
702.9000;0.0651;-1.0169;
703.2000;0.0765;-0.9943;
703.5000;0.0749;-0.9966;
703.8000;0.0757;-0.9898;
704.1000;0.0765;-0.9943;
704.4000;0.0733;-1.0079;
704.7000;0.0741;-1.0124;
705.0000;0.0765;-1.0034;
705.3000;0.0790;-0.9966;
705.6000;0.0749;-1.0056;
705.9000;0.0781;-0.9966;
706.2000;0.0773;-0.9966;
706.5000;0.0757;-0.9988;
706.8000;0.0814;-0.9784;
707.1000;0.0749;-0.9943;
707.4000;0.0635;-1.0215;
707.7000;0.0798;-0.9875;
708.0000;0.0749;-0.9966;
708.3000;0.0749;-0.9966;
708.6000;0.0757;-1.0011;
708.9000;0.0716;-0.9988;
709.2000;0.0765;-0.9852;
709.5000;0.0757;-0.9875;
709.8000;0.0741;-0.9898;
710.1000;0.0741;-0.9966;
710.4000;0.0757;-0.9966;
710.7000;0.0757;-1.0011;
711.0000;0.0741;-1.0056;
711.3000;0.0765;-1.0011;
711.6000;0.0749;-0.9988;
711.9000;0.0855;-0.9716;
712.2000;0.0765;-0.9966;
712.5000;0.0749;-0.9966;
712.8000;0.0773;-0.9943;
713.1000;0.0708;-1.0101;
713.4000;0.0814;-0.9920;
713.7000;0.0757;-1.0124;
714.0000;0.0741;-1.0237;
714.3000;0.0741;-1.0192;
714.6000;0.0716;-1.0124;
714.9000;0.0757;-0.9920;
715.2000;0.0692;-0.9988;
715.5000;0.0757;-0.9875;
715.8000;0.0733;-0.9966;
716.1000;0.0700;-0.9943;
716.4000;0.0847;-0.9626;
716.7000;0.0643;-1.0124;
717.0000;0.0822;-0.9694;
717.3000;0.0741;-0.9988;
717.6000;0.0749;-0.9988;
717.9000;0.0757;-1.0034;
718.2000;0.0773;-0.9988;
718.5000;0.0733;-1.0124;
718.8000;0.0757;-0.9988;
719.1000;0.0724;-1.0101;
719.4000;0.0781;-0.9966;
719.7000;0.0741;-1.0079;
720.0000;0.0724;-1.0034;
720.3000;0.0684;-1.0147;
720.6000;0.0765;-0.9966;
720.9000;0.0838;-0.9807;
721.2000;0.0822;-0.9784;
721.5000;0.0733;-1.0056;
721.8000;0.0757;-1.0011;
722.1000;0.0741;-1.0079;
722.4000;0.0692;-1.0215;
722.7000;0.0749;-1.0101;
723.0000;0.0757;-1.0056;
723.3000;0.0749;-1.0101;
723.6000;0.0773;-1.0079;
723.9000;0.0749;-1.0169;
724.2000;0.0733;-1.0305;
724.5000;0.0716;-1.0373;
724.8000;0.0798;-1.0169;
725.1000;0.0773;-1.0283;
725.4000;0.0749;-1.0328;
725.7000;0.0798;-1.0147;
726.0000;0.0733;-1.0192;
726.3000;0.0659;-1.0441;
726.6000;0.0765;-1.0192;
726.9000;0.0757;-1.0192;
727.2000;0.0757;-1.0192;
727.5000;0.0765;-1.0124;
727.8000;0.0757;-1.0124;
728.1000;0.0741;-1.0124;
728.4000;0.0724;-1.0215;
728.7000;0.0749;-1.0192;
729.0000;0.0765;-1.0215;
729.3000;0.0814;-1.0147;
729.6000;0.0733;-1.0215;
729.9000;0.0757;-1.0101;
730.2000;0.0749;-1.0101;
730.5000;0.0700;-1.0124;
730.8000;0.0708;-1.0034;
731.1000;0.0757;-0.9966;
731.4000;0.0716;-1.0079;
731.7000;0.0757;-1.0011;
732.0000;0.0749;-1.0034;
732.3000;0.0773;-0.9966;
732.6000;0.0733;-1.0079;
732.9000;0.0684;-1.0260;
733.2000;0.0757;-1.0034;
733.5000;0.0716;-1.0147;
733.8000;0.0708;-1.0079;
734.1000;0.0757;-0.9966;
734.4000;0.0757;-0.9920;
734.7000;0.0757;-0.9875;
735.0000;0.0806;-0.9739;
735.3000;0.0757;-0.9875;
735.6000;0.0749;-1.0011;
735.9000;0.0676;-1.0147;
736.2000;0.0749;-1.0011;
736.5000;0.0724;-1.0101;
736.8000;0.0700;-1.0124;
737.1000;0.0741;-1.0034;
737.4000;0.0749;-0.9988;
737.7000;0.0757;-1.0011;
738.0000;0.0749;-0.9988;
738.3000;0.0684;-1.0101;
738.6000;0.0708;-1.0034;
738.9000;0.0757;-0.9943;
739.2000;0.0798;-0.9807;
739.5000;0.0798;-0.9739;
739.8000;0.0773;-0.9830;
740.1000;0.0790;-0.9807;
740.4000;0.0757;-0.9784;
740.7000;0.0700;-0.9830;
741.0000;0.0643;-0.9966;
741.3000;0.0765;-0.9716;
741.6000;0.0733;-0.9898;
741.9000;0.0741;-1.0011;
742.2000;0.0716;-1.0011;
742.5000;0.0765;-0.9943;
742.8000;0.0749;-1.0011;
743.1000;0.0749;-1.0124;
743.4000;0.0749;-1.0079;
743.7000;0.0765;-1.0056;
744.0000;0.0733;-1.0056;
744.3000;0.0806;-0.9875;
744.6000;0.0724;-1.0011;
744.9000;0.0716;-1.0034;
745.2000;0.0757;-0.9920;
745.5000;0.0749;-0.9898;
745.8000;0.0716;-0.9830;
746.1000;0.0733;-0.9943;
746.4000;0.0765;-0.9943;
746.7000;0.0757;-0.9966;
747.0000;0.0765;-0.9943;
747.3000;0.0757;-1.0079;
747.6000;0.0733;-1.0124;
747.9000;0.0765;-1.0079;
748.2000;0.0790;-1.0011;
748.5000;0.0692;-1.0283;
748.8000;0.0757;-1.0056;
749.1000;0.0830;-0.9966;
749.4000;0.0749;-1.0192;
749.7000;0.0765;-1.0101;
750.0000;0.0724;-1.0215;
750.3000;0.0733;-1.0124;
750.6000;0.0733;-1.0169;
750.9000;0.0765;-1.0101;
751.2000;0.0757;-0.9988;
751.5000;0.0741;-1.0034;
751.8000;0.0781;-0.9875;
752.1000;0.0749;-0.9988;
752.4000;0.0708;-1.0147;
752.7000;0.0733;-1.0101;
753.0000;0.0733;-1.0056;
753.3000;0.0773;-0.9966;
753.6000;0.0741;-1.0056;
753.9000;0.0765;-1.0034;
754.2000;0.0757;-1.0079;
754.5000;0.0765;-1.0124;
754.8000;0.0863;-0.9830;
755.1000;0.0741;-1.0169;
755.4000;0.0733;-1.0169;
755.7000;0.0757;-1.0079;
756.0000;0.0781;-0.9943;
756.3000;0.0749;-0.9943;
756.6000;0.0757;-0.9898;
756.9000;0.0757;-0.9966;
757.2000;0.0806;-0.9807;
757.5000;0.0733;-1.0034;
757.8000;0.0749;-1.0034;
758.1000;0.0757;-0.9966;
758.4000;0.0733;-0.9988;
758.7000;0.0749;-0.9920;
759.0000;0.0773;-0.9762;
759.3000;0.0733;-0.9943;
759.6000;0.0741;-0.9920;
759.9000;0.0757;-0.9898;
760.2000;0.0757;-0.9898;
760.5000;0.0724;-1.0034;
760.8000;0.0741;-0.9898;
761.1000;0.0773;-0.9830;
761.4000;0.0733;-1.0079;
761.7000;0.0692;-1.0215;
762.0000;0.0814;-0.9898;
762.3000;0.0749;-1.0034;
762.6000;0.0757;-0.9988;
762.9000;0.0757;-0.9943;
763.2000;0.0724;-0.9966;
763.5000;0.0741;-0.9807;
763.8000;0.0749;-0.9852;
764.1000;0.0733;-0.9920;
764.4000;0.0757;-0.9852;
764.7000;0.0757;-0.9966;
765.0000;0.0749;-1.0079;
765.3000;0.0781;-0.9966;
765.6000;0.0749;-1.0011;
765.9000;0.0757;-0.9920;
766.2000;0.0781;-0.9830;
766.5000;0.0757;-0.9830;
766.8000;0.0741;-0.9739;
767.1000;0.0773;-0.9649;
767.4000;0.0790;-0.9626;
767.7000;0.0741;-0.9739;
768.0000;0.0741;-0.9762;
768.3000;0.0814;-0.9694;
768.6000;0.0757;-0.9762;
768.9000;0.0700;-0.9943;
769.2000;0.0847;-0.9603;
769.5000;0.0741;-0.9920;
769.8000;0.0798;-0.9716;
770.1000;0.0659;-1.0101;
770.4000;0.0765;-0.9762;
770.7000;0.0724;-0.9807;
771.0000;0.0659;-0.9966;
771.3000;0.0741;-0.9762;
771.6000;0.0716;-0.9898;
771.9000;0.0741;-0.9943;
772.2000;0.0847;-0.9626;
772.5000;0.0651;-1.0011;
772.8000;0.0749;-0.9852;
773.1000;0.0887;-0.9535;
773.4000;0.0741;-0.9966;
773.7000;0.0741;-0.9988;
774.0000;0.0741;-0.9920;
774.3000;0.0741;-0.9852;
774.6000;0.0773;-0.9716;
774.9000;0.0749;-0.9784;
775.2000;0.0724;-0.9875;
775.5000;0.0724;-0.9898;
775.8000;0.0708;-0.9988;
776.1000;0.0716;-1.0034;
776.4000;0.0830;-0.9830;
776.7000;0.0757;-0.9988;
777.0000;0.0773;-0.9875;
777.3000;0.0781;-0.9852;
777.6000;0.0757;-0.9807;
777.9000;0.0781;-0.9694;
778.2000;0.0757;-0.9784;
778.5000;0.0749;-0.9830;
778.8000;0.0741;-0.9898;
779.1000;0.0749;-0.9852;
779.4000;0.0716;-0.9920;
779.7000;0.0733;-0.9920;
780.0000;0.0741;-0.9807;
780.3000;0.0781;-0.9649;
780.6000;0.0757;-0.9762;
780.9000;0.0716;-0.9784;
781.2000;0.0749;-0.9626;
781.5000;0.0757;-0.9694;
781.8000;0.0741;-0.9807;
782.1000;0.0814;-0.9671;
782.4000;0.0773;-0.9830;
782.7000;0.0741;-0.9852;
783.0000;0.0757;-0.9739;
783.3000;0.0749;-0.9762;
783.6000;0.0757;-0.9784;
783.9000;0.0765;-0.9807;
784.2000;0.0781;-0.9694;
784.5000;0.0749;-0.9739;
784.8000;0.0773;-0.9762;
785.1000;0.0765;-0.9716;
785.4000;0.0733;-0.9716;
785.7000;0.0676;-0.9898;
786.0000;0.0806;-0.9558;
786.3000;0.0749;-0.9762;
786.6000;0.0765;-0.9716;
786.9000;0.0708;-0.9852;
787.2000;0.0741;-0.9739;
787.5000;0.0765;-0.9716;
787.8000;0.0741;-0.9875;
788.1000;0.0749;-0.9807;
788.4000;0.0781;-0.9626;
788.7000;0.0741;-0.9671;
789.0000;0.0749;-0.9694;
789.3000;0.0635;-0.9988;
789.6000;0.0741;-0.9784;
789.9000;0.0749;-0.9784;
790.2000;0.0749;-0.9830;
790.5000;0.0757;-0.9807;
790.8000;0.0757;-0.9784;
791.1000;0.0733;-0.9784;
791.4000;0.0741;-0.9694;
791.7000;0.0757;-0.9807;
792.0000;0.0741;-0.9943;
792.3000;0.0716;-0.9988;
792.6000;0.0749;-0.9807;
792.9000;0.0741;-0.9807;
793.2000;0.0765;-0.9626;
793.5000;0.0733;-0.9603;
793.8000;0.0790;-0.9558;
794.1000;0.0822;-0.9513;
794.4000;0.0741;-0.9694;
794.7000;0.0798;-0.9535;
795.0000;0.0741;-0.9649;
795.3000;0.0684;-0.9716;
795.6000;0.0733;-0.9603;
795.9000;0.0749;-0.9535;
796.2000;0.0741;-0.9535;
796.5000;0.0757;-0.9490;
796.8000;0.0773;-0.9422;
797.1000;0.0798;-0.9445;
797.4000;0.0773;-0.9603;
797.7000;0.0765;-0.9671;
798.0000;0.0749;-0.9694;
798.3000;0.0733;-0.9649;
798.6000;0.0757;-0.9649;
798.9000;0.0757;-0.9716;
799.2000;0.0741;-0.9784;
799.5000;0.0741;-0.9784;
799.8000;0.0684;-0.9898;
800.1000;0.0749;-0.9807;
800.4000;0.0733;-0.9807;
800.7000;0.0733;-0.9784;
801.0000;0.0749;-0.9784;
801.3000;0.0765;-0.9739;
801.6000;0.0733;-0.9739;
801.9000;0.0741;-0.9716;
802.2000;0.0716;-0.9784;
802.5000;0.0749;-0.9694;
802.8000;0.0773;-0.9626;
803.1000;0.0773;-0.9581;
803.4000;0.0749;-0.9581;
803.7000;0.0741;-0.9626;
804.0000;0.0757;-0.9626;
804.3000;0.0749;-0.9649;
804.6000;0.0741;-0.9649;
804.9000;0.0676;-0.9875;
805.2000;0.0757;-0.9739;
805.5000;0.0798;-0.9626;
805.8000;0.0798;-0.9694;
806.1000;0.0741;-0.9852;
806.4000;0.0749;-0.9784;
806.7000;0.0749;-0.9762;
807.0000;0.0838;-0.9558;
807.3000;0.0830;-0.9603;
807.6000;0.0716;-0.9852;
807.9000;0.0757;-0.9716;
808.2000;0.0708;-0.9807;
808.5000;0.0749;-0.9694;
808.8000;0.0765;-0.9694;
809.1000;0.0773;-0.9649;
809.4000;0.0733;-0.9784;
809.7000;0.0741;-0.9875;
810.0000;0.0790;-0.9739;
810.3000;0.0733;-0.9852;
810.6000;0.0676;-1.0011;
810.9000;0.0757;-0.9739;
811.2000;0.0790;-0.9694;
811.5000;0.0765;-0.9875;
811.8000;0.0757;-0.9875;
812.1000;0.0733;-0.9943;
812.4000;0.0749;-0.9966;
812.7000;0.0749;-0.9966;
813.0000;0.0863;-0.9671;
813.3000;0.0684;-0.9966;
813.6000;0.0765;-0.9807;
813.9000;0.0773;-0.9830;
814.2000;0.0733;-0.9898;
814.5000;0.0765;-0.9807;
814.8000;0.0757;-0.9875;
815.1000;0.0724;-0.9988;
815.4000;0.0724;-0.9988;
815.7000;0.0741;-0.9966;
816.0000;0.0749;-0.9943;
816.3000;0.0749;-0.9988;
816.6000;0.0765;-1.0011;
816.9000;0.0749;-1.0079;
817.2000;0.0781;-0.9988;
817.5000;0.0724;-0.9988;
817.8000;0.0757;-0.9898;
818.1000;0.0773;-0.9830;
818.4000;0.0773;-0.9830;
818.7000;0.0733;-0.9784;
819.0000;0.0741;-0.9694;
819.3000;0.0749;-0.9603;
819.6000;0.0765;-0.9626;
819.9000;0.0806;-0.9513;
820.2000;0.0749;-0.9513;
820.5000;0.0741;-0.9649;
820.8000;0.0765;-0.9739;
821.1000;0.0724;-0.9875;
821.4000;0.0741;-0.9807;
821.7000;0.0676;-1.0011;
822.0000;0.0765;-0.9739;
822.3000;0.0733;-0.9784;
822.6000;0.0724;-0.9784;
822.9000;0.0757;-0.9671;
823.2000;0.0757;-0.9626;
823.5000;0.0733;-0.9671;
823.8000;0.0733;-0.9694;
824.1000;0.0757;-0.9603;
824.4000;0.0627;-0.9852;
824.7000;0.0757;-0.9558;
825.0000;0.0708;-0.9694;
825.3000;0.0757;-0.9603;
825.6000;0.0749;-0.9626;
825.9000;0.0757;-0.9716;
826.2000;0.0741;-0.9784;
826.5000;0.0741;-0.9762;
826.8000;0.0757;-0.9694;
827.1000;0.0773;-0.9716;
827.4000;0.0757;-0.9784;
827.7000;0.0757;-0.9784;
828.0000;0.0708;-0.9943;
828.3000;0.0765;-0.9784;
828.6000;0.0765;-0.9830;
828.9000;0.0741;-0.9762;
829.2000;0.0765;-0.9649;
829.5000;0.0749;-0.9762;
829.8000;0.0741;-0.9762;
830.1000;0.0692;-0.9875;
830.4000;0.0773;-0.9603;
830.7000;0.0765;-0.9513;
831.0000;0.0716;-0.9671;
831.3000;0.0733;-0.9694;
831.6000;0.0806;-0.9535;
831.9000;0.0781;-0.9649;
832.2000;0.0757;-0.9830;
832.5000;0.0700;-0.9920;
832.8000;0.0733;-0.9830;
833.1000;0.0749;-0.9807;
833.4000;0.0749;-0.9762;
833.7000;0.0781;-0.9694;
834.0000;0.0611;-1.0011;
834.3000;0.0733;-0.9739;
834.6000;0.0757;-0.9739;
834.9000;0.0765;-0.9716;
835.2000;0.0741;-0.9784;
835.5000;0.0773;-0.9694;
835.8000;0.0765;-0.9694;
836.1000;0.0765;-0.9649;
836.4000;0.0741;-0.9716;
836.7000;0.0724;-0.9852;
837.0000;0.0708;-0.9898;
837.3000;0.0757;-0.9739;
837.6000;0.0724;-0.9852;
837.9000;0.0733;-0.9875;
838.2000;0.0757;-0.9852;
838.5000;0.0773;-0.9694;
838.8000;0.0724;-0.9807;
839.1000;0.0733;-0.9807;
839.4000;0.0708;-0.9943;
839.7000;0.0733;-0.9807;
840.0000;0.0749;-0.9784;
840.3000;0.0724;-0.9852;
840.6000;0.0733;-0.9852;
840.9000;0.0749;-0.9830;
841.2000;0.0741;-0.9966;
841.5000;0.0871;-0.9603;
841.8000;0.0749;-0.9988;
842.1000;0.0765;-0.9852;
842.4000;0.0773;-0.9830;
842.7000;0.0692;-1.0079;
843.0000;0.0708;-1.0034;
843.3000;0.0765;-0.9898;
843.6000;0.0741;-0.9988;
843.9000;0.0757;-1.0034;
844.2000;0.0733;-1.0101;
844.5000;0.0733;-1.0079;
844.8000;0.0724;-1.0011;
845.1000;0.0733;-0.9988;
845.4000;0.0773;-0.9875;
845.7000;0.0733;-0.9966;
846.0000;0.0733;-0.9920;
846.3000;0.0741;-0.9920;
846.6000;0.0757;-0.9875;
846.9000;0.0733;-0.9920;
847.2000;0.0741;-0.9920;
847.5000;0.0749;-0.9943;
847.8000;0.0733;-0.9966;
848.1000;0.0757;-0.9898;
848.4000;0.0700;-1.0056;
848.7000;0.0733;-0.9898;
849.0000;0.0757;-0.9762;
849.3000;0.0708;-0.9784;
849.6000;0.0765;-0.9626;
849.9000;0.0724;-0.9603;
850.2000;0.0716;-0.9603;
850.5000;0.0724;-0.9603;
850.8000;0.0700;-0.9694;
851.1000;0.0741;-0.9626;
851.4000;0.0749;-0.9581;
851.7000;0.0733;-0.9558;
852.0000;0.0733;-0.9513;
852.3000;0.0757;-0.9535;
852.6000;0.0773;-0.9649;
852.9000;0.0741;-0.9762;
853.2000;0.0741;-0.9739;
853.5000;0.0757;-0.9649;
853.8000;0.0733;-0.9716;
854.1000;0.0838;-0.9535;
854.4000;0.0773;-0.9626;
854.7000;0.0749;-0.9716;
855.0000;0.0773;-0.9671;
855.3000;0.0757;-0.9694;
855.6000;0.0733;-0.9807;
855.9000;0.0741;-0.9716;
856.2000;0.0887;-0.9399;
856.5000;0.0773;-0.9762;
856.8000;0.0749;-0.9807;
857.1000;0.0749;-0.9852;
857.4000;0.0741;-0.9852;
857.7000;0.0757;-0.9807;
858.0000;0.0757;-0.9852;
858.3000;0.0716;-0.9898;
858.6000;0.0765;-0.9807;
858.9000;0.0741;-0.9784;
859.2000;0.0749;-0.9649;
859.5000;0.0692;-0.9762;
859.8000;0.0749;-0.9649;
860.1000;0.0765;-0.9649;
860.4000;0.0757;-0.9649;
860.7000;0.0757;-0.9784;
861.0000;0.0765;-0.9762;
861.3000;0.0757;-0.9694;
861.6000;0.0749;-0.9716;
861.9000;0.0724;-0.9807;
862.2000;0.0741;-0.9739;
862.5000;0.0692;-0.9943;
862.8000;0.0741;-0.9762;
863.1000;0.0741;-0.9852;
863.4000;0.0667;-0.9988;
863.7000;0.0806;-0.9558;
864.0000;0.0749;-0.9581;
864.3000;0.0659;-0.9920;
864.6000;0.0741;-0.9784;
864.9000;0.0741;-0.9784;
865.2000;0.0798;-0.9603;
865.5000;0.0847;-0.9490;
865.8000;0.0733;-0.9830;
866.1000;0.0757;-0.9649;
866.4000;0.0765;-0.9581;
866.7000;0.0611;-0.9988;
867.0000;0.0757;-0.9671;
867.3000;0.0757;-0.9649;
867.6000;0.0830;-0.9422;
867.9000;0.0757;-0.9649;
868.2000;0.0757;-0.9694;
868.5000;0.0773;-0.9671;
868.8000;0.0757;-0.9649;
869.1000;0.0822;-0.9445;
869.4000;0.0765;-0.9694;
869.7000;0.0733;-0.9716;
870.0000;0.0700;-0.9830;
870.3000;0.0749;-0.9739;
870.6000;0.0773;-0.9603;
870.9000;0.0741;-0.9626;
871.2000;0.0757;-0.9513;
871.5000;0.0749;-0.9626;
871.8000;0.0757;-0.9671;
872.1000;0.0741;-0.9694;
872.4000;0.0757;-0.9626;
872.7000;0.0757;-0.9694;
873.0000;0.0724;-0.9716;
873.3000;0.0749;-0.9649;
873.6000;0.0741;-0.9649;
873.9000;0.0724;-0.9716;
874.2000;0.0757;-0.9694;
874.5000;0.0757;-0.9694;
874.8000;0.0741;-0.9649;
875.1000;0.0733;-0.9649;
875.4000;0.0708;-0.9694;
875.7000;0.0741;-0.9513;
876.0000;0.0684;-0.9626;
876.3000;0.0765;-0.9422;
876.6000;0.0741;-0.9467;
876.9000;0.0749;-0.9377;
877.2000;0.0724;-0.9377;
877.5000;0.0700;-0.9399;
877.8000;0.0749;-0.9286;
878.1000;0.0806;-0.9241;
878.4000;0.0773;-0.9354;
878.7000;0.0741;-0.9422;
879.0000;0.0749;-0.9490;
879.3000;0.0700;-0.9762;
879.6000;0.0741;-0.9558;
879.9000;0.0692;-0.9626;
880.2000;0.0790;-0.9377;
880.5000;0.0765;-0.9513;
880.8000;0.0749;-0.9467;
881.1000;0.0676;-0.9671;
881.4000;0.0757;-0.9490;
881.7000;0.0733;-0.9467;
882.0000;0.0773;-0.9399;
882.3000;0.0749;-0.9445;
882.6000;0.0757;-0.9331;
882.9000;0.0749;-0.9354;
883.2000;0.0724;-0.9422;
883.5000;0.0765;-0.9422;
883.8000;0.0749;-0.9513;
884.1000;0.0733;-0.9490;
884.4000;0.0733;-0.9626;
884.7000;0.0741;-0.9694;
885.0000;0.0667;-0.9852;
885.3000;0.0757;-0.9626;
885.6000;0.0741;-0.9716;
885.9000;0.0757;-0.9739;
886.2000;0.0708;-0.9762;
886.5000;0.0749;-0.9581;
886.8000;0.0724;-0.9671;
887.1000;0.0781;-0.9513;
887.4000;0.0749;-0.9581;
887.7000;0.0635;-0.9898;
888.0000;0.0749;-0.9558;
888.3000;0.0651;-0.9784;
888.6000;0.0765;-0.9490;
888.9000;0.0749;-0.9535;
889.2000;0.0830;-0.9399;
889.5000;0.0749;-0.9626;
889.8000;0.0765;-0.9671;
890.1000;0.0798;-0.9626;
890.4000;0.0757;-0.9626;
890.7000;0.0749;-0.9649;
891.0000;0.0724;-0.9739;
891.3000;0.0741;-0.9739;
891.6000;0.0749;-0.9784;
891.9000;0.0741;-0.9830;
892.2000;0.0733;-0.9852;
892.5000;0.0741;-0.9784;
892.8000;0.0733;-0.9694;
893.1000;0.0741;-0.9671;
893.4000;0.0765;-0.9649;
893.7000;0.0749;-0.9694;
894.0000;0.0757;-0.9716;
894.3000;0.0716;-0.9762;
894.6000;0.0838;-0.9490;
894.9000;0.0741;-0.9694;
895.2000;0.0741;-0.9671;
895.5000;0.0749;-0.9603;
895.8000;0.0749;-0.9649;
896.1000;0.0757;-0.9671;
896.4000;0.0749;-0.9716;
896.7000;0.0741;-0.9694;
897.0000;0.0887;-0.9377;
897.3000;0.0724;-0.9830;
897.6000;0.0741;-0.9807;
897.9000;0.0724;-0.9830;
898.2000;0.0757;-0.9671;
898.5000;0.0716;-0.9694;
898.8000;0.0757;-0.9581;
899.1000;0.0749;-0.9671;
899.4000;0.0741;-0.9739;
899.7000;0.0741;-0.9784;
900.0000;0.0724;-0.9830;
900.3000;0.0716;-0.9807;
900.6000;0.0749;-0.9784;
900.9000;0.0692;-0.9898;
901.2000;0.0741;-0.9784;
901.5000;0.0741;-0.9762;
901.8000;0.0765;-0.9694;
902.1000;0.0749;-0.9649;
902.4000;0.0700;-0.9807;
902.7000;0.0733;-0.9671;
903.0000;0.0724;-0.9807;
903.3000;0.0733;-0.9830;
903.6000;0.0749;-0.9830;
903.9000;0.0749;-0.9852;
904.2000;0.0887;-0.9535;
904.5000;0.0741;-0.9966;
904.8000;0.0733;-0.9920;
905.1000;0.0822;-0.9581;
905.4000;0.0749;-0.9784;
905.7000;0.0741;-0.9762;
906.0000;0.0733;-0.9671;
906.3000;0.0765;-0.9649;
906.6000;0.0733;-0.9649;
906.9000;0.0733;-0.9626;
907.2000;0.0733;-0.9649;
907.5000;0.0781;-0.9490;
907.8000;0.0724;-0.9649;
908.1000;0.0724;-0.9694;
908.4000;0.0667;-0.9830;
908.7000;0.0749;-0.9716;
909.0000;0.0724;-0.9784;
909.3000;0.0765;-0.9716;
909.6000;0.0781;-0.9649;
909.9000;0.0741;-0.9671;
910.2000;0.0692;-0.9762;
910.5000;0.0733;-0.9739;
910.8000;0.0757;-0.9716;
911.1000;0.0781;-0.9558;
911.4000;0.0871;-0.9377;
911.7000;0.0741;-0.9694;
912.0000;0.0749;-0.9626;
912.3000;0.0692;-0.9807;
912.6000;0.0757;-0.9716;
912.9000;0.0765;-0.9694;
913.2000;0.0765;-0.9762;
913.5000;0.0741;-0.9694;
913.8000;0.0684;-0.9807;
914.1000;0.0741;-0.9626;
914.4000;0.0757;-0.9603;
914.7000;0.0773;-0.9490;
915.0000;0.0741;-0.9558;
915.3000;0.0741;-0.9581;
915.6000;0.0741;-0.9626;
915.9000;0.0847;-0.9331;
916.2000;0.0716;-0.9694;
916.5000;0.0741;-0.9716;
916.8000;0.0741;-0.9671;
917.1000;0.0765;-0.9603;
917.4000;0.0733;-0.9739;
917.7000;0.0741;-0.9716;
918.0000;0.0773;-0.9581;
918.3000;0.0749;-0.9716;
918.6000;0.0741;-0.9739;
918.9000;0.0790;-0.9535;
919.2000;0.0708;-0.9671;
919.5000;0.0830;-0.9331;
919.8000;0.0724;-0.9649;
920.1000;0.0741;-0.9581;
920.4000;0.0733;-0.9716;
920.7000;0.0733;-0.9784;
921.0000;0.0765;-0.9671;
921.3000;0.0741;-0.9694;
921.6000;0.0708;-0.9807;
921.9000;0.0659;-0.9898;
922.2000;0.0741;-0.9649;
922.5000;0.0757;-0.9558;
922.8000;0.0733;-0.9739;
923.1000;0.0749;-0.9762;
923.4000;0.0749;-0.9716;
923.7000;0.0773;-0.9807;
924.0000;0.0724;-0.9875;
924.3000;0.0790;-0.9762;
924.6000;0.0741;-0.9807;
924.9000;0.0741;-0.9830;
925.2000;0.0741;-0.9898;
925.5000;0.0724;-0.9875;
925.8000;0.0724;-0.9830;
926.1000;0.0765;-0.9716;
926.4000;0.0733;-0.9671;
926.7000;0.0724;-0.9671;
927.0000;0.0773;-0.9671;
927.3000;0.0733;-0.9649;
927.6000;0.0643;-0.9830;
927.9000;0.0749;-0.9467;
928.2000;0.0733;-0.9558;
928.5000;0.0692;-0.9807;
928.8000;0.0749;-0.9694;
929.1000;0.0724;-0.9716;
929.4000;0.0798;-0.9581;
929.7000;0.0757;-0.9762;
930.0000;0.0724;-0.9784;
930.3000;0.0781;-0.9581;
930.6000;0.0749;-0.9649;
930.9000;0.0757;-0.9603;
931.2000;0.0724;-0.9762;
931.5000;0.0798;-0.9649;
931.8000;0.0757;-0.9626;
932.1000;0.0765;-0.9649;
932.4000;0.0684;-0.9852;
932.7000;0.0741;-0.9649;
933.0000;0.0749;-0.9694;
933.3000;0.0733;-0.9762;
933.6000;0.0765;-0.9603;
933.9000;0.0733;-0.9671;
934.2000;0.0757;-0.9649;
934.5000;0.0757;-0.9807;
934.8000;0.0749;-0.9807;
935.1000;0.0749;-0.9830;
935.4000;0.0741;-0.9784;
935.7000;0.0765;-0.9649;
936.0000;0.0724;-0.9694;
936.3000;0.0765;-0.9581;
936.6000;0.0733;-0.9671;
936.9000;0.0741;-0.9626;
937.2000;0.0741;-0.9558;
937.5000;0.0749;-0.9649;
937.8000;0.0749;-0.9649;
938.1000;0.0733;-0.9603;
938.4000;0.0708;-0.9603;
938.7000;0.0724;-0.9603;
939.0000;0.0757;-0.9535;
939.3000;0.0790;-0.9467;
939.6000;0.0708;-0.9671;
939.9000;0.0749;-0.9694;
940.2000;0.0716;-0.9807;
940.5000;0.0741;-0.9716;
940.8000;0.0741;-0.9784;
941.1000;0.0741;-0.9807;
941.4000;0.0765;-0.9716;
941.7000;0.0733;-0.9784;
942.0000;0.0724;-0.9739;
942.3000;0.0757;-0.9649;
942.6000;0.0716;-0.9649;
942.9000;0.0741;-0.9694;
943.2000;0.0757;-0.9626;
943.5000;0.0733;-0.9671;
943.8000;0.0741;-0.9581;
944.1000;0.0724;-0.9649;
944.4000;0.0830;-0.9399;
944.7000;0.0724;-0.9762;
945.0000;0.0781;-0.9649;
945.3000;0.0757;-0.9762;
945.6000;0.0798;-0.9581;
945.9000;0.0773;-0.9671;
946.2000;0.0700;-0.9920;
946.5000;0.0741;-0.9875;
946.8000;0.0757;-0.9807;
947.1000;0.0708;-0.9784;
947.4000;0.0749;-0.9649;
947.7000;0.0749;-0.9649;
948.0000;0.0814;-0.9422;
948.3000;0.0749;-0.9603;
948.6000;0.0757;-0.9671;
948.9000;0.0716;-0.9784;
949.2000;0.0749;-0.9739;
949.5000;0.0733;-0.9762;
949.8000;0.0676;-0.9943;
950.1000;0.0684;-0.9852;
950.4000;0.0757;-0.9603;
950.7000;0.0733;-0.9649;
951.0000;0.0733;-0.9694;
951.3000;0.0749;-0.9626;
951.6000;0.0773;-0.9581;
951.9000;0.0708;-0.9694;
952.2000;0.0733;-0.9626;
952.5000;0.0773;-0.9626;
952.8000;0.0741;-0.9716;
953.1000;0.0733;-0.9762;
953.4000;0.0667;-0.9898;
953.7000;0.0749;-0.9739;
954.0000;0.0790;-0.9671;
954.3000;0.0765;-0.9762;
954.6000;0.0733;-0.9762;
954.9000;0.0716;-0.9784;
955.2000;0.0724;-0.9694;
955.5000;0.0724;-0.9830;
955.8000;0.0676;-0.9966;
956.1000;0.0757;-0.9694;
956.4000;0.0781;-0.9558;
956.7000;0.0749;-0.9603;
957.0000;0.0733;-0.9626;
957.3000;0.0716;-0.9671;
957.6000;0.0765;-0.9603;
957.9000;0.0757;-0.9626;
958.2000;0.0724;-0.9762;
958.5000;0.0733;-0.9739;
958.8000;0.0741;-0.9626;
959.1000;0.0757;-0.9490;
959.4000;0.0741;-0.9422;
959.7000;0.0741;-0.9445;
960.0000;0.0838;-0.9218;
960.3000;0.0684;-0.9671;
960.6000;0.0716;-0.9535;
960.9000;0.0733;-0.9535;
961.2000;0.0733;-0.9490;
961.5000;0.0667;-0.9694;
961.8000;0.0749;-0.9558;
962.1000;0.0757;-0.9535;
962.4000;0.0724;-0.9649;
962.7000;0.0741;-0.9694;
963.0000;0.0741;-0.9762;
963.3000;0.0741;-0.9784;
963.6000;0.0741;-0.9716;
963.9000;0.0700;-0.9852;
964.2000;0.0741;-0.9739;
964.5000;0.0749;-0.9716;
964.8000;0.0741;-0.9762;
965.1000;0.0765;-0.9581;
965.4000;0.0773;-0.9558;
965.7000;0.0757;-0.9694;
966.0000;0.0733;-0.9784;
966.3000;0.0733;-0.9784;
966.6000;0.0830;-0.9603;
966.9000;0.0708;-0.9875;
967.2000;0.0749;-0.9784;
967.5000;0.0749;-0.9852;
967.8000;0.0749;-0.9830;
968.1000;0.0741;-0.9762;
968.4000;0.0733;-0.9716;
968.7000;0.0733;-0.9739;
969.0000;0.0830;-0.9513;
969.3000;0.0716;-0.9807;
969.6000;0.0790;-0.9581;
969.9000;0.0741;-0.9762;
970.2000;0.0741;-0.9649;
970.5000;0.0741;-0.9603;
970.8000;0.0749;-0.9535;
971.1000;0.0724;-0.9581;
971.4000;0.0757;-0.9422;
971.7000;0.0749;-0.9490;
972.0000;0.0749;-0.9558;
972.3000;0.0773;-0.9490;
972.6000;0.0749;-0.9558;
972.9000;0.0757;-0.9581;
973.2000;0.0773;-0.9535;
973.5000;0.0749;-0.9603;
973.8000;0.0749;-0.9694;
974.1000;0.0716;-0.9716;
974.4000;0.0765;-0.9581;
974.7000;0.0749;-0.9716;
975.0000;0.0708;-0.9807;
975.3000;0.0741;-0.9807;
975.6000;0.0749;-0.9807;
975.9000;0.0749;-0.9807;
976.2000;0.0749;-0.9739;
976.5000;0.0749;-0.9852;
976.8000;0.0749;-0.9830;
977.1000;0.0830;-0.9671;
977.4000;0.0733;-0.9943;
977.7000;0.0741;-0.9898;
978.0000;0.0757;-0.9807;
978.3000;0.0765;-0.9762;
978.6000;0.0741;-0.9807;
978.9000;0.0781;-0.9694;
979.2000;0.0757;-0.9716;
979.5000;0.0741;-0.9626;
979.8000;0.0733;-0.9558;
980.1000;0.0765;-0.9490;
980.4000;0.0749;-0.9467;
980.7000;0.0741;-0.9467;
981.0000;0.0741;-0.9490;
981.3000;0.0749;-0.9490;
981.6000;0.0741;-0.9558;
981.9000;0.0757;-0.9513;
982.2000;0.0749;-0.9581;
982.5000;0.0863;-0.9263;
982.8000;0.0749;-0.9535;
983.1000;0.0724;-0.9581;
983.4000;0.0790;-0.9445;
983.7000;0.0757;-0.9581;
984.0000;0.0741;-0.9626;
984.3000;0.0749;-0.9649;
984.6000;0.0765;-0.9626;
984.9000;0.0733;-0.9649;
985.2000;0.0724;-0.9603;
985.5000;0.0708;-0.9649;
985.8000;0.0806;-0.9399;
986.1000;0.0765;-0.9513;
986.4000;0.0838;-0.9309;
986.7000;0.0749;-0.9535;
987.0000;0.0733;-0.9581;
987.3000;0.0757;-0.9603;
987.6000;0.0822;-0.9422;
987.9000;0.0749;-0.9626;
988.2000;0.0627;-0.9898;
988.5000;0.0692;-0.9739;
988.8000;0.0765;-0.9535;
989.1000;0.0716;-0.9716;
989.4000;0.0724;-0.9739;
989.7000;0.0749;-0.9671;
990.0000;0.0741;-0.9694;
990.3000;0.0733;-0.9603;
990.6000;0.0749;-0.9558;
990.9000;0.0749;-0.9626;
991.2000;0.0749;-0.9649;
991.5000;0.0757;-0.9694;
991.8000;0.0749;-0.9694;
992.1000;0.0741;-0.9762;
992.4000;0.0757;-0.9830;
992.7000;0.0749;-0.9852;
993.0000;0.0765;-0.9898;
993.3000;0.0790;-0.9807;
993.6000;0.0749;-0.9852;
993.9000;0.0733;-0.9988;
994.2000;0.0765;-0.9966;
994.5000;0.0741;-0.9988;
994.8000;0.0700;-1.0034;
995.1000;0.0749;-0.9807;
995.4000;0.0692;-0.9966;
995.7000;0.0757;-0.9716;
996.0000;0.0781;-0.9626;
996.3000;0.0773;-0.9626;
996.6000;0.0733;-0.9716;
996.9000;0.0830;-0.9490;
997.2000;0.0749;-0.9694;
997.5000;0.0765;-0.9671;
997.8000;0.0741;-0.9807;
998.1000;0.0724;-0.9875;
998.4000;0.0716;-0.9898;
998.7000;0.0741;-0.9852;
999.0000;0.0757;-0.9875;
999.3000;0.0749;-0.9875;
999.6000;0.0741;-0.9875;
999.9000;0.0749;-0.9830;
1000.2000;0.0741;-0.9875;
1000.5000;0.0733;-0.9943;
1000.8000;0.0749;-0.9830;
1001.1000;0.0716;-0.9852;
1001.4000;0.0676;-0.9898;
1001.7000;0.0749;-0.9694;
1002.0000;0.0708;-0.9830;
1002.3000;0.0757;-0.9762;
1002.6000;0.0765;-0.9716;
1002.9000;0.0749;-0.9739;
1003.2000;0.0741;-0.9762;
1003.5000;0.0749;-0.9671;
1003.8000;0.0741;-0.9558;
1004.1000;0.0741;-0.9513;
1004.4000;0.0741;-0.9581;
1004.7000;0.0733;-0.9626;
1005.0000;0.0741;-0.9671;
1005.3000;0.0879;-0.9263;
1005.6000;0.0749;-0.9671;
1005.9000;0.0757;-0.9671;
1006.2000;0.0749;-0.9603;
1006.5000;0.0741;-0.9626;
1006.8000;0.0757;-0.9513;
1007.1000;0.0724;-0.9671;
1007.4000;0.0741;-0.9716;
1007.7000;0.0757;-0.9762;
1008.0000;0.0838;-0.9490;
1008.3000;0.0749;-0.9716;
1008.6000;0.0781;-0.9671;
1008.9000;0.0757;-0.9762;
1009.2000;0.0733;-0.9762;
1009.5000;0.0716;-0.9762;
1009.8000;0.0692;-0.9875;
1010.1000;0.0757;-0.9716;
1010.4000;0.0765;-0.9671;
1010.7000;0.0757;-0.9626;
1011.0000;0.0741;-0.9649;
1011.3000;0.0757;-0.9626;
1011.6000;0.0741;-0.9739;
1011.9000;0.0749;-0.9762;
1012.2000;0.0741;-0.9716;
1012.5000;0.0757;-0.9716;
1012.8000;0.0749;-0.9762;
1013.1000;0.0749;-0.9716;
1013.4000;0.0765;-0.9694;
1013.7000;0.0635;-1.0034;
1014.0000;0.0765;-0.9762;
1014.3000;0.0773;-0.9784;
1014.6000;0.0733;-0.9875;
1014.9000;0.0676;-1.0034;
1015.2000;0.0749;-0.9807;
1015.5000;0.0765;-0.9784;
1015.8000;0.0781;-0.9694;
1016.1000;0.0749;-0.9694;
1016.4000;0.0700;-0.9807;
1016.7000;0.0757;-0.9626;
1017.0000;0.0724;-0.9694;
1017.3000;0.0741;-0.9762;
1017.6000;0.0741;-0.9739;
1017.9000;0.0741;-0.9694;
1018.2000;0.0676;-0.9762;
1018.5000;0.0749;-0.9581;
1018.8000;0.0724;-0.9581;
1019.1000;0.0627;-0.9875;
1019.4000;0.0611;-0.9943;
1019.7000;0.0716;-0.9739;
1020.0000;0.0806;-0.9513;
1020.3000;0.0757;-0.9739;
1020.6000;0.0749;-0.9762;
1020.9000;0.0733;-0.9807;
1021.2000;0.0716;-0.9852;
1021.5000;0.0724;-0.9875;
1021.8000;0.0749;-0.9716;
1022.1000;0.0855;-0.9513;
1022.4000;0.0708;-0.9898;
1022.7000;0.0749;-0.9830;
1023.0000;0.0733;-0.9898;
1023.3000;0.0733;-0.9898;
1023.6000;0.0741;-0.9830;
1023.9000;0.0757;-0.9807;
1024.2000;0.0741;-0.9807;
1024.5000;0.0733;-0.9898;
1024.8000;0.0741;-0.9875;
1025.1000;0.0716;-0.9875;
1025.4000;0.0733;-0.9784;
1025.7000;0.0757;-0.9694;
1026.0000;0.0855;-0.9558;
1026.3000;0.0733;-0.9830;
1026.6000;0.0773;-0.9694;
1026.9000;0.0692;-0.9898;
1027.2000;0.0741;-0.9762;
1027.5000;0.0749;-0.9739;
1027.8000;0.0765;-0.9649;
1028.1000;0.0749;-0.9716;
1028.4000;0.0757;-0.9784;
1028.7000;0.0757;-0.9716;
1029.0000;0.0757;-0.9671;
1029.3000;0.0741;-0.9694;
1029.6000;0.0733;-0.9739;
1029.9000;0.0765;-0.9671;
1030.2000;0.0741;-0.9671;
1030.5000;0.0684;-0.9830;
1030.8000;0.0749;-0.9716;
1031.1000;0.0773;-0.9649;
1031.4000;0.0749;-0.9762;
1031.7000;0.0765;-0.9852;
1032.0000;0.0724;-0.9852;
1032.3000;0.0716;-0.9807;
1032.6000;0.0757;-0.9671;
1032.9000;0.0716;-0.9739;
1033.2000;0.0724;-0.9716;
1033.5000;0.0733;-0.9807;
1033.8000;0.0716;-0.9852;
1034.1000;0.0741;-0.9762;
1034.4000;0.0749;-0.9739;
1034.7000;0.0757;-0.9784;
1035.0000;0.0733;-0.9807;
1035.3000;0.0724;-0.9807;
1035.6000;0.0716;-0.9716;
1035.9000;0.0749;-0.9649;
1036.2000;0.0749;-0.9671;
1036.5000;0.0611;-1.0079;
1036.8000;0.0716;-0.9875;
1037.1000;0.0716;-0.9875;
1037.4000;0.0749;-0.9716;
1037.7000;0.0749;-0.9762;
1038.0000;0.0773;-0.9716;
1038.3000;0.0708;-0.9807;
1038.6000;0.0741;-0.9694;
1038.9000;0.0757;-0.9739;
1039.2000;0.0741;-0.9830;
1039.5000;0.0724;-0.9807;
1039.8000;0.0741;-0.9739;
1040.1000;0.0741;-0.9716;
1040.4000;0.0733;-0.9739;
1040.7000;0.0716;-0.9875;
1041.0000;0.0724;-0.9898;
1041.3000;0.0806;-0.9649;
1041.6000;0.0724;-0.9807;
1041.9000;0.0847;-0.9490;
1042.2000;0.0700;-0.9807;
1042.5000;0.0741;-0.9807;
1042.8000;0.0733;-0.9716;
1043.1000;0.0716;-0.9762;
1043.4000;0.0749;-0.9716;
1043.7000;0.0757;-0.9671;
1044.0000;0.0676;-0.9807;
1044.3000;0.0741;-0.9581;
1044.6000;0.0749;-0.9558;
1044.9000;0.0749;-0.9649;
1045.2000;0.0895;-0.9309;
1045.5000;0.0749;-0.9603;
1045.8000;0.0749;-0.9603;
1046.1000;0.0724;-0.9626;
1046.4000;0.0741;-0.9535;
1046.7000;0.0733;-0.9581;
1047.0000;0.0733;-0.9581;
1047.3000;0.0716;-0.9626;
1047.6000;0.0749;-0.9535;
1047.9000;0.0749;-0.9558;
1048.2000;0.0741;-0.9581;
1048.5000;0.0757;-0.9535;
1048.8000;0.0733;-0.9603;
1049.1000;0.0741;-0.9626;
1049.4000;0.0741;-0.9649;
1049.7000;0.0741;-0.9716;
1050.0000;0.0716;-0.9716;
1050.3000;0.0757;-0.9671;
1050.6000;0.0724;-0.9739;
1050.9000;0.0724;-0.9807;
1051.2000;0.0716;-0.9784;
1051.5000;0.0733;-0.9739;
1051.8000;0.0765;-0.9694;
1052.1000;0.0724;-0.9626;
1052.4000;0.0733;-0.9671;
1052.7000;0.0741;-0.9716;
1053.0000;0.0773;-0.9671;
1053.3000;0.0904;-0.9241;
1053.6000;0.0749;-0.9694;
1053.9000;0.0741;-0.9649;
1054.2000;0.0765;-0.9649;
1054.5000;0.0765;-0.9739;
1054.8000;0.0733;-0.9739;
1055.1000;0.0733;-0.9671;
1055.4000;0.0749;-0.9626;
1055.7000;0.0741;-0.9649;
1056.0000;0.0733;-0.9694;
1056.3000;0.0773;-0.9626;
1056.6000;0.0708;-0.9716;
1056.9000;0.0708;-0.9739;
1057.2000;0.0724;-0.9694;
1057.5000;0.0749;-0.9626;
1057.8000;0.0749;-0.9626;
1058.1000;0.0773;-0.9603;
1058.4000;0.0822;-0.9535;
1058.7000;0.0749;-0.9739;
1059.0000;0.0749;-0.9716;
1059.3000;0.0798;-0.9603;
1059.6000;0.0708;-0.9898;
1059.9000;0.0741;-0.9762;
1060.2000;0.0741;-0.9739;
1060.5000;0.0733;-0.9739;
1060.8000;0.0733;-0.9671;
1061.1000;0.0773;-0.9626;
1061.4000;0.0724;-0.9807;
1061.7000;0.0741;-0.9807;
1062.0000;0.0798;-0.9671;
1062.3000;0.0773;-0.9694;
1062.6000;0.0741;-0.9830;
1062.9000;0.0806;-0.9694;
1063.2000;0.0847;-0.9581;
1063.5000;0.0757;-0.9762;
1063.8000;0.0757;-0.9739;
1064.1000;0.0741;-0.9671;
1064.4000;0.0838;-0.9535;
1064.7000;0.0765;-0.9671;
1065.0000;0.0716;-0.9807;
1065.3000;0.0749;-0.9694;
1065.6000;0.0724;-0.9694;
1065.9000;0.0757;-0.9649;
1066.2000;0.0757;-0.9535;
1066.5000;0.0749;-0.9581;
1066.8000;0.0733;-0.9581;
1067.1000;0.0635;-0.9875;
1067.4000;0.0741;-0.9649;
1067.7000;0.0692;-0.9739;
1068.0000;0.0773;-0.9626;
1068.3000;0.0879;-0.9445;
1068.6000;0.0765;-0.9694;
1068.9000;0.0757;-0.9784;
1069.2000;0.0708;-0.9898;
1069.5000;0.0765;-0.9762;
1069.8000;0.0765;-0.9830;
1070.1000;0.0741;-0.9898;
1070.4000;0.0757;-0.9898;
1070.7000;0.0749;-0.9807;
1071.0000;0.0749;-0.9807;
1071.3000;0.0724;-0.9830;
1071.6000;0.0781;-0.9716;
1071.9000;0.0733;-0.9739;
1072.2000;0.0741;-0.9762;
1072.5000;0.0773;-0.9739;
1072.8000;0.0757;-0.9807;
1073.1000;0.0765;-0.9739;
1073.4000;0.0781;-0.9694;
1073.7000;0.0749;-0.9762;
1074.0000;0.0847;-0.9558;
1074.3000;0.0749;-0.9784;
1074.6000;0.0724;-0.9739;
1074.9000;0.0724;-0.9671;
1075.2000;0.0741;-0.9603;
1075.5000;0.0830;-0.9309;
1075.8000;0.0781;-0.9513;
1076.1000;0.0708;-0.9762;
1076.4000;0.0741;-0.9716;
1076.7000;0.0733;-0.9694;
1077.0000;0.0741;-0.9694;
1077.3000;0.0749;-0.9694;
1077.6000;0.0749;-0.9626;
1077.9000;0.0773;-0.9558;
1078.2000;0.0741;-0.9694;
1078.5000;0.0733;-0.9762;
1078.8000;0.0790;-0.9716;
1079.1000;0.0749;-0.9807;
1079.4000;0.0741;-0.9875;
1079.7000;0.0773;-0.9875;
1080.0000;0.0741;-0.9852;
1080.3000;0.0708;-0.9943;
1080.6000;0.0781;-0.9671;
1080.9000;0.0806;-0.9626;
1081.2000;0.0790;-0.9603;
1081.5000;0.0716;-0.9784;
1081.8000;0.0741;-0.9807;
1082.1000;0.0749;-0.9807;
1082.4000;0.0692;-0.9875;
1082.7000;0.0741;-0.9649;
1083.0000;0.0781;-0.9558;
1083.3000;0.0741;-0.9716;
1083.6000;0.0912;-0.9218;
1083.9000;0.0749;-0.9671;
1084.2000;0.0733;-0.9694;
1084.5000;0.0757;-0.9694;
1084.8000;0.0806;-0.9603;
1085.1000;0.0708;-0.9694;
1085.4000;0.0733;-0.9581;
1085.7000;0.0790;-0.9467;
1086.0000;0.0676;-0.9694;
1086.3000;0.0765;-0.9581;
1086.6000;0.0749;-0.9649;
1086.9000;0.0773;-0.9513;
1087.2000;0.0741;-0.9626;
1087.5000;0.0765;-0.9626;
1087.8000;0.0749;-0.9649;
1088.1000;0.0765;-0.9671;
1088.4000;0.0733;-0.9784;
1088.7000;0.0741;-0.9739;
1089.0000;0.0733;-0.9694;
1089.3000;0.0733;-0.9716;
1089.6000;0.0765;-0.9581;
1089.9000;0.0757;-0.9581;
1090.2000;0.0822;-0.9422;
1090.5000;0.0724;-0.9581;
1090.8000;0.0741;-0.9558;
1091.1000;0.0741;-0.9467;
1091.4000;0.0741;-0.9445;
1091.7000;0.0741;-0.9490;
1092.0000;0.0749;-0.9513;
1092.3000;0.0733;-0.9513;
1092.6000;0.0708;-0.9626;
1092.9000;0.0741;-0.9535;
1093.2000;0.0692;-0.9671;
1093.5000;0.0749;-0.9558;
1093.8000;0.0830;-0.9399;
1094.1000;0.0716;-0.9762;
1094.4000;0.0724;-0.9920;
1094.7000;0.0741;-0.9875;
1095.0000;0.0765;-0.9807;
1095.3000;0.0741;-0.9830;
1095.6000;0.0724;-0.9920;
1095.9000;0.0733;-0.9920;
1096.2000;0.0733;-0.9807;
1096.5000;0.0684;-0.9875;
1096.8000;0.0724;-0.9739;
1097.1000;0.0773;-0.9626;
1097.4000;0.0749;-0.9671;
1097.7000;0.0838;-0.9399;
1098.0000;0.0765;-0.9581;
1098.3000;0.0716;-0.9807;
1098.6000;0.0733;-0.9852;
1098.9000;0.0627;-1.0192;
1099.2000;0.0741;-0.9830;
1099.5000;0.0871;-0.9490;
1099.8000;0.0741;-0.9739;
1100.1000;0.0733;-0.9784;
1100.4000;0.0724;-0.9762;
1100.7000;0.0700;-0.9716;
1101.0000;0.0651;-0.9807;
1101.3000;0.0749;-0.9581;
1101.6000;0.0733;-0.9603;
1101.9000;0.0749;-0.9581;
1102.2000;0.0781;-0.9581;
1102.5000;0.0822;-0.9399;
1102.8000;0.0765;-0.9558;
1103.1000;0.0757;-0.9581;
1103.4000;0.0733;-0.9626;
1103.7000;0.0765;-0.9626;
1104.0000;0.0765;-0.9694;
1104.3000;0.0749;-0.9716;
1104.6000;0.0749;-0.9739;
1104.9000;0.0749;-0.9716;
1105.2000;0.0749;-0.9762;
1105.5000;0.0741;-0.9762;
1105.8000;0.0749;-0.9739;
1106.1000;0.0627;-1.0034;
1106.4000;0.0741;-0.9716;
1106.7000;0.0741;-0.9671;
1107.0000;0.0741;-0.9762;
1107.3000;0.0741;-0.9716;
1107.6000;0.0667;-0.9875;
1107.9000;0.0773;-0.9558;
1108.2000;0.0716;-0.9649;
1108.5000;0.0741;-0.9694;
1108.8000;0.0749;-0.9694;
1109.1000;0.0667;-0.9920;
1109.4000;0.0708;-0.9943;
1109.7000;0.0741;-0.9898;
1110.0000;0.0887;-0.9467;
1110.3000;0.0757;-0.9807;
1110.6000;0.0830;-0.9558;
1110.9000;0.0733;-0.9739;
1111.2000;0.0716;-0.9762;
1111.5000;0.0773;-0.9603;
1111.8000;0.0757;-0.9671;
1112.1000;0.0733;-0.9694;
1112.4000;0.0667;-0.9875;
1112.7000;0.0765;-0.9626;
1113.0000;0.0741;-0.9694;
1113.3000;0.0684;-0.9830;
1113.6000;0.0741;-0.9762;
1113.9000;0.0741;-0.9739;
1114.2000;0.0757;-0.9694;
1114.5000;0.0749;-0.9739;
1114.8000;0.0733;-0.9875;
1115.1000;0.0773;-0.9830;
1115.4000;0.0757;-0.9920;
1115.7000;0.0757;-0.9920;
1116.0000;0.0741;-0.9875;
1116.3000;0.0733;-0.9966;
1116.6000;0.0773;-0.9920;
1116.9000;0.0749;-1.0011;
1117.2000;0.0724;-1.0101;
1117.5000;0.0733;-1.0011;
1117.8000;0.0724;-1.0034;
1118.1000;0.0757;-0.9988;
1118.4000;0.0773;-0.9920;
1118.7000;0.0676;-1.0169;
1119.0000;0.0716;-0.9988;
1119.3000;0.0749;-0.9920;
1119.6000;0.0757;-0.9943;
1119.9000;0.0757;-0.9943;
1120.2000;0.0781;-0.9852;
1120.5000;0.0741;-0.9830;
1120.8000;0.0724;-0.9852;
1121.1000;0.0724;-0.9830;
1121.4000;0.0700;-0.9830;
1121.7000;0.0757;-0.9626;
1122.0000;0.0749;-0.9603;
1122.3000;0.0822;-0.9445;
1122.6000;0.0765;-0.9558;
1122.9000;0.0806;-0.9445;
1123.2000;0.0749;-0.9558;
1123.5000;0.0733;-0.9649;
1123.8000;0.0733;-0.9626;
1124.1000;0.0765;-0.9490;
1124.4000;0.0765;-0.9513;
1124.7000;0.0733;-0.9671;
1125.0000;0.0692;-0.9716;
1125.3000;0.0741;-0.9626;
1125.6000;0.0741;-0.9626;
1125.9000;0.0733;-0.9671;
1126.2000;0.0741;-0.9807;
1126.5000;0.0765;-0.9762;
1126.8000;0.0749;-0.9807;
1127.1000;0.0635;-1.0101;
1127.4000;0.0716;-0.9875;
1127.7000;0.0765;-0.9852;
1128.0000;0.0765;-0.9830;
1128.3000;0.0790;-0.9716;
1128.6000;0.0724;-0.9807;
1128.9000;0.0879;-0.9399;
1129.2000;0.0790;-0.9626;
1129.5000;0.0781;-0.9581;
1129.8000;0.0773;-0.9581;
1130.1000;0.0912;-0.9218;
1130.4000;0.0741;-0.9671;
1130.7000;0.0749;-0.9694;
1131.0000;0.0741;-0.9716;
1131.3000;0.0741;-0.9762;
1131.6000;0.0757;-0.9716;
1131.9000;0.0716;-0.9830;
1132.2000;0.0757;-0.9739;
1132.5000;0.0757;-0.9762;
1132.8000;0.0749;-0.9784;
1133.1000;0.0773;-0.9739;
1133.4000;0.0773;-0.9739;
1133.7000;0.0733;-0.9875;
1134.0000;0.0676;-1.0034;
1134.3000;0.0781;-0.9762;
1134.6000;0.0773;-0.9739;
1134.9000;0.0822;-0.9581;
1135.2000;0.0741;-0.9716;
1135.5000;0.0733;-0.9649;
1135.8000;0.0733;-0.9626;
1136.1000;0.0716;-0.9784;
1136.4000;0.0708;-0.9852;
1136.7000;0.0733;-0.9671;
1137.0000;0.0790;-0.9581;
1137.3000;0.0724;-0.9739;
1137.6000;0.0749;-0.9784;
1137.9000;0.0741;-0.9762;
1138.2000;0.0749;-0.9807;
1138.5000;0.0765;-0.9716;
1138.8000;0.0749;-0.9694;
1139.1000;0.0741;-0.9716;
1139.4000;0.0716;-0.9807;
1139.7000;0.0757;-0.9762;
1140.0000;0.0741;-0.9784;
1140.3000;0.0700;-0.9852;
1140.6000;0.0749;-0.9671;
1140.9000;0.0741;-0.9671;
1141.2000;0.0765;-0.9558;
1141.5000;0.0733;-0.9671;
1141.8000;0.0790;-0.9581;
1142.1000;0.0724;-0.9784;
1142.4000;0.0724;-0.9762;
1142.7000;0.0741;-0.9830;
1143.0000;0.0741;-0.9852;
1143.3000;0.0749;-0.9852;
1143.6000;0.0741;-0.9830;
1143.9000;0.0733;-0.9830;
1144.2000;0.0741;-0.9739;
1144.5000;0.0708;-0.9852;
1144.8000;0.0749;-0.9762;
1145.1000;0.0757;-0.9694;
1145.4000;0.0741;-0.9694;
1145.7000;0.0749;-0.9649;
1146.0000;0.0749;-0.9558;
1146.3000;0.0716;-0.9671;
1146.6000;0.0741;-0.9694;
1146.9000;0.0733;-0.9671;
1147.2000;0.0724;-0.9694;
1147.5000;0.0806;-0.9490;
1147.8000;0.0757;-0.9581;
1148.1000;0.0749;-0.9649;
1148.4000;0.0773;-0.9558;
1148.7000;0.0757;-0.9581;
1149.0000;0.0667;-0.9875;
1149.3000;0.0741;-0.9649;
1149.6000;0.0765;-0.9581;
1149.9000;0.0741;-0.9649;
1150.2000;0.0643;-0.9875;
1150.5000;0.0741;-0.9739;
1150.8000;0.0733;-0.9739;
1151.1000;0.0724;-0.9716;
1151.4000;0.0716;-0.9762;
1151.7000;0.0724;-0.9830;
1152.0000;0.0749;-0.9807;
1152.3000;0.0733;-0.9852;
1152.6000;0.0684;-0.9966;
1152.9000;0.0749;-0.9875;
1153.2000;0.0757;-0.9852;
1153.5000;0.0724;-0.9898;
1153.8000;0.0733;-0.9716;
1154.1000;0.0708;-0.9694;
1154.4000;0.0749;-0.9626;
1154.7000;0.0741;-0.9694;
1155.0000;0.0724;-0.9716;
1155.3000;0.0741;-0.9784;
1155.6000;0.0741;-0.9875;
1155.9000;0.0708;-0.9966;
1156.2000;0.0708;-0.9920;
1156.5000;0.0741;-0.9784;
1156.8000;0.0741;-0.9784;
1157.1000;0.0822;-0.9558;
1157.4000;0.0757;-0.9762;
1157.7000;0.0741;-0.9807;
1158.0000;0.0724;-0.9784;
1158.3000;0.0773;-0.9626;
1158.6000;0.0749;-0.9649;
1158.9000;0.0749;-0.9739;
1159.2000;0.0594;-1.0169;
1159.5000;0.0757;-0.9830;
1159.8000;0.0741;-0.9898;
1160.1000;0.0733;-0.9852;
1160.4000;0.0765;-0.9716;
1160.7000;0.0733;-0.9694;
1161.0000;0.0741;-0.9535;
1161.3000;0.0708;-0.9649;
1161.6000;0.0749;-0.9603;
1161.9000;0.0741;-0.9558;
1162.2000;0.0692;-0.9830;
1162.5000;0.0708;-0.9830;
1162.8000;0.0757;-0.9762;
1163.1000;0.0749;-0.9784;
1163.4000;0.0765;-0.9739;
1163.7000;0.0765;-0.9671;
1164.0000;0.0741;-0.9671;
1164.3000;0.0757;-0.9535;
1164.6000;0.0741;-0.9626;
1164.9000;0.0757;-0.9603;
1165.2000;0.0749;-0.9694;
1165.5000;0.0733;-0.9784;
1165.8000;0.0708;-0.9852;
1166.1000;0.0757;-0.9807;
1166.4000;0.0716;-0.9852;
1166.7000;0.0724;-0.9739;
1167.0000;0.0741;-0.9784;
1167.3000;0.0741;-0.9694;
1167.6000;0.0741;-0.9716;
1167.9000;0.0733;-0.9852;
1168.2000;0.0741;-0.9762;
1168.5000;0.0700;-0.9898;
1168.8000;0.0765;-0.9649;
1169.1000;0.0733;-0.9739;
1169.4000;0.0635;-0.9852;
1169.7000;0.0765;-0.9535;
1170.0000;0.0733;-0.9603;
1170.3000;0.0733;-0.9694;
1170.6000;0.0708;-0.9807;
1170.9000;0.0757;-0.9671;
1171.2000;0.0757;-0.9603;
1171.5000;0.0749;-0.9581;
1171.8000;0.0749;-0.9603;
1172.1000;0.0724;-0.9581;
1172.4000;0.0773;-0.9513;
1172.7000;0.0765;-0.9603;
1173.0000;0.0733;-0.9649;
1173.3000;0.0741;-0.9671;
1173.6000;0.0741;-0.9716;
1173.9000;0.0749;-0.9739;
1174.2000;0.0757;-0.9671;
1174.5000;0.0765;-0.9649;
1174.8000;0.0749;-0.9784;
1175.1000;0.0684;-0.9966;
1175.4000;0.0602;-1.0192;
1175.7000;0.0684;-0.9988;
1176.0000;0.0757;-0.9762;
1176.3000;0.0806;-0.9581;
1176.6000;0.0773;-0.9671;
1176.9000;0.0741;-0.9830;
1177.2000;0.0741;-0.9852;
1177.5000;0.0765;-0.9830;
1177.8000;0.0790;-0.9762;
1178.1000;0.0765;-0.9762;
1178.4000;0.0765;-0.9671;
1178.7000;0.0847;-0.9535;
1179.0000;0.0757;-0.9739;
1179.3000;0.0757;-0.9671;
1179.6000;0.0733;-0.9694;
1179.9000;0.0773;-0.9581;
1180.2000;0.0733;-0.9671;
1180.5000;0.0741;-0.9671;
1180.8000;0.0781;-0.9581;
1181.1000;0.0741;-0.9671;
1181.4000;0.0781;-0.9558;
1181.7000;0.0757;-0.9671;
1182.0000;0.0798;-0.9603;
1182.3000;0.0749;-0.9762;
1182.6000;0.0806;-0.9716;
1182.9000;0.0733;-0.9898;
1183.2000;0.0757;-0.9762;
1183.5000;0.0757;-0.9694;
1183.8000;0.0741;-0.9762;
1184.1000;0.0757;-0.9762;
1184.4000;0.0765;-0.9739;
1184.7000;0.0741;-0.9784;
1185.0000;0.0741;-0.9784;
1185.3000;0.0659;-0.9988;
1185.6000;0.0724;-0.9784;
1185.9000;0.0741;-0.9716;
1186.2000;0.0716;-0.9762;
1186.5000;0.0733;-0.9762;
1186.8000;0.0741;-0.9739;
1187.1000;0.0749;-0.9739;
1187.4000;0.0733;-0.9807;
1187.7000;0.0749;-0.9784;
1188.0000;0.0724;-0.9898;
1188.3000;0.0749;-0.9852;
1188.6000;0.0741;-0.9784;
1188.9000;0.0757;-0.9762;
1189.2000;0.0749;-0.9762;
1189.5000;0.0773;-0.9671;
1189.8000;0.0733;-0.9784;
1190.1000;0.0765;-0.9671;
1190.4000;0.0757;-0.9762;
1190.7000;0.0765;-0.9852;
1191.0000;0.0741;-0.9920;
1191.3000;0.0765;-0.9898;
1191.6000;0.0741;-0.9830;
1191.9000;0.0651;-1.0011;
1192.2000;0.0716;-0.9898;
1192.5000;0.0830;-0.9626;
1192.8000;0.0790;-0.9762;
1193.1000;0.0765;-0.9762;
1193.4000;0.0692;-0.9898;
1193.7000;0.0741;-0.9830;
1194.0000;0.0749;-0.9830;
1194.3000;0.0814;-0.9694;
1194.6000;0.0773;-0.9784;
1194.9000;0.0749;-0.9852;
1195.2000;0.0700;-0.9966;
1195.5000;0.0716;-0.9920;
1195.8000;0.0749;-0.9852;
1196.1000;0.0749;-0.9875;
1196.4000;0.0757;-0.9852;
1196.7000;0.0724;-0.9875;
1197.0000;0.0741;-0.9762;
1197.3000;0.0741;-0.9830;
1197.6000;0.0733;-0.9943;
1197.9000;0.0765;-0.9762;
1198.2000;0.0765;-0.9739;
1198.5000;0.0757;-0.9784;
1198.8000;0.0724;-0.9920;
1199.1000;0.0814;-0.9671;
1199.4000;0.0757;-0.9784;
1199.7000;0.0741;-0.9807;
1200.0000;0.0716;-0.9875;
1200.3000;0.0741;-0.9807;
1200.6000;0.0757;-0.9762;
1200.9000;0.0749;-0.9830;
1201.2000;0.0798;-0.9807;
1201.5000;0.0765;-0.9830;
1201.8000;0.0741;-0.9784;
1202.1000;0.0749;-0.9807;
1202.4000;0.0781;-0.9739;
1202.7000;0.0741;-0.9807;
1203.0000;0.0765;-0.9694;
1203.3000;0.0733;-0.9739;
1203.6000;0.0724;-0.9852;
1203.9000;0.0741;-0.9830;
1204.2000;0.0757;-0.9739;
1204.5000;0.0741;-0.9852;
1204.8000;0.0749;-0.9943;
1205.1000;0.0749;-0.9898;
1205.4000;0.0749;-0.9943;
1205.7000;0.0781;-0.9875;
1206.0000;0.0741;-0.9943;
1206.3000;0.0847;-0.9603;
1206.6000;0.0830;-0.9694;
1206.9000;0.0733;-0.9966;
1207.2000;0.0773;-0.9830;
1207.5000;0.0724;-0.9988;
1207.8000;0.0757;-0.9898;
1208.1000;0.0741;-1.0011;
1208.4000;0.0757;-1.0011;
1208.7000;0.0733;-1.0079;
1209.0000;0.0676;-1.0215;
1209.3000;0.0765;-0.9852;
1209.6000;0.0757;-0.9852;
1209.9000;0.0749;-0.9807;
1210.2000;0.0765;-0.9739;
1210.5000;0.0757;-0.9784;
1210.8000;0.0757;-0.9671;
1211.1000;0.0724;-0.9716;
1211.4000;0.0733;-0.9671;
1211.7000;0.0724;-0.9694;
1212.0000;0.0773;-0.9490;
1212.3000;0.0757;-0.9513;
1212.6000;0.0716;-0.9649;
1212.9000;0.0741;-0.9626;
1213.2000;0.0733;-0.9671;
1213.5000;0.0757;-0.9626;
1213.8000;0.0749;-0.9716;
1214.1000;0.0749;-0.9649;
1214.4000;0.0757;-0.9626;
1214.7000;0.0749;-0.9694;
1215.0000;0.0716;-0.9784;
1215.3000;0.0749;-0.9694;
1215.6000;0.0757;-0.9671;
1215.9000;0.0749;-0.9807;
1216.2000;0.0765;-0.9739;
1216.5000;0.0724;-0.9830;
1216.8000;0.0757;-0.9671;
1217.1000;0.0733;-0.9762;
1217.4000;0.0765;-0.9649;
1217.7000;0.0749;-0.9762;
1218.0000;0.0741;-0.9830;
1218.3000;0.0741;-0.9830;
1218.6000;0.0749;-0.9784;
1218.9000;0.0724;-0.9762;
1219.2000;0.0749;-0.9671;
1219.5000;0.0765;-0.9603;
1219.8000;0.0757;-0.9671;
1220.1000;0.0757;-0.9671;
1220.4000;0.0741;-0.9784;
1220.7000;0.0724;-0.9739;
1221.0000;0.0765;-0.9581;
1221.3000;0.0733;-0.9603;
1221.6000;0.0757;-0.9558;
1221.9000;0.0749;-0.9558;
1222.2000;0.0749;-0.9581;
1222.5000;0.0773;-0.9558;
1222.8000;0.0741;-0.9603;
1223.1000;0.0733;-0.9649;
1223.4000;0.0749;-0.9558;
1223.7000;0.0741;-0.9694;
1224.0000;0.0741;-0.9762;
1224.3000;0.0757;-0.9694;
1224.6000;0.0741;-0.9694;
1224.9000;0.0773;-0.9581;
1225.2000;0.0692;-0.9852;
1225.5000;0.0676;-0.9898;
1225.8000;0.0724;-0.9807;
1226.1000;0.0741;-0.9852;
1226.4000;0.0741;-0.9852;
1226.7000;0.0724;-0.9875;
1227.0000;0.0733;-0.9807;
1227.3000;0.0733;-0.9943;
1227.6000;0.0749;-1.0056;
1227.9000;0.0798;-0.9966;
1228.2000;0.0855;-0.9830;
1228.5000;0.0757;-0.9920;
1228.8000;0.0757;-0.9875;
1229.1000;0.0765;-0.9875;
1229.4000;0.0700;-1.0011;
1229.7000;0.0757;-0.9898;
1230.0000;0.0733;-0.9898;
1230.3000;0.0781;-0.9852;
1230.6000;0.0716;-1.0034;
1230.9000;0.0716;-1.0034;
1231.2000;0.0708;-1.0147;
1231.5000;0.0659;-1.0260;
1231.8000;0.0724;-1.0101;
1232.1000;0.0749;-1.0056;
1232.4000;0.0749;-0.9966;
1232.7000;0.0765;-0.9943;
1233.0000;0.0708;-1.0011;
1233.3000;0.0716;-1.0011;
1233.6000;0.0765;-0.9943;
1233.9000;0.0733;-1.0011;
1234.2000;0.0749;-0.9920;
1234.5000;0.0773;-0.9920;
1234.8000;0.0790;-0.9943;
1235.1000;0.0733;-0.9966;
1235.4000;0.0757;-0.9852;
1235.7000;0.0749;-0.9784;
1236.0000;0.0765;-0.9852;
1236.3000;0.0749;-0.9852;
1236.6000;0.0716;-0.9875;
1236.9000;0.0741;-0.9716;
1237.2000;0.0749;-0.9716;
1237.5000;0.0684;-0.9830;
1237.8000;0.0724;-0.9694;
1238.1000;0.0757;-0.9558;
1238.4000;0.0724;-0.9581;
1238.7000;0.0757;-0.9603;
1239.0000;0.0781;-0.9535;
1239.3000;0.0749;-0.9716;
1239.6000;0.0733;-0.9649;
1239.9000;0.0765;-0.9626;
1240.2000;0.0692;-0.9649;
1240.5000;0.0733;-0.9649;
1240.8000;0.0765;-0.9535;
1241.1000;0.0757;-0.9626;
1241.4000;0.0765;-0.9603;
1241.7000;0.0700;-0.9807;
1242.0000;0.0733;-0.9671;
1242.3000;0.0757;-0.9558;
1242.6000;0.0749;-0.9626;
1242.9000;0.0724;-0.9739;
1243.2000;0.0773;-0.9694;
1243.5000;0.0757;-0.9784;
1243.8000;0.0749;-0.9762;
1244.1000;0.0773;-0.9762;
1244.4000;0.0773;-0.9739;
1244.7000;0.0757;-0.9739;
1245.0000;0.0749;-0.9739;
1245.3000;0.0708;-0.9875;
1245.6000;0.0765;-0.9739;
1245.9000;0.0741;-0.9784;
1246.2000;0.0724;-0.9830;
1246.5000;0.0806;-0.9649;
1246.8000;0.0716;-0.9920;
1247.1000;0.0741;-0.9875;
1247.4000;0.0749;-0.9784;
1247.7000;0.0790;-0.9716;
1248.0000;0.0749;-0.9852;
1248.3000;0.0741;-0.9898;
1248.6000;0.0757;-0.9898;
1248.9000;0.0790;-0.9807;
1249.2000;0.0773;-0.9807;
1249.5000;0.0741;-0.9852;
1249.8000;0.0749;-0.9920;
1250.1000;0.0700;-0.9988;
1250.4000;0.0741;-0.9784;
1250.7000;0.0716;-0.9920;
1251.0000;0.0716;-0.9830;
1251.3000;0.0692;-0.9875;
1251.6000;0.0733;-0.9716;
1251.9000;0.0749;-0.9671;
1252.2000;0.0757;-0.9671;
1252.5000;0.0773;-0.9603;
1252.8000;0.0741;-0.9649;
1253.1000;0.0749;-0.9671;
1253.4000;0.0716;-0.9671;
1253.7000;0.0692;-0.9784;
1254.0000;0.0716;-0.9784;
1254.3000;0.0708;-0.9875;
1254.6000;0.0659;-0.9988;
1254.9000;0.0773;-0.9762;
1255.2000;0.0700;-0.9943;
1255.5000;0.0733;-0.9807;
1255.8000;0.0716;-0.9830;
1256.1000;0.0724;-0.9830;
1256.4000;0.0741;-0.9762;
1256.7000;0.0716;-0.9852;
1257.0000;0.0773;-0.9762;
1257.3000;0.0741;-0.9852;
1257.6000;0.0733;-0.9830;
1257.9000;0.0741;-0.9807;
1258.2000;0.0757;-0.9762;
1258.5000;0.0806;-0.9694;
1258.8000;0.0773;-0.9784;
1259.1000;0.0749;-0.9807;
1259.4000;0.0806;-0.9694;
1259.7000;0.0741;-0.9784;
1260.0000;0.0741;-0.9762;
1260.3000;0.0741;-0.9762;
1260.6000;0.0741;-0.9716;
1260.9000;0.0733;-0.9739;
1261.2000;0.0741;-0.9694;
1261.5000;0.0749;-0.9671;
1261.8000;0.0765;-0.9626;
1262.1000;0.0757;-0.9716;
1262.4000;0.0741;-0.9807;
1262.7000;0.0741;-0.9852;
1263.0000;0.0602;-1.0192;
1263.3000;0.0733;-0.9966;
1263.6000;0.0733;-1.0011;
1263.9000;0.0765;-0.9920;
1264.2000;0.0757;-0.9875;
1264.5000;0.0757;-0.9920;
1264.8000;0.0749;-0.9920;
1265.1000;0.0700;-1.0056;
1265.4000;0.0814;-0.9784;
1265.7000;0.0724;-0.9875;
1266.0000;0.0765;-0.9784;
1266.3000;0.0741;-0.9830;
1266.6000;0.0716;-0.9807;
1266.9000;0.0749;-0.9694;
1267.2000;0.0749;-0.9739;
1267.5000;0.0749;-0.9716;
1267.8000;0.0749;-0.9581;
1268.1000;0.0700;-0.9784;
1268.4000;0.0708;-0.9830;
1268.7000;0.0765;-0.9626;
1269.0000;0.0741;-0.9671;
1269.3000;0.0716;-0.9739;
1269.6000;0.0757;-0.9626;
1269.9000;0.0757;-0.9603;
1270.2000;0.0667;-0.9875;
1270.5000;0.0757;-0.9671;
1270.8000;0.0741;-0.9762;
1271.1000;0.0757;-0.9671;
1271.4000;0.0741;-0.9694;
1271.7000;0.0741;-0.9603;
1272.0000;0.0806;-0.9377;
1272.3000;0.0749;-0.9558;
1272.6000;0.0741;-0.9671;
1272.9000;0.0708;-0.9807;
1273.2000;0.0773;-0.9716;
1273.5000;0.0773;-0.9739;
1273.8000;0.0724;-0.9784;
1274.1000;0.0790;-0.9603;
1274.4000;0.0749;-0.9649;
1274.7000;0.0724;-0.9649;
1275.0000;0.0708;-0.9694;
1275.3000;0.0708;-0.9694;
1275.6000;0.0684;-0.9739;
1275.9000;0.0733;-0.9649;
1276.2000;0.0765;-0.9513;
1276.5000;0.0716;-0.9626;
1276.8000;0.0733;-0.9603;
1277.1000;0.0741;-0.9603;
1277.4000;0.0667;-0.9784;
1277.7000;0.0741;-0.9535;
1278.0000;0.0757;-0.9513;
1278.3000;0.0749;-0.9513;
1278.6000;0.0692;-0.9671;
1278.9000;0.0757;-0.9490;
1279.2000;0.0741;-0.9581;
1279.5000;0.0757;-0.9626;
1279.8000;0.0749;-0.9626;
1280.1000;0.0757;-0.9558;
1280.4000;0.0676;-0.9716;
1280.7000;0.0749;-0.9558;
1281.0000;0.0765;-0.9513;
1281.3000;0.0749;-0.9626;
1281.6000;0.0773;-0.9626;
1281.9000;0.0741;-0.9603;
1282.2000;0.0741;-0.9603;
1282.5000;0.0741;-0.9558;
1282.8000;0.0741;-0.9581;
1283.1000;0.0757;-0.9581;
1283.4000;0.0741;-0.9581;
1283.7000;0.0733;-0.9626;
1284.0000;0.0749;-0.9581;
1284.3000;0.0724;-0.9762;
1284.6000;0.0757;-0.9626;
1284.9000;0.0757;-0.9581;
1285.2000;0.0741;-0.9649;
1285.5000;0.0741;-0.9671;
1285.8000;0.0700;-0.9649;
1286.1000;0.0765;-0.9535;
1286.4000;0.0838;-0.9377;
1286.7000;0.0773;-0.9467;
1287.0000;0.0757;-0.9490;
1287.3000;0.0773;-0.9399;
1287.6000;0.0741;-0.9513;
1287.9000;0.0741;-0.9581;
1288.2000;0.0790;-0.9513;
1288.5000;0.0733;-0.9649;
1288.8000;0.0757;-0.9649;
1289.1000;0.0733;-0.9671;
1289.4000;0.0749;-0.9603;
1289.7000;0.0733;-0.9603;
1290.0000;0.0724;-0.9649;
1290.3000;0.0716;-0.9671;
1290.6000;0.0741;-0.9558;
1290.9000;0.0749;-0.9513;
1291.2000;0.0684;-0.9671;
1291.5000;0.0749;-0.9626;
1291.8000;0.0716;-0.9716;
1292.1000;0.0651;-0.9852;
1292.4000;0.0741;-0.9671;
1292.7000;0.0765;-0.9535;
1293.0000;0.0733;-0.9581;
1293.3000;0.0749;-0.9513;
1293.6000;0.0773;-0.9422;
1293.9000;0.0733;-0.9445;
1294.2000;0.0847;-0.9173;
1294.5000;0.0773;-0.9399;
1294.8000;0.0757;-0.9399;
1295.1000;0.0749;-0.9490;
1295.4000;0.0741;-0.9603;
1295.7000;0.0749;-0.9581;
1296.0000;0.0749;-0.9603;
1296.3000;0.0733;-0.9603;
1296.6000;0.0724;-0.9626;
1296.9000;0.0749;-0.9581;
1297.2000;0.0724;-0.9649;
1297.5000;0.0773;-0.9467;
1297.8000;0.0602;-0.9830;
1298.1000;0.0741;-0.9535;
1298.4000;0.0757;-0.9467;
1298.7000;0.0765;-0.9467;
1299.0000;0.0749;-0.9535;
1299.3000;0.0765;-0.9513;
1299.6000;0.0757;-0.9694;
1299.9000;0.0749;-0.9716;
1300.2000;0.0765;-0.9581;
1300.5000;0.0741;-0.9513;
1300.8000;0.0724;-0.9603;
1301.1000;0.0733;-0.9626;
1301.4000;0.0692;-0.9671;
1301.7000;0.0733;-0.9558;
1302.0000;0.0757;-0.9558;
1302.3000;0.0765;-0.9535;
1302.6000;0.0765;-0.9603;
1302.9000;0.0741;-0.9716;
1303.2000;0.0765;-0.9716;
1303.5000;0.0741;-0.9830;
1303.8000;0.0757;-0.9807;
1304.1000;0.0757;-0.9762;
1304.4000;0.0684;-0.9852;
1304.7000;0.0749;-0.9626;
1305.0000;0.0724;-0.9762;
1305.3000;0.0733;-0.9762;
1305.6000;0.0724;-0.9784;
1305.9000;0.0814;-0.9626;
1306.2000;0.0757;-0.9739;
1306.5000;0.0724;-0.9807;
1306.8000;0.0724;-0.9875;
1307.1000;0.0716;-0.9943;
1307.4000;0.0765;-0.9852;
1307.7000;0.0765;-0.9739;
1308.0000;0.0716;-0.9875;
1308.3000;0.0773;-0.9671;
1308.6000;0.0749;-0.9671;
1308.9000;0.0749;-0.9603;
1309.2000;0.0781;-0.9558;
1309.5000;0.0773;-0.9581;
1309.8000;0.0847;-0.9467;
1310.1000;0.0773;-0.9603;
1310.4000;0.0749;-0.9603;
1310.7000;0.0757;-0.9671;
1311.0000;0.0716;-0.9762;
1311.3000;0.0741;-0.9784;
1311.6000;0.0733;-0.9852;
1311.9000;0.0757;-0.9852;
1312.2000;0.0733;-0.9830;
1312.5000;0.0757;-0.9716;
1312.8000;0.0733;-0.9671;
1313.1000;0.0741;-0.9603;
1313.4000;0.0700;-0.9784;
1313.7000;0.0757;-0.9558;
1314.0000;0.0773;-0.9513;
1314.3000;0.0741;-0.9603;
1314.6000;0.0749;-0.9626;
1314.9000;0.0765;-0.9490;
1315.2000;0.0765;-0.9581;
1315.5000;0.0773;-0.9581;
1315.8000;0.0765;-0.9558;
1316.1000;0.0724;-0.9626;
1316.4000;0.0749;-0.9490;
1316.7000;0.0749;-0.9467;
1317.0000;0.0733;-0.9445;
1317.3000;0.0749;-0.9422;
1317.6000;0.0757;-0.9467;
1317.9000;0.0741;-0.9467;
1318.2000;0.0741;-0.9445;
1318.5000;0.0724;-0.9581;
1318.8000;0.0741;-0.9513;
1319.1000;0.0749;-0.9513;
1319.4000;0.0749;-0.9513;
1319.7000;0.0724;-0.9535;
1320.0000;0.0741;-0.9490;
1320.3000;0.0724;-0.9581;
1320.6000;0.0741;-0.9490;
1320.9000;0.0700;-0.9603;
1321.2000;0.0741;-0.9626;
1321.5000;0.0708;-0.9762;
1321.8000;0.0749;-0.9716;
1322.1000;0.0733;-0.9716;
1322.4000;0.0684;-0.9807;
1322.7000;0.0749;-0.9694;
1323.0000;0.0757;-0.9649;
1323.3000;0.0733;-0.9626;
1323.6000;0.0749;-0.9558;
1323.9000;0.0757;-0.9558;
1324.2000;0.0765;-0.9490;
1324.5000;0.0757;-0.9467;
1324.8000;0.0733;-0.9558;
1325.1000;0.0749;-0.9445;
1325.4000;0.0700;-0.9581;
1325.7000;0.0716;-0.9535;
1326.0000;0.0749;-0.9467;
1326.3000;0.0749;-0.9422;
1326.6000;0.0757;-0.9399;
1326.9000;0.0724;-0.9445;
1327.2000;0.0765;-0.9331;
1327.5000;0.0733;-0.9422;
1327.8000;0.0733;-0.9467;
1328.1000;0.0773;-0.9422;
1328.4000;0.0741;-0.9445;
1328.7000;0.0765;-0.9445;
1329.0000;0.0724;-0.9490;
1329.3000;0.0741;-0.9490;
1329.6000;0.0757;-0.9513;
1329.9000;0.0716;-0.9626;
1330.2000;0.0749;-0.9558;
1330.5000;0.0643;-0.9694;
1330.8000;0.0757;-0.9513;
1331.1000;0.0724;-0.9535;
1331.4000;0.0692;-0.9603;
1331.7000;0.0749;-0.9422;
1332.0000;0.0724;-0.9490;
1332.3000;0.0790;-0.9422;
1332.6000;0.0724;-0.9626;
1332.9000;0.0773;-0.9603;
1333.2000;0.0757;-0.9694;
1333.5000;0.0749;-0.9694;
1333.8000;0.0733;-0.9716;
1334.1000;0.0667;-0.9830;
1334.4000;0.0741;-0.9649;
1334.7000;0.0741;-0.9603;
1335.0000;0.0659;-0.9739;
1335.3000;0.0741;-0.9558;
1335.6000;0.0733;-0.9649;
1335.9000;0.0724;-0.9671;
1336.2000;0.0724;-0.9671;
1336.5000;0.0741;-0.9694;
1336.8000;0.0733;-0.9694;
1337.1000;0.0733;-0.9716;
1337.4000;0.0733;-0.9671;
1337.7000;0.0749;-0.9603;
1338.0000;0.0733;-0.9649;
1338.3000;0.0741;-0.9671;
1338.6000;0.0741;-0.9649;
1338.9000;0.0749;-0.9626;
1339.2000;0.0765;-0.9603;
1339.5000;0.0733;-0.9694;
1339.8000;0.0749;-0.9626;
1340.1000;0.0749;-0.9649;
1340.4000;0.0749;-0.9807;
1340.7000;0.0855;-0.9513;
1341.0000;0.0716;-0.9898;
1341.3000;0.0749;-0.9739;
1341.6000;0.0741;-0.9671;
1341.9000;0.0716;-0.9739;
1342.2000;0.0765;-0.9626;
1342.5000;0.0757;-0.9603;
1342.8000;0.0749;-0.9671;
1343.1000;0.0773;-0.9558;
1343.4000;0.0749;-0.9513;
1343.7000;0.0749;-0.9603;
1344.0000;0.0741;-0.9558;
1344.3000;0.0790;-0.9467;
1344.6000;0.0733;-0.9603;
1344.9000;0.0749;-0.9513;
1345.2000;0.0757;-0.9422;
1345.5000;0.0765;-0.9422;
1345.8000;0.0741;-0.9513;
1346.1000;0.0749;-0.9581;
1346.4000;0.0741;-0.9581;
1346.7000;0.0757;-0.9535;
1347.0000;0.0733;-0.9603;
1347.3000;0.0651;-0.9807;
1347.6000;0.0724;-0.9649;
1347.9000;0.0757;-0.9626;
1348.2000;0.0733;-0.9671;
1348.5000;0.0741;-0.9626;
1348.8000;0.0757;-0.9558;
1349.1000;0.0724;-0.9649;
1349.4000;0.0708;-0.9739;
1349.7000;0.0741;-0.9649;
1350.0000;0.0611;-1.0034;
1350.3000;0.0700;-0.9762;
1350.6000;0.0724;-0.9739;
1350.9000;0.0765;-0.9603;
1351.2000;0.0757;-0.9558;
1351.5000;0.0733;-0.9558;
1351.8000;0.0781;-0.9445;
1352.1000;0.0773;-0.9399;
1352.4000;0.0741;-0.9490;
1352.7000;0.0733;-0.9490;
1353.0000;0.0741;-0.9467;
1353.3000;0.0741;-0.9535;
1353.6000;0.0741;-0.9535;
1353.9000;0.0716;-0.9626;
1354.2000;0.0757;-0.9513;
1354.5000;0.0733;-0.9558;
1354.8000;0.0757;-0.9490;
1355.1000;0.0724;-0.9558;
1355.4000;0.0716;-0.9649;
1355.7000;0.0733;-0.9694;
1356.0000;0.0741;-0.9671;
1356.3000;0.0741;-0.9603;
1356.6000;0.0757;-0.9490;
1356.9000;0.0781;-0.9445;
1357.2000;0.0757;-0.9558;
1357.5000;0.0724;-0.9603;
1357.8000;0.0724;-0.9558;
1358.1000;0.0749;-0.9422;
1358.4000;0.0757;-0.9513;
1358.7000;0.0724;-0.9626;
1359.0000;0.0700;-0.9784;
1359.3000;0.0724;-0.9626;
1359.6000;0.0733;-0.9603;
1359.9000;0.0749;-0.9535;
1360.2000;0.0627;-0.9671;
1360.5000;0.0741;-0.9535;
1360.8000;0.0733;-0.9422;
1361.1000;0.0765;-0.9445;
1361.4000;0.0733;-0.9445;
1361.7000;0.0773;-0.9354;
1362.0000;0.0773;-0.9309;
1362.3000;0.0659;-0.9558;
1362.6000;0.0741;-0.9445;
1362.9000;0.0749;-0.9513;
1363.2000;0.0765;-0.9535;
1363.5000;0.0724;-0.9558;
1363.8000;0.0749;-0.9445;
1364.1000;0.0733;-0.9513;
1364.4000;0.0716;-0.9513;
1364.7000;0.0757;-0.9377;
1365.0000;0.0700;-0.9467;
1365.3000;0.0733;-0.9263;
1365.6000;0.0708;-0.9354;
1365.9000;0.0765;-0.9263;
1366.2000;0.0741;-0.9286;
1366.5000;0.0749;-0.9263;
1366.8000;0.0741;-0.9286;
1367.1000;0.0684;-0.9467;
1367.4000;0.0724;-0.9399;
1367.7000;0.0733;-0.9422;
1368.0000;0.0798;-0.9354;
1368.3000;0.0741;-0.9490;
1368.6000;0.0749;-0.9490;
1368.9000;0.0773;-0.9422;
1369.2000;0.0724;-0.9581;
1369.5000;0.0733;-0.9581;
1369.8000;0.0757;-0.9535;
1370.1000;0.0757;-0.9626;
1370.4000;0.0733;-0.9603;
1370.7000;0.0749;-0.9513;
1371.0000;0.0757;-0.9490;
1371.3000;0.0708;-0.9490;
1371.6000;0.0716;-0.9513;
1371.9000;0.0757;-0.9490;
1372.2000;0.0733;-0.9535;
1372.5000;0.0773;-0.9490;
1372.8000;0.0716;-0.9581;
1373.1000;0.0773;-0.9422;
1373.4000;0.0781;-0.9354;
1373.7000;0.0741;-0.9354;
1374.0000;0.0749;-0.9286;
1374.3000;0.0757;-0.9196;
1374.6000;0.0757;-0.9309;
1374.9000;0.0741;-0.9377;
1375.2000;0.0765;-0.9309;
1375.5000;0.0724;-0.9422;
1375.8000;0.0798;-0.9309;
1376.1000;0.0749;-0.9422;
1376.4000;0.0716;-0.9513;
1376.7000;0.0724;-0.9535;
1377.0000;0.0724;-0.9581;
1377.3000;0.0773;-0.9354;
1377.6000;0.0757;-0.9354;
1377.9000;0.0749;-0.9309;
1378.2000;0.0724;-0.9354;
1378.5000;0.0749;-0.9309;
1378.8000;0.0765;-0.9377;
1379.1000;0.0749;-0.9490;
1379.4000;0.0733;-0.9513;
1379.7000;0.0757;-0.9513;
1380.0000;0.0765;-0.9535;
1380.3000;0.0749;-0.9581;
1380.6000;0.0733;-0.9694;
1380.9000;0.0733;-0.9716;
1381.2000;0.0757;-0.9671;
1381.5000;0.0822;-0.9467;
1381.8000;0.0724;-0.9671;
1382.1000;0.0741;-0.9626;
1382.4000;0.0741;-0.9649;
1382.7000;0.0781;-0.9558;
1383.0000;0.0741;-0.9671;
1383.3000;0.0716;-0.9671;
1383.6000;0.0733;-0.9716;
1383.9000;0.0741;-0.9694;
1384.2000;0.0554;-1.0169;
1384.5000;0.0749;-0.9739;
1384.8000;0.0773;-0.9784;
1385.1000;0.0741;-0.9762;
1385.4000;0.0733;-0.9716;
1385.7000;0.0733;-0.9716;
1386.0000;0.0724;-0.9694;
1386.3000;0.0749;-0.9581;
1386.6000;0.0757;-0.9671;
1386.9000;0.0724;-0.9716;
1387.2000;0.0741;-0.9694;
1387.5000;0.0733;-0.9807;
1387.8000;0.0708;-0.9875;
1388.1000;0.0741;-0.9671;
1388.4000;0.0724;-0.9603;
1388.7000;0.0757;-0.9513;
1389.0000;0.0741;-0.9603;
1389.3000;0.0757;-0.9603;
1389.6000;0.0757;-0.9581;
1389.9000;0.0708;-0.9671;
1390.2000;0.0741;-0.9581;
1390.5000;0.0765;-0.9513;
1390.8000;0.0733;-0.9513;
1391.1000;0.0847;-0.9150;
1391.4000;0.0733;-0.9558;
1391.7000;0.0741;-0.9603;
1392.0000;0.0733;-0.9694;
1392.3000;0.0749;-0.9649;
1392.6000;0.0757;-0.9581;
1392.9000;0.0749;-0.9626;
1393.2000;0.0684;-0.9739;
1393.5000;0.0749;-0.9603;
1393.8000;0.0733;-0.9603;
1394.1000;0.0749;-0.9513;
1394.4000;0.0749;-0.9467;
1394.7000;0.0749;-0.9490;
1395.0000;0.0741;-0.9467;
1395.3000;0.0749;-0.9467;
1395.6000;0.0741;-0.9535;
1395.9000;0.0724;-0.9603;
1396.2000;0.0749;-0.9581;
1396.5000;0.0741;-0.9558;
1396.8000;0.0733;-0.9513;
1397.1000;0.0716;-0.9603;
1397.4000;0.0749;-0.9558;
1397.7000;0.0724;-0.9694;
1398.0000;0.0741;-0.9649;
1398.3000;0.0741;-0.9649;
1398.6000;0.0724;-0.9626;
1398.9000;0.0757;-0.9535;
1399.2000;0.0749;-0.9558;
1399.5000;0.0724;-0.9581;
1399.8000;0.0749;-0.9603;
