time/ms;Fluo/V;P700 deltaI/I x10³;
-199.8000;0.0724;-0.9616;
-199.5000;0.0879;-0.9141;
-199.2000;0.0879;-0.9186;
-198.9000;0.0822;-0.9367;
-198.6000;0.0912;-0.9141;
-198.3000;0.0798;-0.9299;
-198.0000;0.0855;-0.9163;
-197.7000;0.0879;-0.9141;
-197.4000;0.0879;-0.9208;
-197.1000;0.0879;-0.9095;
-196.8000;0.0847;-0.9231;
-196.5000;0.0863;-0.9163;
-196.2000;0.0871;-0.9118;
-195.9000;0.0830;-0.9276;
-195.6000;0.0871;-0.9276;
-195.3000;0.0863;-0.9254;
-195.0000;0.0798;-0.9367;
-194.7000;0.0879;-0.9186;
-194.4000;0.0863;-0.9118;
-194.1000;0.0904;-0.9095;
-193.8000;0.0871;-0.9186;
-193.5000;0.0895;-0.9231;
-193.2000;0.0855;-0.9231;
-192.9000;0.0895;-0.9141;
-192.6000;0.0847;-0.9186;
-192.3000;0.0879;-0.9163;
-192.0000;0.0887;-0.9141;
-191.7000;0.0912;-0.9050;
-191.4000;0.0855;-0.9163;
-191.1000;0.0863;-0.9050;
-190.8000;0.0895;-0.8982;
-190.5000;0.0887;-0.9095;
-190.2000;0.0871;-0.9027;
-189.9000;0.0871;-0.8982;
-189.6000;0.0920;-0.8937;
-189.3000;0.0871;-0.9027;
-189.0000;0.0863;-0.9073;
-188.7000;0.0863;-0.9141;
-188.4000;0.0790;-0.9299;
-188.1000;0.0871;-0.9118;
-187.8000;0.0855;-0.9141;
-187.5000;0.0863;-0.9095;
-187.2000;0.0871;-0.9095;
-186.9000;0.0822;-0.9299;
-186.6000;0.0765;-0.9525;
-186.3000;0.0855;-0.9276;
-186.0000;0.0855;-0.9254;
-185.7000;0.0920;-0.9050;
-185.4000;0.0895;-0.9118;
-185.1000;0.0887;-0.9208;
-184.8000;0.0887;-0.9254;
-184.5000;0.0887;-0.9118;
-184.2000;0.0879;-0.9118;
-183.9000;0.0806;-0.9299;
-183.6000;0.0887;-0.9141;
-183.3000;0.0895;-0.9163;
-183.0000;0.0855;-0.9344;
-182.7000;0.0830;-0.9435;
-182.4000;0.0871;-0.9344;
-182.1000;0.0879;-0.9299;
-181.8000;0.0847;-0.9322;
-181.5000;0.0879;-0.9344;
-181.2000;0.0871;-0.9299;
-180.9000;0.0863;-0.9276;
-180.6000;0.0838;-0.9322;
-180.3000;0.0887;-0.9231;
-180.0000;0.0830;-0.9344;
-179.7000;0.0847;-0.9186;
-179.4000;0.0879;-0.9118;
-179.1000;0.0863;-0.9186;
-178.8000;0.0863;-0.9208;
-178.5000;0.0871;-0.9186;
-178.2000;0.0912;-0.9095;
-177.9000;0.0871;-0.9141;
-177.6000;0.0838;-0.9231;
-177.3000;0.0855;-0.9254;
-177.0000;0.0895;-0.9231;
-176.7000;0.0912;-0.9163;
-176.4000;0.0855;-0.9344;
-176.1000;0.0863;-0.9276;
-175.8000;0.0757;-0.9593;
-175.5000;0.0871;-0.9208;
-175.2000;0.0855;-0.9186;
-174.9000;0.0871;-0.9163;
-174.6000;0.0855;-0.9276;
-174.3000;0.0863;-0.9231;
-174.0000;0.0855;-0.9254;
-173.7000;0.0863;-0.9186;
-173.4000;0.0855;-0.9141;
-173.1000;0.0887;-0.9141;
-172.8000;0.0871;-0.9254;
-172.5000;0.0855;-0.9276;
-172.2000;0.0879;-0.9254;
-171.9000;0.0904;-0.9163;
-171.6000;0.0855;-0.9231;
-171.3000;0.0838;-0.9299;
-171.0000;0.0830;-0.9389;
-170.7000;0.0724;-0.9638;
-170.4000;0.0847;-0.9276;
-170.1000;0.0887;-0.9254;
-169.8000;0.0879;-0.9254;
-169.5000;0.0879;-0.9276;
-169.2000;0.0879;-0.9299;
-168.9000;0.0871;-0.9389;
-168.6000;0.0871;-0.9367;
-168.3000;0.0863;-0.9570;
-168.0000;0.0928;-0.9435;
-167.7000;0.0814;-0.9706;
-167.4000;0.0863;-0.9548;
-167.1000;0.0871;-0.9367;
-166.8000;0.0887;-0.9254;
-166.5000;0.0830;-0.9367;
-166.2000;0.0847;-0.9254;
-165.9000;0.0887;-0.9208;
-165.6000;0.0871;-0.9322;
-165.3000;0.0863;-0.9367;
-165.0000;0.0855;-0.9276;
-164.7000;0.0887;-0.9208;
-164.4000;0.0895;-0.9208;
-164.1000;0.0887;-0.9163;
-163.8000;0.0887;-0.9095;
-163.5000;0.0863;-0.9208;
-163.2000;0.0855;-0.9254;
-162.9000;0.0887;-0.9186;
-162.6000;0.0887;-0.9254;
-162.3000;0.0871;-0.9186;
-162.0000;0.0781;-0.9412;
-161.7000;0.0863;-0.9208;
-161.4000;0.0863;-0.9231;
-161.1000;0.0855;-0.9344;
-160.8000;0.0863;-0.9254;
-160.5000;0.0863;-0.9186;
-160.2000;0.0863;-0.9254;
-159.9000;0.0855;-0.9231;
-159.6000;0.0863;-0.9208;
-159.3000;0.0863;-0.9231;
-159.0000;0.0871;-0.9276;
-158.7000;0.0863;-0.9231;
-158.4000;0.0855;-0.9389;
-158.1000;0.0879;-0.9389;
-157.8000;0.0855;-0.9525;
-157.5000;0.0895;-0.9344;
-157.2000;0.0871;-0.9344;
-156.9000;0.0863;-0.9344;
-156.6000;0.0871;-0.9389;
-156.3000;0.0863;-0.9412;
-156.0000;0.0871;-0.9435;
-155.7000;0.0863;-0.9435;
-155.4000;0.0879;-0.9389;
-155.1000;0.0871;-0.9457;
-154.8000;0.0871;-0.9480;
-154.5000;0.0871;-0.9525;
-154.2000;0.0887;-0.9570;
-153.9000;0.0855;-0.9593;
-153.6000;0.0871;-0.9548;
-153.3000;0.0879;-0.9548;
-153.0000;0.0895;-0.9503;
-152.7000;0.0790;-0.9751;
-152.4000;0.0871;-0.9525;
-152.1000;0.0781;-0.9774;
-151.8000;0.0985;-0.9254;
-151.5000;0.0887;-0.9435;
-151.2000;0.0855;-0.9435;
-150.9000;0.0855;-0.9367;
-150.6000;0.0879;-0.9322;
-150.3000;0.0887;-0.9254;
-150.0000;0.0879;-0.9344;
-149.7000;0.0863;-0.9389;
-149.4000;0.0863;-0.9344;
-149.1000;0.0871;-0.9322;
-148.8000;0.0855;-0.9389;
-148.5000;0.0855;-0.9322;
-148.2000;0.0838;-0.9412;
-147.9000;0.0879;-0.9367;
-147.6000;0.0863;-0.9389;
-147.3000;0.0798;-0.9548;
-147.0000;0.0863;-0.9389;
-146.7000;0.0830;-0.9457;
-146.4000;0.0863;-0.9344;
-146.1000;0.0863;-0.9389;
-145.8000;0.0863;-0.9503;
-145.5000;0.0790;-0.9706;
-145.2000;0.0887;-0.9389;
-144.9000;0.0871;-0.9322;
-144.6000;0.0863;-0.9299;
-144.3000;0.0863;-0.9344;
-144.0000;0.0863;-0.9344;
-143.7000;0.0871;-0.9299;
-143.4000;0.0863;-0.9322;
-143.1000;0.0871;-0.9367;
-142.8000;0.0871;-0.9299;
-142.5000;0.0887;-0.9254;
-142.2000;0.0863;-0.9344;
-141.9000;0.0871;-0.9299;
-141.6000;0.0904;-0.9163;
-141.3000;0.0863;-0.9231;
-141.0000;0.0887;-0.9141;
-140.7000;0.0847;-0.9276;
-140.4000;0.0887;-0.9254;
-140.1000;0.0863;-0.9299;
-139.8000;0.0847;-0.9344;
-139.5000;0.0895;-0.9254;
-139.2000;0.0871;-0.9367;
-138.9000;0.0733;-0.9729;
-138.6000;0.0912;-0.9231;
-138.3000;0.0871;-0.9389;
-138.0000;0.0830;-0.9457;
-137.7000;0.0798;-0.9525;
-137.4000;0.0798;-0.9525;
-137.1000;0.0855;-0.9389;
-136.8000;0.0838;-0.9367;
-136.5000;0.0871;-0.9186;
-136.2000;0.0855;-0.9254;
-135.9000;0.0855;-0.9322;
-135.6000;0.0863;-0.9322;
-135.3000;0.0863;-0.9322;
-135.0000;0.0895;-0.9186;
-134.7000;0.0879;-0.9186;
-134.4000;0.0871;-0.9118;
-134.1000;0.0879;-0.9118;
-133.8000;0.0863;-0.9163;
-133.5000;0.0855;-0.9208;
-133.2000;0.0863;-0.9208;
-132.9000;0.0871;-0.9141;
-132.6000;0.0895;-0.9141;
-132.3000;0.0863;-0.9208;
-132.0000;0.0863;-0.9231;
-131.7000;0.0871;-0.9276;
-131.4000;0.0863;-0.9231;
-131.1000;0.0798;-0.9389;
-130.8000;0.0847;-0.9322;
-130.5000;0.0871;-0.9389;
-130.2000;0.0871;-0.9412;
-129.9000;0.0871;-0.9367;
-129.6000;0.0863;-0.9412;
-129.3000;0.0871;-0.9389;
-129.0000;0.0879;-0.9412;
-128.7000;0.0724;-0.9842;
-128.4000;0.0871;-0.9525;
-128.1000;0.0847;-0.9503;
-127.8000;0.0798;-0.9684;
-127.5000;0.0863;-0.9548;
-127.2000;0.0863;-0.9480;
-126.9000;0.0733;-0.9797;
-126.6000;0.0863;-0.9503;
-126.3000;0.0830;-0.9616;
-126.0000;0.0879;-0.9457;
-125.7000;0.0855;-0.9435;
-125.4000;0.0871;-0.9367;
-125.1000;0.0887;-0.9322;
-124.8000;0.0887;-0.9367;
-124.5000;0.0895;-0.9389;
-124.2000;0.0879;-0.9435;
-123.9000;0.0887;-0.9412;
-123.6000;0.0814;-0.9570;
-123.3000;0.0863;-0.9480;
-123.0000;0.0887;-0.9344;
-122.7000;0.0928;-0.9254;
-122.4000;0.0895;-0.9367;
-122.1000;0.0952;-0.9186;
-121.8000;0.0887;-0.9503;
-121.5000;0.0871;-0.9525;
-121.2000;0.0871;-0.9480;
-120.9000;0.0855;-0.9480;
-120.6000;0.0871;-0.9503;
-120.3000;0.0961;-0.9367;
-120.0000;0.0871;-0.9593;
-119.7000;0.0847;-0.9593;
-119.4000;0.0855;-0.9503;
-119.1000;0.0855;-0.9457;
-118.8000;0.0863;-0.9503;
-118.5000;0.0863;-0.9503;
-118.2000;0.0855;-0.9457;
-117.9000;0.0887;-0.9389;
-117.6000;0.0871;-0.9389;
-117.3000;0.0879;-0.9389;
-117.0000;0.0887;-0.9344;
-116.7000;0.0847;-0.9412;
-116.4000;0.0855;-0.9435;
-116.1000;0.0879;-0.9389;
-115.8000;0.0871;-0.9457;
-115.5000;0.0838;-0.9570;
-115.2000;0.0887;-0.9435;
-114.9000;0.0871;-0.9435;
-114.6000;0.0863;-0.9412;
-114.3000;0.0879;-0.9457;
-114.0000;0.0879;-0.9480;
-113.7000;0.0895;-0.9457;
-113.4000;0.0871;-0.9525;
-113.1000;0.0912;-0.9503;
-112.8000;0.0847;-0.9638;
-112.5000;0.0944;-0.9457;
-112.2000;0.0871;-0.9774;
-111.9000;0.0741;-1.0023;
-111.6000;0.0871;-0.9593;
-111.3000;0.0855;-0.9525;
-111.0000;0.0887;-0.9435;
-110.7000;0.1001;-0.9095;
-110.4000;0.0741;-0.9797;
-110.1000;0.0830;-0.9457;
-109.8000;0.0887;-0.9389;
-109.5000;0.0847;-0.9525;
-109.2000;0.0863;-0.9525;
-108.9000;0.0838;-0.9525;
-108.6000;0.0855;-0.9435;
-108.3000;0.0887;-0.9344;
-108.0000;0.0887;-0.9367;
-107.7000;0.0904;-0.9412;
-107.4000;0.0863;-0.9525;
-107.1000;0.0847;-0.9593;
-106.8000;0.0871;-0.9593;
-106.5000;0.0887;-0.9525;
-106.2000;0.0830;-0.9638;
-105.9000;0.0863;-0.9570;
-105.6000;0.0822;-0.9616;
-105.3000;0.0871;-0.9412;
-105.0000;0.0724;-0.9661;
-104.7000;0.0895;-0.9254;
-104.4000;0.0871;-0.9299;
-104.1000;0.0879;-0.9367;
-103.8000;0.0920;-0.9254;
-103.5000;0.0895;-0.9344;
-103.2000;0.0879;-0.9412;
-102.9000;0.1009;-0.8960;
-102.6000;0.0798;-0.9457;
-102.3000;0.0855;-0.9367;
-102.0000;0.0895;-0.9276;
-101.7000;0.0863;-0.9389;
-101.4000;0.0871;-0.9412;
-101.1000;0.0871;-0.9435;
-100.8000;0.0895;-0.9457;
-100.5000;0.0855;-0.9616;
-100.2000;0.0920;-0.9503;
-99.9000;0.0863;-0.9548;
-99.6000;0.0855;-0.9570;
-99.3000;0.0863;-0.9548;
-99.0000;0.0863;-0.9570;
-98.7000;0.0847;-0.9548;
-98.4000;0.0879;-0.9389;
-98.1000;0.0904;-0.9254;
-97.8000;0.0879;-0.9276;
-97.5000;0.0806;-0.9435;
-97.2000;0.0879;-0.9276;
-96.9000;0.0912;-0.9254;
-96.6000;0.0863;-0.9389;
-96.3000;0.0904;-0.9389;
-96.0000;0.0863;-0.9322;
-95.7000;0.0879;-0.9276;
-95.4000;0.0863;-0.9344;
-95.1000;0.0879;-0.9367;
-94.8000;0.0855;-0.9412;
-94.5000;0.0961;-0.9095;
-94.2000;0.0830;-0.9367;
-93.9000;0.0847;-0.9254;
-93.6000;0.0863;-0.9208;
-93.3000;0.0871;-0.9254;
-93.0000;0.0904;-0.9208;
-92.7000;0.0863;-0.9322;
-92.4000;0.0904;-0.9299;
-92.1000;0.0830;-0.9480;
-91.8000;0.0912;-0.9322;
-91.5000;0.0855;-0.9344;
-91.2000;0.0904;-0.9163;
-90.9000;0.0871;-0.9254;
-90.6000;0.0879;-0.9231;
-90.3000;0.0871;-0.9299;
-90.0000;0.0847;-0.9412;
-89.7000;0.0871;-0.9389;
-89.4000;0.0879;-0.9344;
-89.1000;0.0855;-0.9276;
-88.8000;0.0863;-0.9186;
-88.5000;0.0871;-0.9163;
-88.2000;0.0871;-0.9073;
-87.9000;0.0895;-0.9050;
-87.6000;0.0838;-0.9186;
-87.3000;0.0847;-0.9163;
-87.0000;0.0863;-0.9208;
-86.7000;0.0879;-0.9254;
-86.4000;0.0863;-0.9299;
-86.1000;0.0871;-0.9344;
-85.8000;0.0838;-0.9435;
-85.5000;0.0887;-0.9322;
-85.2000;0.0871;-0.9480;
-84.9000;0.0863;-0.9389;
-84.6000;0.0871;-0.9322;
-84.3000;0.0871;-0.9208;
-84.0000;0.0879;-0.9141;
-83.7000;0.0863;-0.9186;
-83.4000;0.0871;-0.9322;
-83.1000;0.0871;-0.9299;
-82.8000;0.0904;-0.9299;
-82.5000;0.0855;-0.9322;
-82.2000;0.0879;-0.9208;
-81.9000;0.0920;-0.9095;
-81.6000;0.0855;-0.9254;
-81.3000;0.0773;-0.9570;
-81.0000;0.0692;-0.9729;
-80.7000;0.0944;-0.9186;
-80.4000;0.0879;-0.9389;
-80.1000;0.0871;-0.9412;
-79.8000;0.0887;-0.9435;
-79.5000;0.0855;-0.9435;
-79.2000;0.0952;-0.9186;
-78.9000;0.0863;-0.9435;
-78.6000;0.0855;-0.9457;
-78.3000;0.0879;-0.9367;
-78.0000;0.0920;-0.9276;
-77.7000;0.0871;-0.9322;
-77.4000;0.0879;-0.9344;
-77.1000;0.0847;-0.9344;
-76.8000;0.0879;-0.9186;
-76.5000;0.0855;-0.9163;
-76.2000;0.0863;-0.9186;
-75.9000;0.0855;-0.9141;
-75.6000;0.0895;-0.9005;
-75.3000;0.0863;-0.9118;
-75.0000;0.0961;-0.8982;
-74.7000;0.0904;-0.9050;
-74.4000;0.0863;-0.9186;
-74.1000;0.0806;-0.9367;
-73.8000;0.0871;-0.9254;
-73.5000;0.0847;-0.9480;
-73.2000;0.0879;-0.9412;
-72.9000;0.0895;-0.9322;
-72.6000;0.0871;-0.9389;
-72.3000;0.0863;-0.9435;
-72.0000;0.0830;-0.9480;
-71.7000;0.0855;-0.9322;
-71.4000;0.0838;-0.9344;
-71.1000;0.0798;-0.9503;
-70.8000;0.0879;-0.9299;
-70.5000;0.0863;-0.9322;
-70.2000;0.0855;-0.9389;
-69.9000;0.0847;-0.9389;
-69.6000;0.0855;-0.9389;
-69.3000;0.0887;-0.9299;
-69.0000;0.0871;-0.9367;
-68.7000;0.0871;-0.9322;
-68.4000;0.0847;-0.9389;
-68.1000;0.0936;-0.9208;
-67.8000;0.0830;-0.9435;
-67.5000;0.0847;-0.9367;
-67.2000;0.0879;-0.9254;
-66.9000;0.0863;-0.9231;
-66.6000;0.0855;-0.9141;
-66.3000;0.0863;-0.9050;
-66.0000;0.0904;-0.8937;
-65.7000;0.0863;-0.9050;
-65.4000;0.0920;-0.8892;
-65.1000;0.0904;-0.8937;
-64.8000;0.0895;-0.8937;
-64.5000;0.0879;-0.8937;
-64.2000;0.0871;-0.8892;
-63.9000;0.0871;-0.8982;
-63.6000;0.0887;-0.8982;
-63.3000;0.0855;-0.9095;
-63.0000;0.0847;-0.9118;
-62.7000;0.0733;-0.9367;
-62.4000;0.0863;-0.9073;
-62.1000;0.0871;-0.9073;
-61.8000;0.0863;-0.9186;
-61.5000;0.0830;-0.9186;
-61.2000;0.0863;-0.9118;
-60.9000;0.0871;-0.9118;
-60.6000;0.0830;-0.9254;
-60.3000;0.0887;-0.9095;
-60.0000;0.0879;-0.9186;
-59.7000;0.0855;-0.9208;
-59.4000;0.0863;-0.9163;
-59.1000;0.0871;-0.9050;
-58.8000;0.0871;-0.9027;
-58.5000;0.0847;-0.9141;
-58.2000;0.0830;-0.9141;
-57.9000;0.0855;-0.9050;
-57.6000;0.0904;-0.9005;
-57.3000;0.0863;-0.9095;
-57.0000;0.0838;-0.9186;
-56.7000;0.0879;-0.9186;
-56.4000;0.0838;-0.9299;
-56.1000;0.0773;-0.9548;
-55.8000;0.0879;-0.9299;
-55.5000;0.0863;-0.9322;
-55.2000;0.0895;-0.9231;
-54.9000;0.0879;-0.9208;
-54.6000;0.0838;-0.9322;
-54.3000;0.0871;-0.9276;
-54.0000;0.0847;-0.9344;
-53.7000;0.0863;-0.9344;
-53.4000;0.0838;-0.9503;
-53.1000;0.0847;-0.9457;
-52.8000;0.0887;-0.9299;
-52.5000;0.0944;-0.9163;
-52.2000;0.0847;-0.9322;
-51.9000;0.0855;-0.9299;
-51.6000;0.0871;-0.9163;
-51.3000;0.0871;-0.9141;
-51.0000;0.0879;-0.9141;
-50.7000;0.0904;-0.9141;
-50.4000;0.0855;-0.9208;
-50.1000;0.0838;-0.9231;
-49.8000;0.0912;-0.9050;
-49.5000;0.0871;-0.9118;
-49.2000;0.0879;-0.9027;
-48.9000;0.0887;-0.9050;
-48.6000;0.0871;-0.9163;
-48.3000;0.0863;-0.9163;
-48.0000;0.0806;-0.9141;
-47.7000;0.0887;-0.8982;
-47.4000;0.0871;-0.9027;
-47.1000;0.0895;-0.9050;
-46.8000;0.0847;-0.9208;
-46.5000;0.0830;-0.9299;
-46.2000;0.0879;-0.9254;
-45.9000;0.0871;-0.9254;
-45.6000;0.0814;-0.9435;
-45.3000;0.0855;-0.9299;
-45.0000;0.0863;-0.9276;
-44.7000;0.0887;-0.9231;
-44.4000;0.0871;-0.9344;
-44.1000;0.0863;-0.9412;
-43.8000;0.0952;-0.9163;
-43.5000;0.0765;-0.9729;
-43.2000;0.0863;-0.9457;
-42.9000;0.0830;-0.9457;
-42.6000;0.0879;-0.9299;
-42.3000;0.0879;-0.9299;
-42.0000;0.0749;-0.9525;
-41.7000;0.0806;-0.9367;
-41.4000;0.0879;-0.9254;
-41.1000;0.0871;-0.9299;
-40.8000;0.0855;-0.9208;
-40.5000;0.0863;-0.9208;
-40.2000;0.0879;-0.9208;
-39.9000;0.0855;-0.9276;
-39.6000;0.0855;-0.9344;
-39.3000;0.0863;-0.9389;
-39.0000;0.0855;-0.9367;
-38.7000;0.0863;-0.9412;
-38.4000;0.0863;-0.9322;
-38.1000;0.0871;-0.9412;
-37.8000;0.0806;-0.9593;
-37.5000;0.0855;-0.9457;
-37.2000;0.0887;-0.9322;
-36.9000;0.0855;-0.9322;
-36.6000;0.0944;-0.9141;
-36.3000;0.0863;-0.9322;
-36.0000;0.0895;-0.9208;
-35.7000;0.0879;-0.9118;
-35.4000;0.0871;-0.9141;
-35.1000;0.0944;-0.8982;
-34.8000;0.0879;-0.9027;
-34.5000;0.0887;-0.9005;
-34.2000;0.0855;-0.9027;
-33.9000;0.0887;-0.8960;
-33.6000;0.0895;-0.8982;
-33.3000;0.0871;-0.9095;
-33.0000;0.0879;-0.9027;
-32.7000;0.0912;-0.8982;
-32.4000;0.0855;-0.9163;
-32.1000;0.0887;-0.9141;
-31.8000;0.0887;-0.9141;
-31.5000;0.0863;-0.9163;
-31.2000;0.0879;-0.9118;
-30.9000;0.0871;-0.9163;
-30.6000;0.0773;-0.9412;
-30.3000;0.0871;-0.9208;
-30.0000;0.0863;-0.9186;
-29.7000;0.0871;-0.9208;
-29.4000;0.0855;-0.9276;
-29.1000;0.0871;-0.9231;
-28.8000;0.0895;-0.9254;
-28.5000;0.0765;-0.9525;
-28.2000;0.0871;-0.9231;
-27.9000;0.0871;-0.9231;
-27.6000;0.0781;-0.9525;
-27.3000;0.0871;-0.9322;
-27.0000;0.0887;-0.9208;
-26.7000;0.0855;-0.9208;
-26.4000;0.0871;-0.9231;
-26.1000;0.0871;-0.9231;
-25.8000;0.0879;-0.9231;
-25.5000;0.0838;-0.9344;
-25.2000;0.0895;-0.9208;
-24.9000;0.0895;-0.9231;
-24.6000;0.0863;-0.9208;
-24.3000;0.0863;-0.9231;
-24.0000;0.0855;-0.9231;
-23.7000;0.0822;-0.9254;
-23.4000;0.0879;-0.9186;
-23.1000;0.0830;-0.9231;
-22.8000;0.0847;-0.9254;
-22.5000;0.0863;-0.9208;
-22.2000;0.0830;-0.9367;
-21.9000;0.0863;-0.9322;
-21.6000;0.0863;-0.9208;
-21.3000;0.0871;-0.9208;
-21.0000;0.0863;-0.9231;
-20.7000;0.0879;-0.9163;
-20.4000;0.0863;-0.9118;
-20.1000;0.0871;-0.9095;
-19.8000;0.0879;-0.9118;
-19.5000;0.0871;-0.9118;
-19.2000;0.0871;-0.9231;
-18.9000;0.0871;-0.9186;
-18.6000;0.0904;-0.9073;
-18.3000;0.0871;-0.9231;
-18.0000;0.0871;-0.9322;
-17.7000;0.0847;-0.9276;
-17.4000;0.0855;-0.9231;
-17.1000;0.0871;-0.9276;
-16.8000;0.0838;-0.9344;
-16.5000;0.0830;-0.9299;
-16.2000;0.0863;-0.9186;
-15.9000;0.0863;-0.9095;
-15.6000;0.0871;-0.8937;
-15.3000;0.0855;-0.9005;
-15.0000;0.0969;-0.8779;
-14.7000;0.0847;-0.9163;
-14.4000;0.0879;-0.9208;
-14.1000;0.0871;-0.9322;
-13.8000;0.0847;-0.9322;
-13.5000;0.0887;-0.9367;
-13.2000;0.0871;-0.9344;
-12.9000;0.0871;-0.9344;
-12.6000;0.0847;-0.9435;
-12.3000;0.0855;-0.9389;
-12.0000;0.0847;-0.9254;
-11.7000;0.0920;-0.9073;
-11.4000;0.0847;-0.9276;
-11.1000;0.0871;-0.9299;
-10.8000;0.0863;-0.9276;
-10.5000;0.0879;-0.9276;
-10.2000;0.0822;-0.9412;
-9.9000;0.0871;-0.9254;
-9.6000;0.0806;-0.9322;
-9.3000;0.0879;-0.9254;
-9.0000;0.0806;-0.9322;
-8.7000;0.0855;-0.9186;
-8.4000;0.0863;-0.9141;
-8.1000;0.0863;-0.9276;
-7.8000;0.0871;-0.9254;
-7.5000;0.0863;-0.9322;
-7.2000;0.0855;-0.9276;
-6.9000;0.0879;-0.9254;
-6.6000;0.0871;-0.9299;
-6.3000;0.0887;-0.9231;
-6.0000;0.0790;-0.9412;
-5.7000;0.0863;-0.9231;
-5.4000;0.0847;-0.9208;
-5.1000;0.0895;-0.9118;
-4.8000;0.0871;-0.9208;
-4.5000;0.0887;-0.9163;
-4.2000;0.0879;-0.9208;
-3.9000;0.0838;-0.9299;
-3.6000;0.0781;-0.9480;
-3.3000;0.0863;-0.9254;
-3.0000;0.0871;-0.9254;
-2.7000;0.0871;-0.9322;
-2.4000;0.0863;-0.9412;
-2.1000;0.0969;-0.9208;
-1.8000;0.0838;-0.9503;
-1.5000;0.0871;-0.9435;
-1.2000;0.0887;-0.9389;
-0.9000;0.0855;-0.9457;
-0.6000;0.0838;-0.9389;
-0.3000;0.0855;-0.9299;
0.0000;0.0855;-0.9299;
0.3000;0.0838;-0.9797;
0.6000;0.0871;-0.9525;
0.9000;0.0904;-0.9322;
1.2000;0.0895;-0.9163;
1.5000;0.0871;-0.9095;
1.8000;0.0879;-0.9027;
2.1000;0.0895;-0.8914;
2.4000;0.0879;-0.8892;
2.7000;0.0887;-0.8892;
3.0000;0.0887;-0.8779;
3.3000;0.0887;-0.8688;
3.6000;0.0895;-0.8665;
3.9000;0.0887;-0.8598;
4.2000;0.0920;-0.8552;
4.5000;0.0798;-0.8733;
4.8000;0.0887;-0.8462;
5.1000;0.0847;-0.8394;
5.4000;0.0904;-0.8303;
5.7000;0.0895;-0.8303;
6.0000;0.0806;-0.8484;
6.3000;0.0871;-0.8371;
6.6000;0.0887;-0.8281;
6.9000;0.0895;-0.8258;
7.2000;0.0895;-0.8281;
7.5000;0.0904;-0.8236;
7.8000;0.0887;-0.8213;
8.1000;0.0879;-0.8281;
8.4000;0.0920;-0.8258;
8.7000;0.0895;-0.8281;
9.0000;0.0952;-0.8145;
9.3000;0.0912;-0.8281;
9.6000;0.0887;-0.8326;
9.9000;0.0936;-0.8281;
10.2000;0.0936;-0.8258;
10.5000;0.0904;-0.8303;
10.8000;0.0879;-0.8326;
11.1000;0.0863;-0.8349;
11.4000;0.0936;-0.8145;
11.7000;0.0912;-0.8371;
12.0000;0.0944;-0.8326;
12.3000;0.0855;-0.8507;
12.6000;0.0912;-0.8371;
12.9000;0.0814;-0.8598;
13.2000;0.0887;-0.8394;
13.5000;0.0871;-0.8417;
13.8000;0.0904;-0.8349;
14.1000;0.0928;-0.8258;
14.4000;0.0895;-0.8303;
14.7000;0.0912;-0.8281;
15.0000;0.0920;-0.8281;
15.3000;0.0944;-0.8213;
15.6000;0.0912;-0.8258;
15.9000;0.0830;-0.8507;
16.2000;0.0895;-0.8303;
16.5000;0.0904;-0.8303;
16.8000;0.0895;-0.8394;
17.1000;0.0904;-0.8484;
17.4000;0.0912;-0.8371;
17.7000;0.0895;-0.8417;
18.0000;0.0863;-0.8507;
18.3000;0.0822;-0.8484;
18.6000;0.0790;-0.8507;
18.9000;0.0944;-0.8145;
19.2000;0.0887;-0.8213;
19.5000;0.0895;-0.8145;
19.8000;0.0904;-0.8281;
20.1000;0.0961;-0.8100;
20.4000;0.0912;-0.8281;
20.7000;0.0904;-0.8236;
21.0000;0.0879;-0.8281;
21.3000;0.0961;-0.8077;
21.6000;0.0912;-0.8190;
21.9000;0.0855;-0.8326;
22.2000;0.0912;-0.8190;
22.5000;0.0920;-0.8145;
22.8000;0.0887;-0.8077;
23.1000;0.0863;-0.8100;
23.4000;0.0895;-0.8190;
23.7000;0.0879;-0.8168;
24.0000;0.0863;-0.8213;
24.3000;0.0904;-0.8213;
24.6000;0.0920;-0.8213;
24.9000;0.0920;-0.8326;
25.2000;0.0952;-0.8236;
25.5000;0.0895;-0.8303;
25.8000;0.0920;-0.8236;
26.1000;0.0879;-0.8303;
26.4000;0.0806;-0.8507;
26.7000;0.0920;-0.8213;
27.0000;0.0895;-0.8236;
27.3000;0.0879;-0.8190;
27.6000;0.0912;-0.8055;
27.9000;0.0936;-0.8055;
28.2000;0.0879;-0.8213;
28.5000;0.0912;-0.8122;
28.8000;0.0879;-0.8213;
29.1000;0.0847;-0.8349;
29.4000;0.0830;-0.8394;
29.7000;0.0887;-0.8190;
30.0000;0.0928;-0.8145;
30.3000;0.0912;-0.8100;
30.6000;0.0912;-0.8213;
30.9000;0.0863;-0.8303;
31.2000;0.0920;-0.8145;
31.5000;0.0920;-0.8145;
31.8000;0.0904;-0.8213;
32.1000;0.0912;-0.8213;
32.4000;0.0928;-0.8168;
32.7000;0.0912;-0.8190;
33.0000;0.0871;-0.8303;
33.3000;0.0887;-0.8258;
33.6000;0.0904;-0.8145;
33.9000;0.0904;-0.8168;
34.2000;0.0887;-0.8190;
34.5000;0.0904;-0.8258;
34.8000;0.0895;-0.8258;
35.1000;0.0936;-0.8190;
35.4000;0.0952;-0.8190;
35.7000;0.0895;-0.8281;
36.0000;0.0993;-0.7964;
36.3000;0.0912;-0.8122;
36.6000;0.0920;-0.8100;
36.9000;0.0838;-0.8281;
37.2000;0.1050;-0.7806;
37.5000;0.0855;-0.8213;
37.8000;0.0912;-0.8168;
38.1000;0.0895;-0.8145;
38.4000;0.0895;-0.8190;
38.7000;0.0920;-0.8122;
39.0000;0.0936;-0.8032;
39.3000;0.0904;-0.8077;
39.6000;0.0863;-0.8190;
39.9000;0.0895;-0.8077;
40.2000;0.0920;-0.7987;
40.5000;0.0895;-0.8055;
40.8000;0.0936;-0.7941;
41.1000;0.0904;-0.8145;
41.4000;0.0904;-0.8168;
41.7000;0.0912;-0.8236;
42.0000;0.0855;-0.8371;
42.3000;0.0936;-0.8190;
42.6000;0.0895;-0.8326;
42.9000;0.0920;-0.8349;
43.2000;0.0871;-0.8507;
43.5000;0.0912;-0.8394;
43.8000;0.0879;-0.8507;
44.1000;0.0912;-0.8462;
44.4000;0.0855;-0.8643;
44.7000;0.0904;-0.8507;
45.0000;0.0912;-0.8439;
45.3000;0.0879;-0.8439;
45.6000;0.0944;-0.8281;
45.9000;0.0806;-0.8688;
46.2000;0.0920;-0.8326;
46.5000;0.0928;-0.8281;
46.8000;0.0920;-0.8281;
47.1000;0.0944;-0.8190;
47.4000;0.0879;-0.8417;
47.7000;0.0904;-0.8303;
48.0000;0.0887;-0.8371;
48.3000;0.0912;-0.8303;
48.6000;0.0855;-0.8462;
48.9000;0.0904;-0.8303;
49.2000;0.0904;-0.8371;
49.5000;0.0944;-0.8281;
49.8000;0.0969;-0.8258;
50.1000;0.0920;-0.8394;
50.4000;0.0912;-0.8326;
50.7000;0.1018;-0.8145;
51.0000;0.0879;-0.8439;
51.3000;0.0895;-0.8349;
51.6000;0.0961;-0.8213;
51.9000;0.0895;-0.8303;
52.2000;0.0773;-0.8598;
52.5000;0.0838;-0.8371;
52.8000;0.0904;-0.8190;
53.1000;0.0928;-0.8100;
53.4000;0.0895;-0.8190;
53.7000;0.0920;-0.8145;
54.0000;0.0920;-0.8077;
54.3000;0.0895;-0.8145;
54.6000;0.0944;-0.8032;
54.9000;0.0920;-0.8145;
55.2000;0.0879;-0.8190;
55.5000;0.0855;-0.8236;
55.8000;0.0887;-0.8236;
56.1000;0.0920;-0.8145;
56.4000;0.0912;-0.8100;
56.7000;0.0904;-0.8190;
57.0000;0.0928;-0.8100;
57.3000;0.0912;-0.8145;
57.6000;0.0895;-0.8236;
57.9000;0.0871;-0.8484;
58.2000;0.1001;-0.8190;
58.5000;0.0863;-0.8484;
58.8000;0.0912;-0.8394;
59.1000;0.0871;-0.8507;
59.4000;0.0895;-0.8417;
59.7000;0.0936;-0.8281;
60.0000;0.0969;-0.8168;
60.3000;0.0944;-0.8213;
60.6000;0.0879;-0.8439;
60.9000;0.0920;-0.8371;
61.2000;0.0838;-0.8575;
61.5000;0.0904;-0.8439;
61.8000;0.0904;-0.8371;
62.1000;0.0936;-0.8258;
62.4000;0.0904;-0.8371;
62.7000;0.0871;-0.8349;
63.0000;0.0904;-0.8303;
63.3000;0.0895;-0.8439;
63.6000;0.0895;-0.8394;
63.9000;0.0855;-0.8462;
64.2000;0.0912;-0.8236;
64.5000;0.0879;-0.8394;
64.8000;0.0838;-0.8575;
65.1000;0.0904;-0.8462;
65.4000;0.0904;-0.8462;
65.7000;0.0887;-0.8552;
66.0000;0.0936;-0.8394;
66.3000;0.0887;-0.8462;
66.6000;0.0904;-0.8281;
66.9000;0.0887;-0.8258;
67.2000;0.0936;-0.8145;
67.5000;0.0895;-0.8190;
67.8000;0.0912;-0.8168;
68.1000;0.0895;-0.8213;
68.4000;0.0904;-0.8168;
68.7000;0.0871;-0.8349;
69.0000;0.0871;-0.8371;
69.3000;0.0814;-0.8620;
69.6000;0.0904;-0.8394;
69.9000;0.0928;-0.8371;
70.2000;0.0912;-0.8349;
70.5000;0.0928;-0.8258;
70.8000;0.0920;-0.8281;
71.1000;0.0855;-0.8394;
71.4000;0.0920;-0.8190;
71.7000;0.0904;-0.8303;
72.0000;0.0912;-0.8236;
72.3000;0.0912;-0.8258;
72.6000;0.0912;-0.8236;
72.9000;0.0928;-0.8100;
73.2000;0.0993;-0.8122;
73.5000;0.0895;-0.8371;
73.8000;0.0912;-0.8281;
74.1000;0.0798;-0.8575;
74.4000;0.0920;-0.8258;
74.7000;0.0912;-0.8236;
75.0000;0.0879;-0.8258;
75.3000;0.0847;-0.8236;
75.6000;0.0985;-0.7851;
75.9000;0.0928;-0.8122;
76.2000;0.0920;-0.8100;
76.5000;0.0904;-0.8145;
76.8000;0.0871;-0.8122;
77.1000;0.0863;-0.8258;
77.4000;0.0920;-0.8145;
77.7000;0.0887;-0.8236;
78.0000;0.0879;-0.8281;
78.3000;0.0952;-0.8145;
78.6000;0.0904;-0.8394;
78.9000;0.0912;-0.8371;
79.2000;0.0904;-0.8394;
79.5000;0.0928;-0.8303;
79.8000;0.0904;-0.8326;
80.1000;0.0920;-0.8281;
80.4000;0.0904;-0.8371;
80.7000;0.0920;-0.8303;
81.0000;0.0944;-0.8236;
81.3000;0.0895;-0.8303;
81.6000;0.0904;-0.8394;
81.9000;0.0895;-0.8417;
82.2000;0.0912;-0.8281;
82.5000;0.0912;-0.8236;
82.8000;0.0887;-0.8258;
83.1000;0.0993;-0.8009;
83.4000;0.0912;-0.8258;
83.7000;0.0895;-0.8303;
84.0000;0.0838;-0.8417;
84.3000;0.0895;-0.8281;
84.6000;0.0928;-0.8281;
84.9000;0.0887;-0.8349;
85.2000;0.0952;-0.8281;
85.5000;0.0887;-0.8439;
85.8000;0.0920;-0.8349;
86.1000;0.0904;-0.8371;
86.4000;0.0912;-0.8349;
86.7000;0.0912;-0.8281;
87.0000;0.0887;-0.8303;
87.3000;0.0928;-0.8168;
87.6000;0.0847;-0.8326;
87.9000;0.0887;-0.8258;
88.2000;0.0928;-0.8236;
88.5000;0.0969;-0.8122;
88.8000;0.0895;-0.8281;
89.1000;0.0887;-0.8303;
89.4000;0.0904;-0.8213;
89.7000;0.0920;-0.8190;
90.0000;0.0904;-0.8281;
90.3000;0.0790;-0.8575;
90.6000;0.0920;-0.8258;
90.9000;0.0920;-0.8326;
91.2000;0.0904;-0.8371;
91.5000;0.0912;-0.8371;
91.8000;0.0912;-0.8394;
92.1000;0.0887;-0.8417;
92.4000;0.0920;-0.8258;
92.7000;0.0895;-0.8349;
93.0000;0.0895;-0.8394;
93.3000;0.0895;-0.8281;
93.6000;0.0887;-0.8168;
93.9000;0.0912;-0.8190;
94.2000;0.0944;-0.8122;
94.5000;0.0879;-0.8281;
94.8000;0.0904;-0.8303;
95.1000;0.0887;-0.8371;
95.4000;0.0879;-0.8417;
95.7000;0.0912;-0.8439;
96.0000;0.0912;-0.8484;
96.3000;0.0961;-0.8439;
96.6000;0.0912;-0.8620;
96.9000;0.0895;-0.8598;
97.2000;0.0887;-0.8575;
97.5000;0.0985;-0.8281;
97.8000;0.0920;-0.8484;
98.1000;0.0912;-0.8439;
98.4000;0.0912;-0.8417;
98.7000;0.0904;-0.8484;
99.0000;0.0920;-0.8462;
99.3000;0.0969;-0.8394;
99.6000;0.0920;-0.8439;
99.9000;0.0920;-0.8394;
100.2000;0.0895;-0.8439;
100.5000;0.0879;-0.8439;
100.8000;0.0912;-0.8281;
101.1000;0.0822;-0.8417;
101.4000;0.0912;-0.8236;
101.7000;0.0887;-0.8303;
102.0000;0.0879;-0.8326;
102.3000;0.0912;-0.8258;
102.6000;0.0895;-0.8349;
102.9000;0.0904;-0.8303;
103.2000;0.0904;-0.8394;
103.5000;0.0904;-0.8394;
103.8000;0.0904;-0.8349;
104.1000;0.0895;-0.8417;
104.4000;0.0904;-0.8326;
104.7000;0.0904;-0.8258;
105.0000;0.0920;-0.8281;
105.3000;0.0895;-0.8236;
105.6000;0.0904;-0.8168;
105.9000;0.0895;-0.8236;
106.2000;0.0895;-0.8303;
106.5000;0.0895;-0.8371;
106.8000;0.0912;-0.8326;
107.1000;0.0895;-0.8303;
107.4000;0.0920;-0.8213;
107.7000;0.0904;-0.8236;
108.0000;0.0879;-0.8349;
108.3000;0.0912;-0.8190;
108.6000;0.0904;-0.8281;
108.9000;0.0912;-0.8213;
109.2000;0.0806;-0.8417;
109.5000;0.0904;-0.8236;
109.8000;0.0920;-0.8258;
110.1000;0.0928;-0.8213;
110.4000;0.0895;-0.8236;
110.7000;0.0814;-0.8484;
111.0000;0.0863;-0.8394;
111.3000;0.0904;-0.8349;
111.6000;0.0904;-0.8326;
111.9000;0.0912;-0.8258;
112.2000;0.0920;-0.8190;
112.5000;0.0814;-0.8507;
112.8000;0.0904;-0.8258;
113.1000;0.0838;-0.8394;
113.4000;0.0904;-0.8258;
113.7000;0.0904;-0.8326;
114.0000;0.0773;-0.8688;
114.3000;0.0920;-0.8394;
114.6000;0.0895;-0.8507;
114.9000;0.0806;-0.8665;
115.2000;0.0871;-0.8417;
115.5000;0.0920;-0.8349;
115.8000;0.0895;-0.8371;
116.1000;0.0920;-0.8326;
116.4000;0.0904;-0.8462;
116.7000;0.0912;-0.8394;
117.0000;0.0920;-0.8394;
117.3000;0.0912;-0.8281;
117.6000;0.0920;-0.8236;
117.9000;0.0904;-0.8190;
118.2000;0.0887;-0.8303;
118.5000;0.0912;-0.8281;
118.8000;0.0912;-0.8349;
119.1000;0.0863;-0.8417;
119.4000;0.0847;-0.8462;
119.7000;0.0904;-0.8281;
120.0000;0.0920;-0.8326;
120.3000;0.0773;-0.8620;
120.6000;0.0790;-0.8552;
120.9000;0.0928;-0.8190;
121.2000;0.0912;-0.8258;
121.5000;0.0969;-0.8168;
121.8000;0.0904;-0.8371;
122.1000;0.0993;-0.8168;
122.4000;0.0920;-0.8371;
122.7000;0.0895;-0.8439;
123.0000;0.0928;-0.8462;
123.3000;0.0871;-0.8507;
123.6000;0.0871;-0.8439;
123.9000;0.0847;-0.8462;
124.2000;0.0871;-0.8349;
124.5000;0.0920;-0.8258;
124.8000;0.0912;-0.8258;
125.1000;0.0977;-0.8190;
125.4000;0.0928;-0.8349;
125.7000;0.0895;-0.8371;
126.0000;0.0895;-0.8281;
126.3000;0.0855;-0.8394;
126.6000;0.0920;-0.8326;
126.9000;0.0961;-0.8303;
127.2000;0.0855;-0.8620;
127.5000;0.0879;-0.8575;
127.8000;0.0904;-0.8484;
128.1000;0.0920;-0.8484;
128.4000;0.0912;-0.8484;
128.7000;0.0895;-0.8552;
129.0000;0.0814;-0.8779;
129.3000;0.0928;-0.8349;
129.6000;0.0904;-0.8326;
129.9000;0.0961;-0.8281;
130.2000;0.0887;-0.8507;
130.5000;0.0920;-0.8484;
130.8000;0.1009;-0.8303;
131.1000;0.0904;-0.8575;
131.4000;0.0887;-0.8575;
131.7000;0.0912;-0.8507;
132.0000;0.0936;-0.8462;
132.3000;0.0895;-0.8530;
132.6000;0.0895;-0.8462;
132.9000;0.0936;-0.8371;
133.2000;0.0920;-0.8349;
133.5000;0.0936;-0.8394;
133.8000;0.0952;-0.8326;
134.1000;0.0928;-0.8236;
134.4000;0.0904;-0.8326;
134.7000;0.0838;-0.8530;
135.0000;0.0855;-0.8530;
135.3000;0.0895;-0.8417;
135.6000;0.0904;-0.8349;
135.9000;0.0920;-0.8281;
136.2000;0.0895;-0.8326;
136.5000;0.0895;-0.8236;
136.8000;0.0920;-0.8236;
137.1000;0.0928;-0.8190;
137.4000;0.0904;-0.8213;
137.7000;0.0993;-0.8122;
138.0000;0.0847;-0.8507;
138.3000;0.0895;-0.8281;
138.6000;0.0912;-0.8281;
138.9000;0.0912;-0.8439;
139.2000;0.0920;-0.8552;
139.5000;0.0912;-0.8620;
139.8000;0.0895;-0.8643;
140.1000;0.0904;-0.8598;
140.4000;0.0944;-0.8552;
140.7000;0.0920;-0.8620;
141.0000;0.0936;-0.8530;
141.3000;0.0895;-0.8575;
141.6000;0.0887;-0.8552;
141.9000;0.0895;-0.8439;
142.2000;0.0969;-0.8326;
142.5000;0.0952;-0.8417;
142.8000;0.0912;-0.8530;
143.1000;0.0904;-0.8530;
143.4000;0.0887;-0.8575;
143.7000;0.0912;-0.8484;
144.0000;0.0887;-0.8439;
144.3000;0.0904;-0.8371;
144.6000;0.0977;-0.8281;
144.9000;0.0912;-0.8462;
145.2000;0.0961;-0.8326;
145.5000;0.0912;-0.8462;
145.8000;0.0895;-0.8620;
146.1000;0.0936;-0.8439;
146.4000;0.0904;-0.8507;
146.7000;0.0969;-0.8281;
147.0000;0.0838;-0.8552;
147.3000;0.0871;-0.8439;
147.6000;0.0904;-0.8371;
147.9000;0.0879;-0.8484;
148.2000;0.0871;-0.8417;
148.5000;0.0879;-0.8484;
148.8000;0.0904;-0.8462;
149.1000;0.0879;-0.8507;
149.4000;0.0904;-0.8439;
149.7000;0.0895;-0.8462;
150.0000;0.0912;-0.8371;
150.3000;0.0920;-0.8326;
150.6000;0.0895;-0.8394;
150.9000;0.0895;-0.8371;
151.2000;0.0904;-0.8439;
151.5000;0.0912;-0.8417;
151.8000;0.0928;-0.8303;
152.1000;0.0920;-0.8303;
152.4000;0.0912;-0.8326;
152.7000;0.0904;-0.8417;
153.0000;0.0912;-0.8484;
153.3000;0.0920;-0.8484;
153.6000;0.0920;-0.8462;
153.9000;0.0928;-0.8462;
154.2000;0.0895;-0.8552;
154.5000;0.0912;-0.8598;
154.8000;0.0887;-0.8688;
155.1000;0.0936;-0.8530;
155.4000;0.0944;-0.8417;
155.7000;0.0895;-0.8462;
156.0000;0.0936;-0.8394;
156.3000;0.0920;-0.8439;
156.6000;0.0920;-0.8439;
156.9000;0.0904;-0.8484;
157.2000;0.0977;-0.8349;
157.5000;0.0912;-0.8507;
157.8000;0.0895;-0.8598;
158.1000;0.0847;-0.8665;
158.4000;0.0879;-0.8643;
158.7000;0.0969;-0.8394;
159.0000;0.0920;-0.8371;
159.3000;0.0912;-0.8394;
159.6000;0.0895;-0.8371;
159.9000;0.0895;-0.8417;
160.2000;0.0879;-0.8462;
160.5000;0.0822;-0.8643;
160.8000;0.0904;-0.8552;
161.1000;0.0969;-0.8394;
161.4000;0.1026;-0.8190;
161.7000;0.0920;-0.8484;
162.0000;0.0904;-0.8484;
162.3000;0.0904;-0.8462;
162.6000;0.0920;-0.8462;
162.9000;0.0920;-0.8462;
163.2000;0.0904;-0.8575;
163.5000;0.0944;-0.8575;
163.8000;0.0912;-0.8688;
164.1000;0.0895;-0.8711;
164.4000;0.0904;-0.8756;
164.7000;0.0790;-0.9050;
165.0000;0.0928;-0.8688;
165.3000;0.0912;-0.8756;
165.6000;0.0879;-0.8824;
165.9000;0.0879;-0.8801;
166.2000;0.0871;-0.8756;
166.5000;0.0993;-0.8530;
166.8000;0.0904;-0.8711;
167.1000;0.0895;-0.8688;
167.4000;0.0830;-0.8801;
167.7000;0.0912;-0.8575;
168.0000;0.0912;-0.8598;
168.3000;0.0904;-0.8530;
168.6000;0.0920;-0.8507;
168.9000;0.0887;-0.8530;
169.2000;0.0912;-0.8484;
169.5000;0.0912;-0.8484;
169.8000;0.0904;-0.8507;
170.1000;0.0920;-0.8575;
170.4000;0.0904;-0.8643;
170.7000;0.0904;-0.8575;
171.0000;0.0920;-0.8507;
171.3000;0.0904;-0.8530;
171.6000;0.0895;-0.8575;
171.9000;0.0887;-0.8620;
172.2000;0.0895;-0.8598;
172.5000;0.0912;-0.8620;
172.8000;0.0895;-0.8620;
173.1000;0.0879;-0.8688;
173.4000;0.0895;-0.8643;
173.7000;0.0895;-0.8665;
174.0000;0.0912;-0.8665;
174.3000;0.0814;-0.9005;
174.6000;0.0887;-0.8756;
174.9000;0.0912;-0.8733;
175.2000;0.0887;-0.8779;
175.5000;0.0944;-0.8688;
175.8000;0.0928;-0.8756;
176.1000;0.0912;-0.8733;
176.4000;0.0904;-0.8756;
176.7000;0.0887;-0.8711;
177.0000;0.0920;-0.8620;
177.3000;0.0895;-0.8598;
177.6000;0.0920;-0.8575;
177.9000;0.0895;-0.8598;
178.2000;0.0920;-0.8620;
178.5000;0.0895;-0.8484;
178.8000;0.0920;-0.8417;
179.1000;0.0887;-0.8439;
179.4000;0.0912;-0.8462;
179.7000;0.0912;-0.8530;
180.0000;0.0936;-0.8507;
180.3000;0.0928;-0.8507;
180.6000;0.0887;-0.8643;
180.9000;0.0904;-0.8530;
181.2000;0.0912;-0.8575;
181.5000;0.0936;-0.8484;
181.8000;0.0904;-0.8620;
182.1000;0.0952;-0.8507;
182.4000;0.0887;-0.8643;
182.7000;0.0944;-0.8394;
183.0000;0.0814;-0.8688;
183.3000;0.0781;-0.8846;
183.6000;0.0912;-0.8598;
183.9000;0.0879;-0.8598;
184.2000;0.0887;-0.8484;
184.5000;0.0879;-0.8462;
184.8000;0.0847;-0.8439;
185.1000;0.0781;-0.8711;
185.4000;0.0969;-0.8236;
185.7000;0.0928;-0.8326;
186.0000;0.0895;-0.8484;
186.3000;0.0920;-0.8417;
186.6000;0.0895;-0.8552;
186.9000;0.0936;-0.8417;
187.2000;0.0904;-0.8575;
187.5000;0.0904;-0.8530;
187.8000;0.0912;-0.8507;
188.1000;0.0887;-0.8484;
188.4000;0.0920;-0.8371;
188.7000;0.0977;-0.8326;
189.0000;0.0904;-0.8507;
189.3000;0.0895;-0.8507;
189.6000;0.0895;-0.8507;
189.9000;0.0920;-0.8417;
190.2000;0.0912;-0.8417;
190.5000;0.0904;-0.8462;
190.8000;0.0904;-0.8507;
191.1000;0.0985;-0.8213;
191.4000;0.0904;-0.8371;
191.7000;0.0904;-0.8462;
192.0000;0.0855;-0.8620;
192.3000;0.0871;-0.8394;
192.6000;0.0920;-0.8281;
192.9000;0.0904;-0.8439;
193.2000;0.0904;-0.8417;
193.5000;0.0895;-0.8394;
193.8000;0.0895;-0.8484;
194.1000;0.0895;-0.8462;
194.4000;0.0920;-0.8417;
194.7000;0.0912;-0.8484;
195.0000;0.0879;-0.8620;
195.3000;0.0879;-0.8688;
195.6000;0.0887;-0.8711;
195.9000;0.0928;-0.8552;
196.2000;0.0895;-0.8598;
196.5000;0.0863;-0.8711;
196.8000;0.0936;-0.8507;
197.1000;0.0912;-0.8484;
197.4000;0.0871;-0.8643;
197.7000;0.0895;-0.8598;
198.0000;0.0904;-0.8575;
198.3000;0.0904;-0.8575;
198.6000;0.0887;-0.8552;
198.9000;0.1026;-0.8258;
199.2000;0.0912;-0.8462;
199.5000;0.0879;-0.8507;
199.8000;0.0928;-0.8349;
200.1000;0.0912;-0.8417;
200.4000;0.0936;-0.8349;
200.7000;0.0887;-0.8349;
201.0000;0.0920;-0.8281;
201.3000;0.0928;-0.8258;
201.6000;0.0904;-0.8349;
201.9000;0.0806;-0.8711;
202.2000;0.0895;-0.8462;
202.5000;0.0887;-0.8552;
202.8000;0.0928;-0.8530;
203.1000;0.0920;-0.8484;
203.4000;0.0847;-0.8575;
203.7000;0.0895;-0.8439;
204.0000;0.0855;-0.8575;
204.3000;0.0920;-0.8507;
204.6000;0.0920;-0.8417;
204.9000;0.0887;-0.8462;
205.2000;0.0920;-0.8394;
205.5000;0.0920;-0.8349;
205.8000;0.0920;-0.8484;
206.1000;0.0904;-0.8620;
206.4000;0.0830;-0.8869;
206.7000;0.0912;-0.8575;
207.0000;0.0912;-0.8552;
207.3000;0.0920;-0.8507;
207.6000;0.0912;-0.8462;
207.9000;0.0920;-0.8394;
208.2000;0.0920;-0.8349;
208.5000;0.0912;-0.8462;
208.8000;0.0863;-0.8530;
209.1000;0.0814;-0.8598;
209.4000;0.0887;-0.8394;
209.7000;0.0887;-0.8394;
210.0000;0.0912;-0.8462;
210.3000;0.0936;-0.8484;
210.6000;0.0920;-0.8439;
210.9000;0.0912;-0.8462;
211.2000;0.0928;-0.8417;
211.5000;0.0895;-0.8552;
211.8000;0.0912;-0.8439;
212.1000;0.0904;-0.8462;
212.4000;0.0920;-0.8326;
212.7000;0.0895;-0.8371;
213.0000;0.0879;-0.8371;
213.3000;0.0912;-0.8394;
213.6000;0.0920;-0.8507;
213.9000;0.0904;-0.8530;
214.2000;0.0928;-0.8417;
214.5000;0.0920;-0.8507;
214.8000;0.0904;-0.8462;
215.1000;0.0855;-0.8643;
215.4000;0.0944;-0.8439;
215.7000;0.0904;-0.8620;
216.0000;0.0895;-0.8711;
216.3000;0.0928;-0.8711;
216.6000;0.0904;-0.8756;
216.9000;0.0936;-0.8598;
217.2000;0.0887;-0.8733;
217.5000;0.0912;-0.8643;
217.8000;0.0961;-0.8507;
218.1000;0.0904;-0.8575;
218.4000;0.0928;-0.8462;
218.7000;0.0912;-0.8349;
219.0000;0.0920;-0.8371;
219.3000;0.1009;-0.8190;
219.6000;0.0912;-0.8462;
219.9000;0.0920;-0.8484;
220.2000;0.0855;-0.8620;
220.5000;0.0936;-0.8394;
220.8000;0.0895;-0.8484;
221.1000;0.0895;-0.8575;
221.4000;0.0928;-0.8507;
221.7000;0.0912;-0.8552;
222.0000;0.0920;-0.8530;
222.3000;0.0879;-0.8620;
222.6000;0.0904;-0.8575;
222.9000;0.0904;-0.8620;
223.2000;0.0855;-0.8733;
223.5000;0.0912;-0.8552;
223.8000;0.0904;-0.8598;
224.1000;0.0895;-0.8598;
224.4000;0.0912;-0.8530;
224.7000;0.0895;-0.8530;
225.0000;0.0912;-0.8530;
225.3000;0.0904;-0.8462;
225.6000;0.0912;-0.8394;
225.9000;0.0952;-0.8281;
226.2000;0.0904;-0.8417;
226.5000;0.0879;-0.8507;
226.8000;0.0969;-0.8281;
227.1000;0.0887;-0.8507;
227.4000;0.0912;-0.8394;
227.7000;0.0863;-0.8462;
228.0000;0.0904;-0.8371;
228.3000;0.0887;-0.8417;
228.6000;0.0904;-0.8349;
228.9000;0.0887;-0.8439;
229.2000;0.0887;-0.8462;
229.5000;0.0904;-0.8371;
229.8000;0.0904;-0.8326;
230.1000;0.0912;-0.8303;
230.4000;0.0952;-0.8168;
230.7000;0.0806;-0.8575;
231.0000;0.0936;-0.8213;
231.3000;0.0920;-0.8258;
231.6000;0.0912;-0.8326;
231.9000;0.0904;-0.8462;
232.2000;0.0920;-0.8417;
232.5000;0.0887;-0.8394;
232.8000;0.0920;-0.8371;
233.1000;0.0879;-0.8484;
233.4000;0.0912;-0.8371;
233.7000;0.0912;-0.8417;
234.0000;0.0895;-0.8462;
234.3000;0.0912;-0.8462;
234.6000;0.0904;-0.8417;
234.9000;0.0855;-0.8575;
235.2000;0.0863;-0.8575;
235.5000;0.0944;-0.8394;
235.8000;0.0936;-0.8439;
236.1000;0.1148;-0.7964;
236.4000;0.0912;-0.8484;
236.7000;0.0895;-0.8575;
237.0000;0.0879;-0.8688;
237.3000;0.0887;-0.8643;
237.6000;0.0912;-0.8643;
237.9000;0.0887;-0.8733;
238.2000;0.0879;-0.8824;
238.5000;0.0879;-0.8846;
238.8000;0.0895;-0.8711;
239.1000;0.0936;-0.8665;
239.4000;0.0944;-0.8530;
239.7000;0.0887;-0.8620;
240.0000;0.0855;-0.8711;
240.3000;0.0887;-0.8643;
240.6000;0.0912;-0.8530;
240.9000;0.0855;-0.8643;
241.2000;0.0928;-0.8507;
241.5000;0.0912;-0.8507;
241.8000;0.0895;-0.8462;
242.1000;0.0912;-0.8439;
242.4000;0.0920;-0.8439;
242.7000;0.0895;-0.8462;
243.0000;0.0936;-0.8349;
243.3000;0.0985;-0.8236;
243.6000;0.0920;-0.8371;
243.9000;0.0912;-0.8462;
244.2000;0.0912;-0.8439;
244.5000;0.0920;-0.8484;
244.8000;0.0912;-0.8462;
245.1000;0.0936;-0.8417;
245.4000;0.0920;-0.8507;
245.7000;0.0904;-0.8552;
246.0000;0.0895;-0.8620;
246.3000;0.0895;-0.8575;
246.6000;0.0920;-0.8507;
246.9000;0.0944;-0.8417;
247.2000;0.0920;-0.8394;
247.5000;0.0920;-0.8417;
247.8000;0.0887;-0.8484;
248.1000;0.0895;-0.8462;
248.4000;0.0887;-0.8507;
248.7000;0.0920;-0.8349;
249.0000;0.0920;-0.8349;
249.3000;0.0895;-0.8394;
249.6000;0.0895;-0.8439;
249.9000;0.0879;-0.8484;
250.2000;0.0928;-0.8394;
250.5000;0.0863;-0.8575;
250.8000;0.0920;-0.8462;
251.1000;0.0895;-0.8417;
251.4000;0.0912;-0.8349;
251.7000;0.0952;-0.8236;
252.0000;0.0928;-0.8281;
252.3000;0.0912;-0.8236;
252.6000;0.0920;-0.8236;
252.9000;0.0887;-0.8281;
253.2000;0.0904;-0.8281;
253.5000;0.1001;-0.8100;
253.8000;0.0936;-0.8326;
254.1000;0.0928;-0.8213;
254.4000;0.0928;-0.8303;
254.7000;0.0895;-0.8417;
255.0000;0.0879;-0.8507;
255.3000;0.0928;-0.8417;
255.6000;0.0887;-0.8598;
255.9000;0.0912;-0.8484;
256.2000;0.0871;-0.8530;
256.5000;0.0879;-0.8417;
256.8000;0.0895;-0.8303;
257.1000;0.1018;-0.8055;
257.4000;0.0814;-0.8711;
257.7000;0.0887;-0.8552;
258.0000;0.0928;-0.8484;
258.3000;0.0928;-0.8484;
258.6000;0.0928;-0.8462;
258.9000;0.0863;-0.8598;
259.2000;0.0920;-0.8462;
259.5000;0.0936;-0.8417;
259.8000;0.0912;-0.8394;
260.1000;0.0871;-0.8507;
260.4000;0.0879;-0.8484;
260.7000;0.0895;-0.8417;
261.0000;0.0887;-0.8598;
261.3000;0.0912;-0.8530;
261.6000;0.0920;-0.8530;
261.9000;0.0985;-0.8371;
262.2000;0.0855;-0.8620;
262.5000;0.0936;-0.8371;
262.8000;0.0952;-0.8349;
263.1000;0.0838;-0.8665;
263.4000;0.0961;-0.8371;
263.7000;0.0912;-0.8439;
264.0000;0.0944;-0.8394;
264.3000;0.0936;-0.8484;
264.6000;0.0895;-0.8575;
264.9000;0.0887;-0.8643;
265.2000;0.0904;-0.8598;
265.5000;0.0912;-0.8507;
265.8000;0.0912;-0.8598;
266.1000;0.0871;-0.8598;
266.4000;0.0904;-0.8507;
266.7000;0.0879;-0.8507;
267.0000;0.0920;-0.8394;
267.3000;0.0895;-0.8462;
267.6000;0.0912;-0.8371;
267.9000;0.0904;-0.8394;
268.2000;0.0928;-0.8507;
268.5000;0.0944;-0.8575;
268.8000;0.0904;-0.8620;
269.1000;0.0904;-0.8620;
269.4000;0.0920;-0.8598;
269.7000;0.0887;-0.8598;
270.0000;0.0920;-0.8575;
270.3000;0.0912;-0.8507;
270.6000;0.0887;-0.8575;
270.9000;0.0912;-0.8552;
271.2000;0.0904;-0.8688;
271.5000;0.0912;-0.8575;
271.8000;0.0936;-0.8552;
272.1000;0.0887;-0.8552;
272.4000;0.0920;-0.8462;
272.7000;0.0879;-0.8598;
273.0000;0.0920;-0.8462;
273.3000;0.0904;-0.8439;
273.6000;0.0895;-0.8507;
273.9000;0.0904;-0.8507;
274.2000;0.0887;-0.8598;
274.5000;0.0879;-0.8688;
274.8000;0.0912;-0.8620;
275.1000;0.0912;-0.8598;
275.4000;0.0895;-0.8575;
275.7000;0.0912;-0.8552;
276.0000;0.0887;-0.8665;
276.3000;0.0855;-0.8665;
276.6000;0.0928;-0.8507;
276.9000;0.0936;-0.8417;
277.2000;0.0920;-0.8462;
277.5000;0.0871;-0.8598;
277.8000;0.0936;-0.8484;
278.1000;0.0912;-0.8417;
278.4000;0.0993;-0.8077;
278.7000;0.0936;-0.8213;
279.0000;0.0895;-0.8190;
279.3000;0.0912;-0.8190;
279.6000;0.0912;-0.8190;
279.9000;0.0895;-0.8258;
280.2000;0.0904;-0.8326;
280.5000;0.0920;-0.8371;
280.8000;0.0920;-0.8394;
281.1000;0.0895;-0.8394;
281.4000;0.0961;-0.8281;
281.7000;0.0912;-0.8417;
282.0000;0.0920;-0.8394;
282.3000;0.0912;-0.8462;
282.6000;0.0879;-0.8733;
282.9000;0.0887;-0.8733;
283.2000;0.0863;-0.8756;
283.5000;0.0904;-0.8552;
283.8000;0.0904;-0.8643;
284.1000;0.0944;-0.8575;
284.4000;0.0895;-0.8598;
284.7000;0.0961;-0.8484;
285.0000;0.0895;-0.8575;
285.3000;0.0887;-0.8575;
285.6000;0.0912;-0.8507;
285.9000;0.0904;-0.8552;
286.2000;0.0928;-0.8439;
286.5000;0.0871;-0.8530;
286.8000;0.0920;-0.8394;
287.1000;0.0904;-0.8394;
287.4000;0.0887;-0.8349;
287.7000;0.0912;-0.8236;
288.0000;0.0904;-0.8258;
288.3000;0.0961;-0.8122;
288.6000;0.0879;-0.8326;
288.9000;0.0895;-0.8258;
289.2000;0.0879;-0.8281;
289.5000;0.0920;-0.8213;
289.8000;0.0904;-0.8258;
290.1000;0.0912;-0.8213;
290.4000;0.0920;-0.8168;
290.7000;0.0887;-0.8258;
291.0000;0.0920;-0.8168;
291.3000;0.0904;-0.8145;
291.6000;0.0904;-0.8168;
291.9000;0.0920;-0.8122;
292.2000;0.0887;-0.8236;
292.5000;0.0920;-0.8213;
292.8000;0.0912;-0.8213;
293.1000;0.0904;-0.8213;
293.4000;0.0895;-0.8213;
293.7000;0.0904;-0.8190;
294.0000;0.0936;-0.8213;
294.3000;0.0830;-0.8394;
294.6000;0.0920;-0.8122;
294.9000;0.0895;-0.8190;
295.2000;0.0904;-0.8122;
295.5000;0.0928;-0.8055;
295.8000;0.0912;-0.8145;
296.1000;0.0895;-0.8258;
296.4000;0.0871;-0.8326;
296.7000;0.0887;-0.8417;
297.0000;0.0985;-0.8236;
297.3000;0.0936;-0.8394;
297.6000;0.0904;-0.8439;
297.9000;0.0912;-0.8417;
298.2000;0.0912;-0.8439;
298.5000;0.1074;-0.8032;
298.8000;0.0912;-0.8349;
299.1000;0.0847;-0.8439;
299.4000;0.0904;-0.8326;
299.7000;0.0969;-0.8213;
300.0000;0.0912;-0.8258;
300.3000;0.0879;-0.8394;
300.6000;0.0887;-0.8349;
300.9000;0.0879;-0.8417;
301.2000;0.0879;-0.8371;
301.5000;0.0952;-0.8213;
301.8000;0.0904;-0.8303;
302.1000;0.0936;-0.8190;
302.4000;0.0920;-0.8258;
302.7000;0.0912;-0.8326;
303.0000;0.0912;-0.8394;
303.3000;0.0912;-0.8462;
303.6000;0.0895;-0.8462;
303.9000;0.0879;-0.8575;
304.2000;0.0904;-0.8530;
304.5000;0.0920;-0.8417;
304.8000;0.0904;-0.8417;
305.1000;0.0814;-0.8711;
305.4000;0.0961;-0.8236;
305.7000;0.0887;-0.8326;
306.0000;0.0928;-0.8190;
306.3000;0.0855;-0.8439;
306.6000;0.0912;-0.8213;
306.9000;0.0912;-0.8190;
307.2000;0.0912;-0.8190;
307.5000;0.0920;-0.8145;
307.8000;0.0904;-0.8145;
308.1000;0.0912;-0.8122;
308.4000;0.0887;-0.8213;
308.7000;0.0847;-0.8281;
309.0000;0.0904;-0.8100;
309.3000;0.0814;-0.8349;
309.6000;0.0904;-0.8213;
309.9000;0.0904;-0.8258;
310.2000;0.0887;-0.8326;
310.5000;0.0895;-0.8326;
310.8000;0.0904;-0.8303;
311.1000;0.0912;-0.8371;
311.4000;0.0895;-0.8439;
311.7000;0.0912;-0.8349;
312.0000;0.0928;-0.8349;
312.3000;0.0912;-0.8349;
312.6000;0.0904;-0.8371;
312.9000;0.0920;-0.8236;
313.2000;0.0904;-0.8258;
313.5000;0.0912;-0.8168;
313.8000;0.0904;-0.8236;
314.1000;0.0920;-0.8145;
314.4000;0.0961;-0.7964;
314.7000;0.0912;-0.8100;
315.0000;0.0895;-0.8168;
315.3000;0.0904;-0.8213;
315.6000;0.0904;-0.8236;
315.9000;0.1018;-0.8032;
316.2000;0.1009;-0.8145;
316.5000;0.0928;-0.8349;
316.8000;0.0904;-0.8371;
317.1000;0.0871;-0.8417;
317.4000;0.0904;-0.8417;
317.7000;0.0904;-0.8349;
318.0000;0.0912;-0.8417;
318.3000;0.0920;-0.8349;
318.6000;0.0904;-0.8394;
318.9000;0.0822;-0.8575;
319.2000;0.0920;-0.8349;
319.5000;0.0912;-0.8417;
319.8000;0.0879;-0.8484;
320.1000;0.0887;-0.8394;
320.4000;0.0936;-0.8281;
320.7000;0.0887;-0.8371;
321.0000;0.0920;-0.8281;
321.3000;0.0863;-0.8484;
321.6000;0.0912;-0.8439;
321.9000;0.0912;-0.8439;
322.2000;0.0895;-0.8439;
322.5000;0.0920;-0.8417;
322.8000;0.0912;-0.8417;
323.1000;0.0912;-0.8394;
323.4000;0.0895;-0.8326;
323.7000;0.0912;-0.8281;
324.0000;0.0904;-0.8258;
324.3000;0.0847;-0.8462;
324.6000;0.0757;-0.8643;
324.9000;0.0969;-0.8168;
325.2000;0.0912;-0.8417;
325.5000;0.0895;-0.8462;
325.8000;0.0895;-0.8552;
326.1000;0.0895;-0.8462;
326.4000;0.0887;-0.8552;
326.7000;0.0904;-0.8484;
327.0000;0.0887;-0.8530;
327.3000;0.0895;-0.8484;
327.6000;0.0887;-0.8439;
327.9000;0.0879;-0.8439;
328.2000;0.0895;-0.8394;
328.5000;0.0904;-0.8439;
328.8000;0.0904;-0.8326;
329.1000;0.0920;-0.8236;
329.4000;0.0912;-0.8349;
329.7000;0.0895;-0.8507;
330.0000;0.0912;-0.8530;
330.3000;0.0895;-0.8484;
330.6000;0.0895;-0.8462;
330.9000;0.0863;-0.8665;
331.2000;0.0977;-0.8417;
331.5000;0.0928;-0.8462;
331.8000;0.0912;-0.8462;
332.1000;0.0895;-0.8394;
332.4000;0.0904;-0.8349;
332.7000;0.0879;-0.8462;
333.0000;0.0887;-0.8462;
333.3000;0.0887;-0.8507;
333.6000;0.0904;-0.8484;
333.9000;0.0904;-0.8417;
334.2000;0.0928;-0.8439;
334.5000;0.0887;-0.8598;
334.8000;0.0895;-0.8598;
335.1000;0.0904;-0.8484;
335.4000;0.0912;-0.8462;
335.7000;0.0912;-0.8530;
336.0000;0.0928;-0.8507;
336.3000;0.0879;-0.8620;
336.6000;0.0928;-0.8530;
336.9000;0.0887;-0.8598;
337.2000;0.0904;-0.8552;
337.5000;0.0920;-0.8462;
337.8000;0.0912;-0.8507;
338.1000;0.0920;-0.8552;
338.4000;0.0977;-0.8349;
338.7000;0.0871;-0.8598;
339.0000;0.0920;-0.8507;
339.3000;0.0912;-0.8530;
339.6000;0.0887;-0.8507;
339.9000;0.0904;-0.8530;
340.2000;0.0920;-0.8462;
340.5000;0.0904;-0.8349;
340.8000;0.0904;-0.8258;
341.1000;0.0895;-0.8303;
341.4000;0.0920;-0.8190;
341.7000;0.0879;-0.8303;
342.0000;0.0904;-0.8258;
342.3000;0.0912;-0.8258;
342.6000;0.0895;-0.8326;
342.9000;0.0912;-0.8349;
343.2000;0.0887;-0.8326;
343.5000;0.0920;-0.8236;
343.8000;0.0895;-0.8303;
344.1000;0.0895;-0.8303;
344.4000;0.0895;-0.8258;
344.7000;0.0928;-0.8213;
345.0000;0.0904;-0.8349;
345.3000;0.0912;-0.8326;
345.6000;0.0936;-0.8190;
345.9000;0.0895;-0.8303;
346.2000;0.0912;-0.8236;
346.5000;0.0912;-0.8258;
346.8000;0.0920;-0.8349;
347.1000;0.0928;-0.8349;
347.4000;0.0912;-0.8439;
347.7000;0.0781;-0.8824;
348.0000;0.0895;-0.8462;
348.3000;0.0895;-0.8507;
348.6000;0.0904;-0.8507;
348.9000;0.0928;-0.8349;
349.2000;0.0904;-0.8394;
349.5000;0.0904;-0.8349;
349.8000;0.0838;-0.8439;
350.1000;0.0895;-0.8258;
350.4000;0.0928;-0.8213;
350.7000;0.0912;-0.8258;
351.0000;0.0822;-0.8484;
351.3000;0.0895;-0.8303;
351.6000;0.0904;-0.8394;
351.9000;0.0920;-0.8394;
352.2000;0.0887;-0.8371;
352.5000;0.0912;-0.8281;
352.8000;0.0985;-0.8077;
353.1000;0.0920;-0.8236;
353.4000;0.0928;-0.8303;
353.7000;0.0904;-0.8349;
354.0000;0.0977;-0.8168;
354.3000;0.0912;-0.8303;
354.6000;0.0895;-0.8349;
354.9000;0.0887;-0.8303;
355.2000;0.0895;-0.8281;
355.5000;0.0920;-0.8100;
355.8000;0.0895;-0.8213;
356.1000;0.0887;-0.8168;
356.4000;0.0904;-0.8100;
356.7000;0.0895;-0.8213;
357.0000;0.0904;-0.8236;
357.3000;0.0904;-0.8281;
357.6000;0.0912;-0.8349;
357.9000;0.0952;-0.8326;
358.2000;0.0895;-0.8530;
358.5000;0.0920;-0.8530;
358.8000;0.0912;-0.8575;
359.1000;0.0904;-0.8530;
359.4000;0.0895;-0.8462;
359.7000;0.0879;-0.8530;
360.0000;0.0904;-0.8439;
360.3000;0.0904;-0.8439;
360.6000;0.0920;-0.8258;
360.9000;0.0912;-0.8303;
361.2000;0.0904;-0.8371;
361.5000;0.0904;-0.8394;
361.8000;0.0912;-0.8326;
362.1000;0.0928;-0.8281;
362.4000;0.0912;-0.8371;
362.7000;0.0912;-0.8394;
363.0000;0.0904;-0.8417;
363.3000;0.0912;-0.8417;
363.6000;0.0838;-0.8552;
363.9000;0.0944;-0.8303;
364.2000;0.0928;-0.8417;
364.5000;0.0920;-0.8439;
364.8000;0.0920;-0.8439;
365.1000;0.0895;-0.8552;
365.4000;0.1001;-0.8371;
365.7000;0.0895;-0.8598;
366.0000;0.0928;-0.8552;
366.3000;0.0904;-0.8598;
366.6000;0.0887;-0.8552;
366.9000;0.0920;-0.8507;
367.2000;0.0920;-0.8462;
367.5000;0.0912;-0.8439;
367.8000;0.0904;-0.8484;
368.1000;0.0847;-0.8598;
368.4000;0.0936;-0.8326;
368.7000;0.0895;-0.8371;
369.0000;0.0895;-0.8439;
369.3000;0.0912;-0.8394;
369.6000;0.0895;-0.8371;
369.9000;0.0912;-0.8394;
370.2000;0.0887;-0.8552;
370.5000;0.0993;-0.8303;
370.8000;0.0920;-0.8439;
371.1000;0.0944;-0.8439;
371.4000;0.0790;-0.8756;
371.7000;0.0798;-0.8598;
372.0000;0.0838;-0.8484;
372.3000;0.0952;-0.8145;
372.6000;0.0871;-0.8326;
372.9000;0.0830;-0.8462;
373.2000;0.0952;-0.8213;
373.5000;0.0871;-0.8371;
373.8000;0.0838;-0.8620;
374.1000;0.0887;-0.8462;
374.4000;0.0887;-0.8484;
374.7000;0.0920;-0.8394;
375.0000;0.0993;-0.8213;
375.3000;0.0863;-0.8484;
375.6000;0.0887;-0.8462;
375.9000;0.0912;-0.8394;
376.2000;0.0904;-0.8507;
376.5000;0.0912;-0.8507;
376.8000;0.0912;-0.8439;
377.1000;0.0904;-0.8394;
377.4000;0.0904;-0.8394;
377.7000;0.0912;-0.8417;
378.0000;0.0912;-0.8394;
378.3000;0.0887;-0.8394;
378.6000;0.0904;-0.8326;
378.9000;0.0912;-0.8303;
379.2000;0.0847;-0.8530;
379.5000;0.0879;-0.8417;
379.8000;0.0904;-0.8417;
380.1000;0.0904;-0.8484;
380.4000;0.0928;-0.8303;
380.7000;0.0920;-0.8326;
381.0000;0.0928;-0.8236;
381.3000;0.0904;-0.8190;
381.6000;0.0904;-0.8145;
381.9000;0.0912;-0.8122;
382.2000;0.0936;-0.8145;
382.5000;0.0928;-0.8213;
382.8000;0.0912;-0.8258;
383.1000;0.0887;-0.8417;
383.4000;0.0904;-0.8530;
383.7000;0.0912;-0.8462;
384.0000;0.0895;-0.8507;
384.3000;0.0952;-0.8439;
384.6000;0.0952;-0.8394;
384.9000;0.0863;-0.8530;
385.2000;0.0863;-0.8484;
385.5000;0.0895;-0.8552;
385.8000;0.0887;-0.8507;
386.1000;0.0920;-0.8394;
386.4000;0.0757;-0.8779;
386.7000;0.0920;-0.8417;
387.0000;0.0895;-0.8530;
387.3000;0.0944;-0.8417;
387.6000;0.0920;-0.8484;
387.9000;0.0936;-0.8439;
388.2000;0.0871;-0.8643;
388.5000;0.0920;-0.8462;
388.8000;0.0920;-0.8394;
389.1000;0.0912;-0.8417;
389.4000;0.0814;-0.8711;
389.7000;0.0912;-0.8462;
390.0000;0.0969;-0.8326;
390.3000;0.0895;-0.8417;
390.6000;0.0912;-0.8258;
390.9000;0.0944;-0.8100;
391.2000;0.0928;-0.8168;
391.5000;0.0887;-0.8349;
391.8000;0.0912;-0.8349;
392.1000;0.0977;-0.8213;
392.4000;0.0838;-0.8507;
392.7000;0.0920;-0.8394;
393.0000;0.0912;-0.8552;
393.3000;0.0904;-0.8575;
393.6000;0.0847;-0.8824;
393.9000;0.0895;-0.8620;
394.2000;0.0830;-0.8801;
394.5000;0.0961;-0.8439;
394.8000;0.0928;-0.8484;
395.1000;0.0895;-0.8462;
395.4000;0.0920;-0.8371;
395.7000;0.0887;-0.8439;
396.0000;0.0912;-0.8394;
396.3000;0.0904;-0.8394;
396.6000;0.0895;-0.8417;
396.9000;0.0912;-0.8258;
397.2000;0.0936;-0.8303;
397.5000;0.0993;-0.8145;
397.8000;0.0895;-0.8417;
398.1000;0.0912;-0.8394;
398.4000;0.0871;-0.8507;
398.7000;0.0912;-0.8417;
399.0000;0.0920;-0.8417;
399.3000;0.0912;-0.8394;
399.6000;0.0887;-0.8484;
399.9000;0.0936;-0.8349;
400.2000;0.0920;-0.8371;
400.5000;0.0895;-0.8484;
400.8000;0.0871;-0.8507;
401.1000;0.0887;-0.8484;
401.4000;0.0879;-0.8462;
401.7000;0.0887;-0.8439;
402.0000;0.0887;-0.8462;
402.3000;0.0895;-0.8439;
402.6000;0.0928;-0.8371;
402.9000;0.0912;-0.8394;
403.2000;0.0920;-0.8417;
403.5000;0.0904;-0.8394;
403.8000;0.0912;-0.8394;
404.1000;0.0904;-0.8394;
404.4000;0.0904;-0.8371;
404.7000;0.0920;-0.8394;
405.0000;0.0879;-0.8394;
405.3000;0.0912;-0.8326;
405.6000;0.0920;-0.8303;
405.9000;0.0879;-0.8462;
406.2000;0.0904;-0.8530;
406.5000;0.0838;-0.8688;
406.8000;0.0912;-0.8507;
407.1000;0.0912;-0.8462;
407.4000;0.0944;-0.8417;
407.7000;0.0920;-0.8394;
408.0000;0.0944;-0.8326;
408.3000;0.0969;-0.8258;
408.6000;0.0928;-0.8394;
408.9000;0.0912;-0.8507;
409.2000;0.0952;-0.8417;
409.5000;0.0928;-0.8349;
409.8000;0.0920;-0.8371;
410.1000;0.0920;-0.8349;
410.4000;0.0928;-0.8236;
410.7000;0.0928;-0.8213;
411.0000;0.0871;-0.8326;
411.3000;0.1001;-0.8100;
411.6000;0.0928;-0.8371;
411.9000;0.0952;-0.8281;
412.2000;0.0920;-0.8394;
412.5000;0.0936;-0.8349;
412.8000;0.0912;-0.8462;
413.1000;0.0879;-0.8507;
413.4000;0.0904;-0.8552;
413.7000;0.0912;-0.8552;
414.0000;0.0928;-0.8371;
414.3000;0.0895;-0.8507;
414.6000;0.0904;-0.8462;
414.9000;0.0895;-0.8462;
415.2000;0.0904;-0.8484;
415.5000;0.0912;-0.8394;
415.8000;0.0895;-0.8439;
416.1000;0.0912;-0.8394;
416.4000;0.0920;-0.8349;
416.7000;0.0920;-0.8281;
417.0000;0.0920;-0.8168;
417.3000;0.0944;-0.8009;
417.6000;0.0920;-0.8145;
417.9000;0.0904;-0.8258;
418.2000;0.0887;-0.8326;
418.5000;0.0952;-0.8236;
418.8000;0.0904;-0.8417;
419.1000;0.0904;-0.8417;
419.4000;0.0928;-0.8394;
419.7000;0.0887;-0.8484;
420.0000;0.0904;-0.8462;
420.3000;0.0904;-0.8417;
420.6000;0.0920;-0.8417;
420.9000;0.0895;-0.8462;
421.2000;0.0887;-0.8507;
421.5000;0.0936;-0.8371;
421.8000;0.0920;-0.8349;
422.1000;0.0904;-0.8439;
422.4000;0.0895;-0.8394;
422.7000;0.0912;-0.8281;
423.0000;0.0912;-0.8349;
423.3000;0.0838;-0.8575;
423.6000;0.0912;-0.8417;
423.9000;0.0904;-0.8439;
424.2000;0.0879;-0.8439;
424.5000;0.0895;-0.8394;
424.8000;0.0895;-0.8394;
425.1000;0.0944;-0.8303;
425.4000;0.0920;-0.8394;
425.7000;0.0912;-0.8394;
426.0000;0.0879;-0.8394;
426.3000;0.0944;-0.8213;
426.6000;0.0904;-0.8326;
426.9000;0.0904;-0.8236;
427.2000;0.0879;-0.8236;
427.5000;0.0920;-0.8168;
427.8000;0.0912;-0.8303;
428.1000;0.0895;-0.8281;
428.4000;0.0887;-0.8190;
428.7000;0.0887;-0.8213;
429.0000;0.0944;-0.8055;
429.3000;0.0904;-0.8122;
429.6000;0.0936;-0.8032;
429.9000;0.0904;-0.8258;
430.2000;0.0895;-0.8326;
430.5000;0.0928;-0.8190;
430.8000;0.0928;-0.8349;
431.1000;0.0912;-0.8326;
431.4000;0.0863;-0.8439;
431.7000;0.0920;-0.8258;
432.0000;0.0920;-0.8281;
432.3000;0.0822;-0.8439;
432.6000;0.0879;-0.8213;
432.9000;0.0912;-0.8145;
433.2000;0.0920;-0.8168;
433.5000;0.0895;-0.8213;
433.8000;0.0912;-0.8236;
434.1000;0.0912;-0.8236;
434.4000;0.0871;-0.8530;
434.7000;0.0912;-0.8462;
435.0000;0.0904;-0.8462;
435.3000;0.0806;-0.8733;
435.6000;0.0912;-0.8507;
435.9000;0.0912;-0.8484;
436.2000;0.0920;-0.8371;
436.5000;0.0904;-0.8394;
436.8000;0.0912;-0.8417;
437.1000;0.0912;-0.8439;
437.4000;0.0928;-0.8417;
437.7000;0.0912;-0.8462;
438.0000;0.0912;-0.8417;
438.3000;0.0863;-0.8507;
438.6000;0.0912;-0.8394;
438.9000;0.0887;-0.8439;
439.2000;0.0895;-0.8394;
439.5000;0.0904;-0.8394;
439.8000;0.0904;-0.8417;
440.1000;0.0912;-0.8417;
440.4000;0.0895;-0.8462;
440.7000;0.0977;-0.8303;
441.0000;0.0961;-0.8371;
441.3000;0.0920;-0.8484;
441.6000;0.0952;-0.8484;
441.9000;0.0895;-0.8552;
442.2000;0.0895;-0.8575;
442.5000;0.0912;-0.8507;
442.8000;0.0895;-0.8484;
443.1000;0.0912;-0.8507;
443.4000;0.0904;-0.8417;
443.7000;0.0879;-0.8439;
444.0000;0.0798;-0.8688;
444.3000;0.0912;-0.8326;
444.6000;0.0904;-0.8349;
444.9000;0.0895;-0.8417;
445.2000;0.0904;-0.8394;
445.5000;0.0936;-0.8439;
445.8000;0.0904;-0.8462;
446.1000;0.0961;-0.8303;
446.4000;0.0904;-0.8417;
446.7000;0.0895;-0.8394;
447.0000;0.0952;-0.8281;
447.3000;0.1042;-0.8009;
447.6000;0.0904;-0.8349;
447.9000;0.0895;-0.8394;
448.2000;0.0944;-0.8349;
448.5000;0.0904;-0.8462;
448.8000;0.0920;-0.8530;
449.1000;0.0952;-0.8484;
449.4000;0.0879;-0.8643;
449.7000;0.0904;-0.8575;
450.0000;0.0887;-0.8665;
450.3000;0.0936;-0.8484;
450.6000;0.0904;-0.8484;
450.9000;0.0904;-0.8417;
451.2000;0.0904;-0.8417;
451.5000;0.1018;-0.8236;
451.8000;0.0904;-0.8484;
452.1000;0.0920;-0.8349;
452.4000;0.0887;-0.8371;
452.7000;0.0895;-0.8303;
453.0000;0.0920;-0.8281;
453.3000;0.0928;-0.8303;
453.6000;0.0928;-0.8258;
453.9000;0.0887;-0.8439;
454.2000;0.0895;-0.8439;
454.5000;0.0928;-0.8439;
454.8000;0.0904;-0.8394;
455.1000;0.0920;-0.8371;
455.4000;0.0879;-0.8484;
455.7000;0.0904;-0.8417;
456.0000;0.0904;-0.8349;
456.3000;0.0895;-0.8349;
456.6000;0.0765;-0.8733;
456.9000;0.0961;-0.8213;
457.2000;0.0920;-0.8439;
457.5000;0.0912;-0.8439;
457.8000;0.0912;-0.8439;
458.1000;0.0879;-0.8439;
458.4000;0.0887;-0.8484;
458.7000;0.0904;-0.8394;
459.0000;0.0944;-0.8281;
459.3000;0.0895;-0.8462;
459.6000;0.0871;-0.8530;
459.9000;0.0895;-0.8394;
460.2000;0.0895;-0.8371;
460.5000;0.0912;-0.8303;
460.8000;0.0912;-0.8349;
461.1000;0.0895;-0.8417;
461.4000;0.0895;-0.8484;
461.7000;0.0887;-0.8530;
462.0000;0.0863;-0.8530;
462.3000;0.1001;-0.8281;
462.6000;0.0920;-0.8462;
462.9000;0.0895;-0.8462;
463.2000;0.0887;-0.8394;
463.5000;0.0895;-0.8371;
463.8000;0.0912;-0.8394;
464.1000;0.0790;-0.8779;
464.4000;0.0895;-0.8484;
464.7000;0.0912;-0.8484;
465.0000;0.0904;-0.8552;
465.3000;0.0871;-0.8598;
465.6000;0.0895;-0.8439;
465.9000;0.0895;-0.8417;
466.2000;0.0895;-0.8394;
466.5000;0.0904;-0.8530;
466.8000;0.0952;-0.8462;
467.1000;0.0920;-0.8575;
467.4000;0.0895;-0.8552;
467.7000;0.0904;-0.8530;
468.0000;0.1050;-0.8168;
468.3000;0.0904;-0.8507;
468.6000;0.0912;-0.8462;
468.9000;0.0904;-0.8530;
469.2000;0.0847;-0.8733;
469.5000;0.0895;-0.8598;
469.8000;0.0773;-0.8824;
470.1000;0.0895;-0.8462;
470.4000;0.0879;-0.8462;
470.7000;0.0887;-0.8507;
471.0000;0.0887;-0.8552;
471.3000;0.0912;-0.8417;
471.6000;0.0961;-0.8349;
471.9000;0.0887;-0.8575;
472.2000;0.0936;-0.8394;
472.5000;0.0912;-0.8462;
472.8000;0.0904;-0.8507;
473.1000;0.0920;-0.8439;
473.4000;0.0920;-0.8484;
473.7000;0.0904;-0.8598;
474.0000;0.0904;-0.8575;
474.3000;0.0920;-0.8552;
474.6000;0.0895;-0.8598;
474.9000;0.0912;-0.8598;
475.2000;0.0887;-0.8688;
475.5000;0.0904;-0.8665;
475.8000;0.0887;-0.8620;
476.1000;0.0912;-0.8598;
476.4000;0.0904;-0.8507;
476.7000;0.0904;-0.8643;
477.0000;0.0920;-0.8665;
477.3000;0.0920;-0.8620;
477.6000;0.0904;-0.8688;
477.9000;0.0912;-0.8598;
478.2000;0.0912;-0.8530;
478.5000;0.0977;-0.8303;
478.8000;0.0993;-0.8326;
479.1000;0.0887;-0.8530;
479.4000;0.0904;-0.8552;
479.7000;0.0928;-0.8439;
480.0000;0.0920;-0.8484;
480.3000;0.0895;-0.8552;
480.6000;0.0993;-0.8371;
480.9000;0.0904;-0.8598;
481.2000;0.0961;-0.8507;
481.5000;0.0944;-0.8530;
481.8000;0.0904;-0.8598;
482.1000;0.0879;-0.8552;
482.4000;0.0895;-0.8552;
482.7000;0.0920;-0.8462;
483.0000;0.0912;-0.8575;
483.3000;0.0912;-0.8598;
483.6000;0.0895;-0.8598;
483.9000;0.0887;-0.8620;
484.2000;0.0904;-0.8598;
484.5000;0.0887;-0.8643;
484.8000;0.0904;-0.8598;
485.1000;0.0904;-0.8575;
485.4000;0.0871;-0.8711;
485.7000;0.0904;-0.8688;
486.0000;0.0928;-0.8575;
486.3000;0.1066;-0.8213;
486.6000;0.0912;-0.8620;
486.9000;0.0895;-0.8598;
487.2000;0.0879;-0.8598;
487.5000;0.0887;-0.8552;
487.8000;0.0920;-0.8462;
488.1000;0.0912;-0.8507;
488.4000;0.0814;-0.8801;
488.7000;0.0887;-0.8643;
489.0000;0.0928;-0.8349;
489.3000;0.0920;-0.8394;
489.6000;0.0887;-0.8462;
489.9000;0.0887;-0.8462;
490.2000;0.0895;-0.8484;
490.5000;0.0879;-0.8552;
490.8000;0.0904;-0.8552;
491.1000;0.0879;-0.8643;
491.4000;0.0871;-0.8688;
491.7000;0.0871;-0.8688;
492.0000;0.0814;-0.8869;
492.3000;0.0912;-0.8665;
492.6000;0.0912;-0.8643;
492.9000;0.0920;-0.8598;
493.2000;0.0871;-0.8575;
493.5000;0.0871;-0.8620;
493.8000;0.0912;-0.8507;
494.1000;0.1018;-0.8258;
494.4000;0.0895;-0.8552;
494.7000;0.0855;-0.8665;
495.0000;0.0936;-0.8598;
495.3000;0.0969;-0.8530;
495.6000;0.0920;-0.8620;
495.9000;0.0855;-0.8711;
496.2000;0.0904;-0.8552;
496.5000;0.0904;-0.8484;
496.8000;0.0912;-0.8484;
497.1000;0.0904;-0.8439;
497.4000;0.0944;-0.8439;
497.7000;0.0912;-0.8530;
498.0000;0.0928;-0.8439;
498.3000;0.0904;-0.8462;
498.6000;0.0928;-0.8417;
498.9000;0.0895;-0.8484;
499.2000;0.0912;-0.8598;
499.5000;0.0887;-0.8643;
499.8000;0.0961;-0.8507;
500.1000;0.0920;-0.8575;
500.4000;0.0904;-0.8665;
500.7000;0.0895;-0.8688;
501.0000;0.0904;-0.8620;
501.3000;0.0887;-0.8643;
501.6000;0.0912;-0.8530;
501.9000;0.0879;-0.8462;
502.2000;0.0830;-0.8507;
502.5000;0.0928;-0.8371;
502.8000;0.0936;-0.8394;
503.1000;0.0928;-0.8439;
503.4000;0.1001;-0.8236;
503.7000;0.0977;-0.8326;
504.0000;0.0928;-0.8484;
504.3000;0.0904;-0.8484;
504.6000;0.0904;-0.8462;
504.9000;0.0863;-0.8507;
505.2000;0.0977;-0.8190;
505.5000;0.0887;-0.8394;
505.8000;0.0912;-0.8462;
506.1000;0.0895;-0.8620;
506.4000;0.0912;-0.8643;
506.7000;0.0920;-0.8462;
507.0000;0.0928;-0.8417;
507.3000;0.0855;-0.8530;
507.6000;0.0912;-0.8394;
507.9000;0.0855;-0.8598;
508.2000;0.0847;-0.8711;
508.5000;0.0912;-0.8439;
508.8000;0.0895;-0.8281;
509.1000;0.0912;-0.8303;
509.4000;0.0904;-0.8394;
509.7000;0.0887;-0.8394;
510.0000;0.0904;-0.8326;
510.3000;0.0912;-0.8349;
510.6000;0.0912;-0.8349;
510.9000;0.0871;-0.8303;
511.2000;0.0952;-0.8213;
511.5000;0.0944;-0.8258;
511.8000;0.0895;-0.8349;
512.1000;0.0920;-0.8417;
512.4000;0.0952;-0.8281;
512.7000;0.0895;-0.8439;
513.0000;0.0928;-0.8394;
513.3000;0.0928;-0.8326;
513.6000;0.0912;-0.8258;
513.9000;0.0904;-0.8349;
514.2000;0.0879;-0.8371;
514.5000;0.0887;-0.8326;
514.8000;0.0887;-0.8303;
515.1000;0.0887;-0.8349;
515.4000;0.0887;-0.8394;
515.7000;0.0895;-0.8371;
516.0000;0.0904;-0.8371;
516.3000;0.0847;-0.8439;
516.6000;0.0920;-0.8236;
516.9000;0.0936;-0.8122;
517.2000;0.0920;-0.8236;
517.5000;0.0879;-0.8371;
517.8000;0.0887;-0.8258;
518.1000;0.0904;-0.8258;
518.4000;0.0912;-0.8281;
518.7000;0.0895;-0.8326;
519.0000;0.0887;-0.8394;
519.3000;0.0936;-0.8281;
519.6000;0.0928;-0.8462;
519.9000;0.0895;-0.8507;
520.2000;0.0838;-0.8643;
520.5000;0.0863;-0.8552;
520.8000;0.0904;-0.8462;
521.1000;0.0952;-0.8258;
521.4000;0.0887;-0.8417;
521.7000;0.0895;-0.8394;
522.0000;0.0920;-0.8236;
522.3000;0.0928;-0.8190;
522.6000;0.0895;-0.8213;
522.9000;0.0912;-0.8213;
523.2000;0.0928;-0.8190;
523.5000;0.0887;-0.8258;
523.8000;0.0928;-0.8145;
524.1000;0.0904;-0.8190;
524.4000;0.0977;-0.8009;
524.7000;0.0944;-0.8009;
525.0000;0.0920;-0.8100;
525.3000;0.0887;-0.8145;
525.6000;0.0912;-0.8145;
525.9000;0.0920;-0.8032;
526.2000;0.1018;-0.7828;
526.5000;0.0847;-0.8326;
526.8000;0.0887;-0.8236;
527.1000;0.0912;-0.8236;
527.4000;0.0895;-0.8326;
527.7000;0.0887;-0.8371;
528.0000;0.0920;-0.8236;
528.3000;0.0895;-0.8236;
528.6000;0.0904;-0.8168;
528.9000;0.0920;-0.8213;
529.2000;0.0830;-0.8439;
529.5000;0.0887;-0.8281;
529.8000;0.1018;-0.8009;
530.1000;0.0830;-0.8371;
530.4000;0.0912;-0.8258;
530.7000;0.0887;-0.8303;
531.0000;0.0863;-0.8371;
531.3000;0.0920;-0.8190;
531.6000;0.0912;-0.8190;
531.9000;0.0920;-0.8213;
532.2000;0.0904;-0.8281;
532.5000;0.0887;-0.8439;
532.8000;0.0912;-0.8394;
533.1000;0.0904;-0.8439;
533.4000;0.0920;-0.8349;
533.7000;0.0887;-0.8417;
534.0000;0.0961;-0.8236;
534.3000;0.0895;-0.8303;
534.6000;0.0985;-0.8055;
534.9000;0.0871;-0.8281;
535.2000;0.0855;-0.8371;
535.5000;0.0944;-0.8258;
535.8000;0.0904;-0.8326;
536.1000;0.0904;-0.8236;
536.4000;0.0887;-0.8190;
536.7000;0.0887;-0.8077;
537.0000;0.0847;-0.8236;
537.3000;0.0920;-0.8122;
537.6000;0.0920;-0.8168;
537.9000;0.0904;-0.8145;
538.2000;0.0912;-0.8100;
538.5000;0.0904;-0.8213;
538.8000;0.0879;-0.8236;
539.1000;0.0912;-0.8100;
539.4000;0.0895;-0.8258;
539.7000;0.0912;-0.8281;
540.0000;0.0895;-0.8417;
540.3000;0.0879;-0.8530;
540.6000;0.0904;-0.8439;
540.9000;0.0912;-0.8303;
541.2000;0.0936;-0.8168;
541.5000;0.0798;-0.8598;
541.8000;0.0904;-0.8371;
542.1000;0.0904;-0.8394;
542.4000;0.0895;-0.8371;
542.7000;0.0928;-0.8236;
543.0000;0.0879;-0.8281;
543.3000;0.0895;-0.8258;
543.6000;0.0912;-0.8145;
543.9000;0.0912;-0.8303;
544.2000;0.0920;-0.8394;
544.5000;0.0887;-0.8439;
544.8000;0.0920;-0.8326;
545.1000;0.0871;-0.8417;
545.4000;0.0928;-0.8326;
545.7000;0.0887;-0.8462;
546.0000;0.0912;-0.8439;
546.3000;0.0904;-0.8417;
546.6000;0.0912;-0.8462;
546.9000;0.0904;-0.8484;
547.2000;0.0969;-0.8394;
547.5000;0.0904;-0.8552;
547.8000;0.0904;-0.8462;
548.1000;0.0912;-0.8349;
548.4000;0.0904;-0.8349;
548.7000;0.0920;-0.8281;
549.0000;0.0928;-0.8326;
549.3000;0.0887;-0.8394;
549.6000;0.0830;-0.8507;
549.9000;0.0936;-0.8258;
550.2000;0.0879;-0.8417;
550.5000;0.0895;-0.8484;
550.8000;0.0904;-0.8530;
551.1000;0.0928;-0.8439;
551.4000;0.0936;-0.8439;
551.7000;0.0887;-0.8552;
552.0000;0.0895;-0.8552;
552.3000;0.0887;-0.8575;
552.6000;0.0904;-0.8552;
552.9000;0.0895;-0.8620;
553.2000;0.0895;-0.8530;
553.5000;0.0879;-0.8552;
553.8000;0.0920;-0.8439;
554.1000;0.0895;-0.8507;
554.4000;0.0895;-0.8507;
554.7000;0.0895;-0.8371;
555.0000;0.0871;-0.8371;
555.3000;0.0879;-0.8371;
555.6000;0.0895;-0.8394;
555.9000;0.0904;-0.8439;
556.2000;0.0928;-0.8371;
556.5000;0.0904;-0.8484;
556.8000;0.0920;-0.8484;
557.1000;0.0928;-0.8439;
557.4000;0.0936;-0.8349;
557.7000;0.0904;-0.8281;
558.0000;0.0912;-0.8236;
558.3000;0.0887;-0.8349;
558.6000;0.1001;-0.8100;
558.9000;0.0912;-0.8326;
559.2000;0.0879;-0.8371;
559.5000;0.0879;-0.8326;
559.8000;0.0895;-0.8326;
560.1000;0.0985;-0.8122;
560.4000;0.0904;-0.8439;
560.7000;0.0904;-0.8394;
561.0000;0.0838;-0.8484;
561.3000;0.0895;-0.8439;
561.6000;0.0920;-0.8462;
561.9000;0.0969;-0.8371;
562.2000;0.0895;-0.8530;
562.5000;0.0879;-0.8575;
562.8000;0.0887;-0.8552;
563.1000;0.0952;-0.8349;
563.4000;0.0895;-0.8439;
563.7000;0.0904;-0.8394;
564.0000;0.0993;-0.8145;
564.3000;0.0977;-0.8122;
564.6000;0.0887;-0.8349;
564.9000;0.0830;-0.8552;
565.2000;0.0887;-0.8303;
565.5000;0.0904;-0.8326;
565.8000;0.0904;-0.8349;
566.1000;0.0863;-0.8552;
566.4000;0.0912;-0.8484;
566.7000;0.0887;-0.8417;
567.0000;0.0879;-0.8462;
567.3000;0.0855;-0.8439;
567.6000;0.0879;-0.8394;
567.9000;0.0912;-0.8326;
568.2000;0.0920;-0.8303;
568.5000;0.0904;-0.8213;
568.8000;0.0920;-0.8213;
569.1000;0.0847;-0.8326;
569.4000;0.0895;-0.8258;
569.7000;0.0887;-0.8258;
570.0000;0.0895;-0.8349;
570.3000;0.0912;-0.8236;
570.6000;0.0920;-0.8236;
570.9000;0.0912;-0.8190;
571.2000;0.0887;-0.8258;
571.5000;0.0904;-0.8281;
571.8000;0.0912;-0.8145;
572.1000;0.0912;-0.8213;
572.4000;0.0895;-0.8236;
572.7000;0.0871;-0.8236;
573.0000;0.0912;-0.8077;
573.3000;0.0936;-0.8055;
573.6000;0.0920;-0.8122;
573.9000;0.0912;-0.8100;
574.2000;0.0912;-0.8100;
574.5000;0.0912;-0.8258;
574.8000;0.0912;-0.8236;
575.1000;0.0920;-0.8213;
575.4000;0.0781;-0.8552;
575.7000;0.0912;-0.8281;
576.0000;0.0904;-0.8258;
576.3000;0.0895;-0.8190;
576.6000;0.0928;-0.8100;
576.9000;0.0961;-0.8055;
577.2000;0.0912;-0.8190;
577.5000;0.0895;-0.8326;
577.8000;0.0895;-0.8349;
578.1000;0.0912;-0.8236;
578.4000;0.0887;-0.8394;
578.7000;0.0928;-0.8258;
579.0000;0.0847;-0.8394;
579.3000;0.0993;-0.8122;
579.6000;0.0920;-0.8258;
579.9000;0.0887;-0.8326;
580.2000;0.0887;-0.8349;
580.5000;0.0814;-0.8575;
580.8000;0.0871;-0.8371;
581.1000;0.0895;-0.8303;
581.4000;0.0920;-0.8236;
581.7000;0.0895;-0.8190;
582.0000;0.0871;-0.8281;
582.3000;0.0952;-0.8032;
582.6000;0.0944;-0.8190;
582.9000;0.0871;-0.8349;
583.2000;0.0895;-0.8281;
583.5000;0.0863;-0.8394;
583.8000;0.0928;-0.8145;
584.1000;0.0887;-0.8258;
584.4000;0.0912;-0.8258;
584.7000;0.0912;-0.8303;
585.0000;0.0904;-0.8303;
585.3000;0.0895;-0.8326;
585.6000;0.0985;-0.8100;
585.9000;0.0806;-0.8575;
586.2000;0.0855;-0.8530;
586.5000;0.0887;-0.8394;
586.8000;0.0830;-0.8394;
587.1000;0.0904;-0.8213;
587.4000;0.0887;-0.8236;
587.7000;0.0904;-0.8258;
588.0000;0.0969;-0.8145;
588.3000;0.0838;-0.8507;
588.6000;0.0912;-0.8258;
588.9000;0.0920;-0.8213;
589.2000;0.0912;-0.8281;
589.5000;0.0928;-0.8258;
589.8000;0.0904;-0.8303;
590.1000;0.0928;-0.8190;
590.4000;0.0912;-0.8236;
590.7000;0.0920;-0.8100;
591.0000;0.0879;-0.8258;
591.3000;0.0871;-0.8236;
591.6000;0.0904;-0.8077;
591.9000;0.0944;-0.7987;
592.2000;0.0936;-0.7964;
592.5000;0.0904;-0.8032;
592.8000;0.0830;-0.8236;
593.1000;0.0904;-0.8168;
593.4000;0.0912;-0.8213;
593.7000;0.0781;-0.8507;
594.0000;0.0895;-0.8100;
594.3000;0.0904;-0.8168;
594.6000;0.0798;-0.8507;
594.9000;0.0985;-0.8055;
595.2000;0.0887;-0.8303;
595.5000;0.0944;-0.8236;
595.8000;0.0920;-0.8213;
596.1000;0.0904;-0.8303;
596.4000;0.0887;-0.8303;
596.7000;0.0895;-0.8213;
597.0000;0.0936;-0.8032;
597.3000;0.0936;-0.8009;
597.6000;0.0904;-0.8168;
597.9000;0.0863;-0.8303;
598.2000;0.0969;-0.8145;
598.5000;0.0912;-0.8168;
598.8000;0.0887;-0.8190;
599.1000;0.0887;-0.8236;
599.4000;0.0887;-0.8371;
599.7000;0.0879;-0.8439;
600.0000;0.0912;-0.8371;
600.3000;0.0912;-0.8484;
600.6000;0.0928;-0.8575;
600.9000;0.0895;-0.8688;
601.2000;0.0863;-0.8756;
601.5000;0.0871;-0.8801;
601.8000;0.0879;-0.8824;
602.1000;0.0904;-0.8846;
602.4000;0.0855;-0.8914;
602.7000;0.0790;-0.9095;
603.0000;0.0790;-0.9095;
603.3000;0.0944;-0.8892;
603.6000;0.0847;-0.9254;
603.9000;0.0822;-0.9322;
604.2000;0.0838;-0.9389;
604.5000;0.0790;-0.9525;
604.8000;0.0847;-0.9435;
605.1000;0.0757;-0.9661;
605.4000;0.0838;-0.9457;
605.7000;0.0879;-0.9322;
606.0000;0.0879;-0.9299;
606.3000;0.0757;-0.9616;
606.6000;0.0814;-0.9457;
606.9000;0.0830;-0.9412;
607.2000;0.0822;-0.9435;
607.5000;0.0847;-0.9389;
607.8000;0.0830;-0.9457;
608.1000;0.0790;-0.9593;
608.4000;0.0855;-0.9412;
608.7000;0.0871;-0.9344;
609.0000;0.0806;-0.9435;
609.3000;0.0830;-0.9435;
609.6000;0.0790;-0.9548;
609.9000;0.0847;-0.9435;
610.2000;0.0830;-0.9480;
610.5000;0.0806;-0.9503;
610.8000;0.0814;-0.9480;
611.1000;0.0814;-0.9548;
611.4000;0.0822;-0.9570;
611.7000;0.0806;-0.9661;
612.0000;0.0814;-0.9661;
612.3000;0.0863;-0.9593;
612.6000;0.0790;-0.9797;
612.9000;0.0741;-0.9887;
613.2000;0.0806;-0.9661;
613.5000;0.0879;-0.9503;
613.8000;0.0838;-0.9593;
614.1000;0.0781;-0.9729;
614.4000;0.0790;-0.9706;
614.7000;0.0773;-0.9774;
615.0000;0.0863;-0.9638;
615.3000;0.0806;-0.9797;
615.6000;0.0879;-0.9570;
615.9000;0.0781;-0.9774;
616.2000;0.0798;-0.9729;
616.5000;0.0806;-0.9774;
616.8000;0.0806;-0.9797;
617.1000;0.0790;-0.9774;
617.4000;0.0814;-0.9706;
617.7000;0.0790;-0.9751;
618.0000;0.0822;-0.9751;
618.3000;0.0838;-0.9684;
618.6000;0.0749;-0.9910;
618.9000;0.0798;-0.9797;
619.2000;0.0733;-0.9932;
619.5000;0.0806;-0.9729;
619.8000;0.0798;-0.9797;
620.1000;0.0790;-0.9865;
620.4000;0.0741;-1.0023;
620.7000;0.0806;-0.9842;
621.0000;0.0781;-0.9932;
621.3000;0.0855;-0.9751;
621.6000;0.0781;-0.9955;
621.9000;0.0773;-1.0000;
622.2000;0.0781;-0.9955;
622.5000;0.0798;-0.9910;
622.8000;0.0749;-0.9955;
623.1000;0.0773;-0.9819;
623.4000;0.0781;-0.9797;
623.7000;0.0895;-0.9503;
624.0000;0.0798;-0.9819;
624.3000;0.0798;-0.9774;
624.6000;0.0798;-0.9751;
624.9000;0.0790;-0.9819;
625.2000;0.0798;-0.9774;
625.5000;0.0741;-0.9910;
625.8000;0.0765;-0.9774;
626.1000;0.0781;-0.9797;
626.4000;0.0757;-0.9910;
626.7000;0.0749;-0.9978;
627.0000;0.0749;-0.9955;
627.3000;0.0773;-0.9729;
627.6000;0.0781;-0.9729;
627.9000;0.0790;-0.9774;
628.2000;0.0692;-0.9932;
628.5000;0.0814;-0.9729;
628.8000;0.0765;-0.9797;
629.1000;0.0790;-0.9751;
629.4000;0.0773;-0.9797;
629.7000;0.0773;-0.9887;
630.0000;0.0781;-0.9887;
630.3000;0.0798;-0.9774;
630.6000;0.0757;-0.9932;
630.9000;0.0749;-0.9932;
631.2000;0.0773;-0.9887;
631.5000;0.0790;-0.9865;
631.8000;0.0781;-0.9887;
632.1000;0.0781;-1.0000;
632.4000;0.0814;-0.9910;
632.7000;0.0781;-0.9978;
633.0000;0.0790;-1.0000;
633.3000;0.0781;-0.9978;
633.6000;0.0749;-1.0091;
633.9000;0.0757;-1.0046;
634.2000;0.0684;-1.0227;
634.5000;0.0757;-0.9955;
634.8000;0.0724;-0.9978;
635.1000;0.0790;-0.9774;
635.4000;0.0781;-0.9751;
635.7000;0.0741;-0.9865;
636.0000;0.0724;-0.9797;
636.3000;0.0757;-0.9706;
636.6000;0.0773;-0.9729;
636.9000;0.0773;-0.9751;
637.2000;0.0781;-0.9729;
637.5000;0.0765;-0.9865;
637.8000;0.0781;-0.9774;
638.1000;0.0733;-0.9842;
638.4000;0.0733;-0.9865;
638.7000;0.0781;-0.9797;
639.0000;0.0773;-0.9910;
639.3000;0.0757;-0.9910;
639.6000;0.0741;-0.9910;
639.9000;0.0741;-0.9910;
640.2000;0.0765;-0.9797;
640.5000;0.0773;-0.9797;
640.8000;0.0830;-0.9661;
641.1000;0.0830;-0.9593;
641.4000;0.0765;-0.9751;
641.7000;0.0749;-0.9729;
642.0000;0.0765;-0.9706;
642.3000;0.0765;-0.9751;
642.6000;0.0733;-0.9910;
642.9000;0.0757;-0.9797;
643.2000;0.0692;-1.0000;
643.5000;0.0749;-0.9865;
643.8000;0.0765;-0.9865;
644.1000;0.0773;-0.9887;
644.4000;0.0814;-0.9729;
644.7000;0.0781;-0.9842;
645.0000;0.0757;-0.9797;
645.3000;0.0773;-0.9751;
645.6000;0.0757;-0.9751;
645.9000;0.0733;-0.9774;
646.2000;0.0741;-0.9751;
646.5000;0.0749;-0.9910;
646.8000;0.0765;-0.9955;
647.1000;0.0773;-1.0000;
647.4000;0.0749;-1.0068;
647.7000;0.0765;-1.0023;
648.0000;0.0692;-1.0204;
648.3000;0.0798;-1.0000;
648.6000;0.0716;-1.0091;
648.9000;0.0781;-0.9819;
649.2000;0.0773;-0.9819;
649.5000;0.0749;-0.9955;
649.8000;0.0773;-1.0000;
650.1000;0.0871;-0.9865;
650.4000;0.0781;-1.0068;
650.7000;0.0765;-1.0068;
651.0000;0.0749;-1.0091;
651.3000;0.0749;-1.0227;
651.6000;0.0773;-1.0181;
651.9000;0.0773;-1.0136;
652.2000;0.0659;-1.0317;
652.5000;0.0708;-1.0159;
652.8000;0.0773;-1.0091;
653.1000;0.0757;-1.0159;
653.4000;0.0749;-1.0159;
653.7000;0.0757;-1.0113;
654.0000;0.0773;-1.0068;
654.3000;0.0765;-1.0068;
654.6000;0.0781;-1.0159;
654.9000;0.0741;-1.0249;
655.2000;0.0790;-1.0136;
655.5000;0.0757;-1.0181;
655.8000;0.0724;-1.0181;
656.1000;0.0716;-1.0159;
656.4000;0.0773;-1.0023;
656.7000;0.0757;-1.0046;
657.0000;0.0757;-0.9955;
657.3000;0.0733;-0.9955;
657.6000;0.0773;-0.9955;
657.9000;0.0757;-0.9910;
658.2000;0.0830;-0.9684;
658.5000;0.0757;-0.9932;
658.8000;0.0749;-1.0046;
659.1000;0.0806;-0.9797;
659.4000;0.0749;-0.9842;
659.7000;0.0741;-0.9819;
660.0000;0.0765;-0.9774;
660.3000;0.0822;-0.9616;
660.6000;0.0733;-0.9865;
660.9000;0.0724;-0.9978;
661.2000;0.0741;-0.9932;
661.5000;0.0773;-0.9819;
661.8000;0.0765;-0.9842;
662.1000;0.0749;-0.9887;
662.4000;0.0781;-0.9797;
662.7000;0.0643;-1.0136;
663.0000;0.0741;-0.9932;
663.3000;0.0741;-0.9932;
663.6000;0.0757;-0.9910;
663.9000;0.0741;-0.9932;
664.2000;0.0708;-1.0000;
664.5000;0.0765;-0.9910;
664.8000;0.0741;-0.9910;
665.1000;0.0741;-0.9910;
665.4000;0.0749;-0.9865;
665.7000;0.0757;-0.9887;
666.0000;0.0765;-0.9865;
666.3000;0.0749;-0.9910;
666.6000;0.0757;-0.9955;
666.9000;0.0741;-0.9955;
667.2000;0.0741;-0.9978;
667.5000;0.0741;-0.9910;
667.8000;0.0749;-0.9910;
668.1000;0.0757;-0.9842;
668.4000;0.0749;-0.9842;
668.7000;0.0749;-0.9797;
669.0000;0.0724;-0.9797;
669.3000;0.0757;-0.9706;
669.6000;0.0757;-0.9684;
669.9000;0.0749;-0.9729;
670.2000;0.0765;-0.9729;
670.5000;0.0741;-0.9751;
670.8000;0.0741;-0.9774;
671.1000;0.0741;-0.9751;
671.4000;0.0724;-0.9797;
671.7000;0.0749;-0.9638;
672.0000;0.0667;-0.9887;
672.3000;0.0749;-0.9751;
672.6000;0.0830;-0.9548;
672.9000;0.0749;-0.9706;
673.2000;0.0773;-0.9661;
673.5000;0.0765;-0.9684;
673.8000;0.0749;-0.9729;
674.1000;0.0798;-0.9570;
674.4000;0.0757;-0.9684;
674.7000;0.0594;-1.0023;
675.0000;0.0757;-0.9684;
675.3000;0.0724;-0.9706;
675.6000;0.0765;-0.9684;
675.9000;0.0757;-0.9751;
676.2000;0.0773;-0.9751;
676.5000;0.0757;-0.9910;
676.8000;0.0741;-0.9887;
677.1000;0.0781;-0.9774;
677.4000;0.0749;-0.9865;
677.7000;0.0700;-0.9932;
678.0000;0.0757;-0.9729;
678.3000;0.0757;-0.9706;
678.6000;0.0716;-0.9729;
678.9000;0.0741;-0.9593;
679.2000;0.0757;-0.9593;
679.5000;0.0765;-0.9616;
679.8000;0.0741;-0.9616;
680.1000;0.0806;-0.9525;
680.4000;0.0643;-0.9955;
680.7000;0.0716;-0.9819;
681.0000;0.0749;-0.9729;
681.3000;0.0733;-0.9797;
681.6000;0.0773;-0.9706;
681.9000;0.0741;-0.9819;
682.2000;0.0741;-0.9774;
682.5000;0.0749;-0.9729;
682.8000;0.0733;-0.9774;
683.1000;0.0700;-0.9819;
683.4000;0.0806;-0.9638;
683.7000;0.0757;-0.9819;
684.0000;0.0741;-0.9797;
684.3000;0.0741;-0.9774;
684.6000;0.0781;-0.9616;
684.9000;0.0757;-0.9706;
685.2000;0.0733;-0.9706;
685.5000;0.0798;-0.9548;
685.8000;0.0749;-0.9616;
686.1000;0.0716;-0.9684;
686.4000;0.0781;-0.9570;
686.7000;0.0741;-0.9819;
687.0000;0.0741;-0.9865;
687.3000;0.0757;-0.9842;
687.6000;0.0724;-0.9887;
687.9000;0.0749;-0.9842;
688.2000;0.0757;-0.9842;
688.5000;0.0781;-0.9729;
688.8000;0.0749;-0.9751;
689.1000;0.0741;-0.9729;
689.4000;0.0757;-0.9638;
689.7000;0.0733;-0.9706;
690.0000;0.0749;-0.9706;
690.3000;0.0741;-0.9751;
690.6000;0.0741;-0.9819;
690.9000;0.0733;-0.9797;
691.2000;0.0741;-0.9751;
691.5000;0.0806;-0.9593;
691.8000;0.0733;-0.9797;
692.1000;0.0700;-0.9932;
692.4000;0.0741;-0.9751;
692.7000;0.0855;-0.9525;
693.0000;0.0830;-0.9435;
693.3000;0.0781;-0.9593;
693.6000;0.0676;-0.9887;
693.9000;0.0749;-0.9729;
694.2000;0.0757;-0.9751;
694.5000;0.0757;-0.9797;
694.8000;0.0619;-1.0046;
695.1000;0.0765;-0.9797;
695.4000;0.0733;-0.9774;
695.7000;0.0790;-0.9616;
696.0000;0.0749;-0.9751;
696.3000;0.0716;-0.9819;
696.6000;0.0708;-0.9797;
696.9000;0.0724;-0.9774;
697.2000;0.0749;-0.9774;
697.5000;0.0741;-0.9751;
697.8000;0.0741;-0.9729;
698.1000;0.0757;-0.9706;
698.4000;0.0708;-0.9865;
698.7000;0.0830;-0.9548;
699.0000;0.0716;-0.9797;
699.3000;0.0733;-0.9638;
699.6000;0.0741;-0.9480;
699.9000;0.0749;-0.9389;
700.2000;0.0830;-0.9299;
700.5000;0.0733;-0.9412;
700.8000;0.0724;-0.9525;
701.1000;0.0798;-0.9344;
701.4000;0.0724;-0.9548;
701.7000;0.0724;-0.9616;
702.0000;0.0708;-0.9706;
702.3000;0.0749;-0.9661;
702.6000;0.0741;-0.9706;
702.9000;0.0724;-0.9797;
703.2000;0.0781;-0.9774;
703.5000;0.0724;-0.9955;
703.8000;0.0757;-0.9932;
704.1000;0.0724;-1.0046;
704.4000;0.0708;-1.0068;
704.7000;0.0733;-0.9955;
705.0000;0.0749;-0.9978;
705.3000;0.0733;-1.0000;
705.6000;0.0733;-0.9932;
705.9000;0.0733;-1.0023;
706.2000;0.0757;-0.9978;
706.5000;0.0716;-1.0046;
706.8000;0.0733;-0.9978;
707.1000;0.0773;-0.9910;
707.4000;0.0733;-0.9955;
707.7000;0.0749;-0.9910;
708.0000;0.0741;-0.9910;
708.3000;0.0733;-0.9978;
708.6000;0.0765;-0.9887;
708.9000;0.0733;-0.9932;
709.2000;0.0716;-1.0023;
709.5000;0.0757;-0.9910;
709.8000;0.0790;-0.9797;
710.1000;0.0757;-0.9887;
710.4000;0.0724;-0.9955;
710.7000;0.0741;-1.0046;
711.0000;0.0733;-1.0091;
711.3000;0.0741;-1.0113;
711.6000;0.0741;-1.0136;
711.9000;0.0790;-1.0091;
712.2000;0.0627;-1.0475;
712.5000;0.0724;-1.0159;
712.8000;0.0716;-1.0091;
713.1000;0.0733;-0.9955;
713.4000;0.0724;-1.0000;
713.7000;0.0619;-1.0159;
714.0000;0.0741;-0.9842;
714.3000;0.0773;-0.9729;
714.6000;0.0741;-0.9684;
714.9000;0.0822;-0.9435;
715.2000;0.0667;-0.9910;
715.5000;0.0741;-0.9819;
715.8000;0.0741;-0.9887;
716.1000;0.0741;-0.9910;
716.4000;0.0749;-0.9955;
716.7000;0.0749;-0.9887;
717.0000;0.0651;-1.0136;
717.3000;0.0676;-1.0023;
717.6000;0.0733;-0.9751;
717.9000;0.0790;-0.9570;
718.2000;0.0724;-0.9638;
718.5000;0.0733;-0.9661;
718.8000;0.0765;-0.9661;
719.1000;0.0733;-0.9729;
719.4000;0.0749;-0.9797;
719.7000;0.0757;-0.9887;
720.0000;0.0676;-1.0204;
720.3000;0.0724;-1.0000;
720.6000;0.0741;-0.9910;
720.9000;0.0635;-1.0113;
721.2000;0.0781;-0.9797;
721.5000;0.0716;-0.9751;
721.8000;0.0765;-0.9616;
722.1000;0.0773;-0.9593;
722.4000;0.0724;-0.9774;
722.7000;0.0733;-0.9751;
723.0000;0.0733;-0.9661;
723.3000;0.0741;-0.9548;
723.6000;0.0724;-0.9570;
723.9000;0.0757;-0.9525;
724.2000;0.0757;-0.9570;
724.5000;0.0741;-0.9661;
724.8000;0.0651;-0.9842;
725.1000;0.0708;-0.9638;
725.4000;0.0757;-0.9593;
725.7000;0.0773;-0.9593;
726.0000;0.0749;-0.9706;
726.3000;0.0733;-0.9797;
726.6000;0.0757;-0.9797;
726.9000;0.0708;-0.9910;
727.2000;0.0741;-0.9819;
727.5000;0.0684;-0.9842;
727.8000;0.0724;-0.9638;
728.1000;0.0895;-0.9186;
728.4000;0.0716;-0.9616;
728.7000;0.0733;-0.9684;
729.0000;0.0757;-0.9593;
729.3000;0.0741;-0.9661;
729.6000;0.0749;-0.9661;
729.9000;0.0749;-0.9661;
730.2000;0.0741;-0.9729;
730.5000;0.0724;-0.9684;
730.8000;0.0724;-0.9684;
731.1000;0.0716;-0.9684;
731.4000;0.0724;-0.9706;
731.7000;0.0724;-0.9684;
732.0000;0.0757;-0.9593;
732.3000;0.0724;-0.9684;
732.6000;0.0700;-0.9729;
732.9000;0.0716;-0.9729;
733.2000;0.0749;-0.9729;
733.5000;0.0724;-0.9819;
733.8000;0.0716;-0.9819;
734.1000;0.0733;-0.9797;
734.4000;0.0716;-0.9819;
734.7000;0.0773;-0.9570;
735.0000;0.0765;-0.9616;
735.3000;0.0773;-0.9593;
735.6000;0.0733;-0.9819;
735.9000;0.0692;-0.9932;
736.2000;0.0765;-0.9797;
736.5000;0.0781;-0.9774;
736.8000;0.0733;-0.9887;
737.1000;0.0724;-0.9797;
737.4000;0.0757;-0.9661;
737.7000;0.0651;-0.9955;
738.0000;0.0757;-0.9706;
738.3000;0.0781;-0.9616;
738.6000;0.0716;-0.9819;
738.9000;0.0733;-0.9819;
739.2000;0.0757;-0.9865;
739.5000;0.0724;-0.9865;
739.8000;0.0724;-0.9751;
740.1000;0.0781;-0.9593;
740.4000;0.0757;-0.9774;
740.7000;0.0749;-0.9684;
741.0000;0.0741;-0.9797;
741.3000;0.0692;-0.9887;
741.6000;0.0643;-0.9978;
741.9000;0.0733;-0.9729;
742.2000;0.0733;-0.9774;
742.5000;0.0684;-0.9819;
742.8000;0.0733;-0.9706;
743.1000;0.0749;-0.9638;
743.4000;0.0741;-0.9570;
743.7000;0.0749;-0.9593;
744.0000;0.0659;-0.9842;
744.3000;0.0757;-0.9570;
744.6000;0.0749;-0.9616;
744.9000;0.0708;-0.9661;
745.2000;0.0724;-0.9638;
745.5000;0.0741;-0.9593;
745.8000;0.0765;-0.9593;
746.1000;0.0733;-0.9570;
746.4000;0.0741;-0.9480;
746.7000;0.0773;-0.9412;
747.0000;0.0733;-0.9593;
747.3000;0.0733;-0.9593;
747.6000;0.0749;-0.9593;
747.9000;0.0749;-0.9570;
748.2000;0.0724;-0.9684;
748.5000;0.0733;-0.9616;
748.8000;0.0700;-0.9684;
749.1000;0.0741;-0.9616;
749.4000;0.0700;-0.9706;
749.7000;0.0765;-0.9684;
750.0000;0.0733;-0.9774;
750.3000;0.0749;-0.9797;
750.6000;0.0765;-0.9797;
750.9000;0.0708;-0.9955;
751.2000;0.0667;-1.0091;
751.5000;0.0790;-0.9819;
751.8000;0.0773;-0.9865;
752.1000;0.0757;-0.9774;
752.4000;0.0716;-0.9842;
752.7000;0.0814;-0.9638;
753.0000;0.0741;-0.9797;
753.3000;0.0757;-0.9684;
753.6000;0.0733;-0.9638;
753.9000;0.0733;-0.9570;
754.2000;0.0602;-0.9887;
754.5000;0.0733;-0.9638;
754.8000;0.0724;-0.9684;
755.1000;0.0822;-0.9412;
755.4000;0.0749;-0.9503;
755.7000;0.0716;-0.9616;
756.0000;0.0773;-0.9480;
756.3000;0.0741;-0.9503;
756.6000;0.0733;-0.9503;
756.9000;0.0724;-0.9616;
757.2000;0.0798;-0.9367;
757.5000;0.0716;-0.9616;
757.8000;0.0814;-0.9367;
758.1000;0.0757;-0.9548;
758.4000;0.0790;-0.9412;
758.7000;0.0724;-0.9570;
759.0000;0.0724;-0.9638;
759.3000;0.0724;-0.9570;
759.6000;0.0724;-0.9616;
759.9000;0.0741;-0.9548;
760.2000;0.0765;-0.9593;
760.5000;0.0749;-0.9684;
760.8000;0.0749;-0.9706;
761.1000;0.0822;-0.9503;
761.4000;0.0781;-0.9684;
761.7000;0.0733;-0.9842;
762.0000;0.0724;-0.9819;
762.3000;0.0781;-0.9706;
762.6000;0.0798;-0.9548;
762.9000;0.0765;-0.9706;
763.2000;0.0733;-0.9819;
763.5000;0.0733;-0.9797;
763.8000;0.0757;-0.9774;
764.1000;0.0741;-0.9729;
764.4000;0.0716;-0.9819;
764.7000;0.0733;-0.9751;
765.0000;0.0830;-0.9457;
765.3000;0.0733;-0.9661;
765.6000;0.0724;-0.9661;
765.9000;0.0749;-0.9503;
766.2000;0.0790;-0.9457;
766.5000;0.0708;-0.9661;
766.8000;0.0724;-0.9525;
767.1000;0.0830;-0.9322;
767.4000;0.0733;-0.9548;
767.7000;0.0757;-0.9435;
768.0000;0.0741;-0.9503;
768.3000;0.0724;-0.9638;
768.6000;0.0749;-0.9548;
768.9000;0.0749;-0.9457;
769.2000;0.0741;-0.9548;
769.5000;0.0749;-0.9525;
769.8000;0.0749;-0.9525;
770.1000;0.0741;-0.9661;
770.4000;0.0716;-0.9684;
770.7000;0.0724;-0.9729;
771.0000;0.0708;-0.9751;
771.3000;0.0757;-0.9616;
771.6000;0.0757;-0.9797;
771.9000;0.0708;-0.9797;
772.2000;0.0741;-0.9616;
772.5000;0.0741;-0.9684;
772.8000;0.0724;-0.9774;
773.1000;0.0765;-0.9661;
773.4000;0.0724;-0.9616;
773.7000;0.0741;-0.9480;
774.0000;0.0733;-0.9457;
774.3000;0.0781;-0.9412;
774.6000;0.0724;-0.9570;
774.9000;0.0724;-0.9593;
775.2000;0.0798;-0.9503;
775.5000;0.0757;-0.9638;
775.8000;0.0733;-0.9729;
776.1000;0.0627;-1.0023;
776.4000;0.0724;-0.9706;
776.7000;0.0749;-0.9593;
777.0000;0.0741;-0.9548;
777.3000;0.0676;-0.9684;
777.6000;0.0700;-0.9616;
777.9000;0.0741;-0.9503;
778.2000;0.0733;-0.9480;
778.5000;0.0765;-0.9435;
778.8000;0.0733;-0.9548;
779.1000;0.0765;-0.9570;
779.4000;0.0708;-0.9751;
779.7000;0.0830;-0.9525;
780.0000;0.0765;-0.9593;
780.3000;0.0741;-0.9661;
780.6000;0.0733;-0.9706;
780.9000;0.0676;-0.9842;
781.2000;0.0749;-0.9751;
781.5000;0.0733;-0.9774;
781.8000;0.0724;-0.9797;
782.1000;0.0733;-0.9751;
782.4000;0.0741;-0.9751;
782.7000;0.0741;-0.9797;
783.0000;0.0733;-0.9774;
783.3000;0.0741;-0.9774;
783.6000;0.0733;-0.9706;
783.9000;0.0716;-0.9729;
784.2000;0.0724;-0.9751;
784.5000;0.0627;-0.9932;
784.8000;0.0733;-0.9706;
785.1000;0.0708;-0.9661;
785.4000;0.0733;-0.9570;
785.7000;0.0708;-0.9570;
786.0000;0.0733;-0.9457;
786.3000;0.0724;-0.9480;
786.6000;0.0724;-0.9457;
786.9000;0.0700;-0.9548;
787.2000;0.0757;-0.9457;
787.5000;0.0733;-0.9548;
787.8000;0.0733;-0.9503;
788.1000;0.0578;-0.9819;
788.4000;0.0741;-0.9503;
788.7000;0.0716;-0.9616;
789.0000;0.0724;-0.9616;
789.3000;0.0749;-0.9570;
789.6000;0.0724;-0.9729;
789.9000;0.0749;-0.9706;
790.2000;0.0692;-0.9865;
790.5000;0.0741;-0.9706;
790.8000;0.0724;-0.9774;
791.1000;0.0765;-0.9638;
791.4000;0.0741;-0.9751;
791.7000;0.0733;-0.9774;
792.0000;0.0684;-0.9774;
792.3000;0.0724;-0.9684;
792.6000;0.0733;-0.9684;
792.9000;0.0741;-0.9593;
793.2000;0.0733;-0.9684;
793.5000;0.0781;-0.9593;
793.8000;0.0741;-0.9616;
794.1000;0.0741;-0.9616;
794.4000;0.0749;-0.9638;
794.7000;0.0741;-0.9570;
795.0000;0.0814;-0.9367;
795.3000;0.0781;-0.9412;
795.6000;0.0733;-0.9570;
795.9000;0.0643;-0.9887;
796.2000;0.0749;-0.9548;
796.5000;0.0724;-0.9593;
796.8000;0.0741;-0.9548;
797.1000;0.0708;-0.9593;
797.4000;0.0749;-0.9435;
797.7000;0.0749;-0.9412;
798.0000;0.0749;-0.9367;
798.3000;0.0781;-0.9299;
798.6000;0.0741;-0.9435;
798.9000;0.0733;-0.9435;
799.2000;0.0790;-0.9367;
799.5000;0.0733;-0.9480;
799.8000;0.0741;-0.9412;
800.1000;0.0700;-0.9548;
800.4000;0.0724;-0.9435;
800.7000;0.0708;-0.9480;
801.0000;0.0716;-0.9480;
801.3000;0.0651;-0.9661;
801.6000;0.0733;-0.9412;
801.9000;0.0716;-0.9480;
802.2000;0.0716;-0.9435;
802.5000;0.0741;-0.9367;
802.8000;0.0741;-0.9367;
803.1000;0.0765;-0.9322;
803.4000;0.0741;-0.9457;
803.7000;0.0733;-0.9480;
804.0000;0.0741;-0.9457;
804.3000;0.0724;-0.9525;
804.6000;0.0733;-0.9457;
804.9000;0.0773;-0.9480;
805.2000;0.0749;-0.9616;
805.5000;0.0716;-0.9706;
805.8000;0.0733;-0.9570;
806.1000;0.0733;-0.9548;
806.4000;0.0741;-0.9503;
806.7000;0.0741;-0.9548;
807.0000;0.0741;-0.9570;
807.3000;0.0798;-0.9503;
807.6000;0.0806;-0.9503;
807.9000;0.0708;-0.9706;
808.2000;0.0619;-0.9932;
808.5000;0.0773;-0.9661;
808.8000;0.0733;-0.9751;
809.1000;0.0749;-0.9684;
809.4000;0.0684;-0.9797;
809.7000;0.0741;-0.9616;
810.0000;0.0806;-0.9480;
810.3000;0.0733;-0.9638;
810.6000;0.0749;-0.9570;
810.9000;0.0684;-0.9729;
811.2000;0.0757;-0.9480;
811.5000;0.0749;-0.9435;
811.8000;0.0741;-0.9548;
812.1000;0.0749;-0.9593;
812.4000;0.0733;-0.9661;
812.7000;0.0757;-0.9684;
813.0000;0.0724;-0.9819;
813.3000;0.0749;-0.9751;
813.6000;0.0741;-0.9774;
813.9000;0.0806;-0.9661;
814.2000;0.0749;-0.9797;
814.5000;0.0749;-0.9684;
814.8000;0.0724;-0.9865;
815.1000;0.0594;-1.0181;
815.4000;0.0741;-0.9774;
815.7000;0.0724;-0.9751;
816.0000;0.0627;-0.9978;
816.3000;0.0741;-0.9684;
816.6000;0.0716;-0.9774;
816.9000;0.0724;-0.9638;
817.2000;0.0708;-0.9751;
817.5000;0.0741;-0.9638;
817.8000;0.0733;-0.9729;
818.1000;0.0741;-0.9706;
818.4000;0.0765;-0.9661;
818.7000;0.0733;-0.9729;
819.0000;0.0716;-0.9684;
819.3000;0.0757;-0.9570;
819.6000;0.0659;-0.9729;
819.9000;0.0757;-0.9548;
820.2000;0.0716;-0.9616;
820.5000;0.0692;-0.9706;
820.8000;0.0708;-0.9661;
821.1000;0.0749;-0.9706;
821.4000;0.0692;-0.9774;
821.7000;0.0741;-0.9729;
822.0000;0.0716;-0.9819;
822.3000;0.0757;-0.9751;
822.6000;0.0724;-0.9751;
822.9000;0.0741;-0.9684;
823.2000;0.0741;-0.9729;
823.5000;0.0757;-0.9729;
823.8000;0.0643;-0.9865;
824.1000;0.0757;-0.9593;
824.4000;0.0847;-0.9322;
824.7000;0.0692;-0.9638;
825.0000;0.0741;-0.9593;
825.3000;0.0765;-0.9525;
825.6000;0.0749;-0.9525;
825.9000;0.0716;-0.9593;
826.2000;0.0700;-0.9593;
826.5000;0.0700;-0.9593;
826.8000;0.0814;-0.9299;
827.1000;0.0765;-0.9503;
827.4000;0.0830;-0.9299;
827.7000;0.0749;-0.9457;
828.0000;0.0733;-0.9638;
828.3000;0.0798;-0.9480;
828.6000;0.0757;-0.9593;
828.9000;0.0741;-0.9638;
829.2000;0.0749;-0.9570;
829.5000;0.0741;-0.9570;
829.8000;0.0741;-0.9593;
830.1000;0.0724;-0.9706;
830.4000;0.0700;-0.9706;
830.7000;0.0741;-0.9548;
831.0000;0.0741;-0.9503;
831.3000;0.0741;-0.9525;
831.6000;0.0773;-0.9457;
831.9000;0.0830;-0.9322;
832.2000;0.0757;-0.9367;
832.5000;0.0724;-0.9389;
832.8000;0.0757;-0.9367;
833.1000;0.0733;-0.9435;
833.4000;0.0733;-0.9344;
833.7000;0.0733;-0.9367;
834.0000;0.0749;-0.9389;
834.3000;0.0724;-0.9457;
834.6000;0.0733;-0.9412;
834.9000;0.0773;-0.9322;
835.2000;0.0749;-0.9480;
835.5000;0.0733;-0.9503;
835.8000;0.0741;-0.9480;
836.1000;0.0830;-0.9299;
836.4000;0.0708;-0.9616;
836.7000;0.0716;-0.9616;
837.0000;0.0733;-0.9525;
837.3000;0.0741;-0.9548;
837.6000;0.0611;-0.9955;
837.9000;0.0749;-0.9593;
838.2000;0.0733;-0.9548;
838.5000;0.0765;-0.9457;
838.8000;0.0724;-0.9548;
839.1000;0.0627;-0.9797;
839.4000;0.0765;-0.9548;
839.7000;0.0733;-0.9706;
840.0000;0.0757;-0.9570;
840.3000;0.0733;-0.9616;
840.6000;0.0716;-0.9593;
840.9000;0.0733;-0.9548;
841.2000;0.0733;-0.9616;
841.5000;0.0724;-0.9548;
841.8000;0.0724;-0.9548;
842.1000;0.0749;-0.9457;
842.4000;0.0749;-0.9389;
842.7000;0.0749;-0.9435;
843.0000;0.0716;-0.9570;
843.3000;0.0627;-0.9774;
843.6000;0.0733;-0.9548;
843.9000;0.0733;-0.9525;
844.2000;0.0627;-0.9887;
844.5000;0.0757;-0.9525;
844.8000;0.0651;-0.9729;
845.1000;0.0757;-0.9480;
845.4000;0.0741;-0.9412;
845.7000;0.0716;-0.9480;
846.0000;0.0757;-0.9480;
846.3000;0.0822;-0.9389;
846.6000;0.0733;-0.9570;
846.9000;0.0724;-0.9570;
847.2000;0.0716;-0.9616;
847.5000;0.0757;-0.9525;
847.8000;0.0741;-0.9593;
848.1000;0.0765;-0.9503;
848.4000;0.0765;-0.9593;
848.7000;0.0749;-0.9661;
849.0000;0.0741;-0.9638;
849.3000;0.0765;-0.9593;
849.6000;0.0733;-0.9684;
849.9000;0.0798;-0.9503;
850.2000;0.0708;-0.9684;
850.5000;0.0790;-0.9503;
850.8000;0.0676;-0.9797;
851.1000;0.0716;-0.9593;
851.4000;0.0741;-0.9593;
851.7000;0.0692;-0.9774;
852.0000;0.0757;-0.9593;
852.3000;0.0716;-0.9661;
852.6000;0.0724;-0.9616;
852.9000;0.0635;-0.9842;
853.2000;0.0765;-0.9480;
853.5000;0.0757;-0.9548;
853.8000;0.0773;-0.9412;
854.1000;0.0741;-0.9525;
854.4000;0.0724;-0.9570;
854.7000;0.0749;-0.9525;
855.0000;0.0749;-0.9503;
855.3000;0.0773;-0.9435;
855.6000;0.0798;-0.9457;
855.9000;0.0724;-0.9661;
856.2000;0.0741;-0.9638;
856.5000;0.0716;-0.9751;
856.8000;0.0724;-0.9684;
857.1000;0.0781;-0.9412;
857.4000;0.0733;-0.9435;
857.7000;0.0733;-0.9548;
858.0000;0.0651;-0.9819;
858.3000;0.0716;-0.9638;
858.6000;0.0724;-0.9684;
858.9000;0.0643;-0.9797;
859.2000;0.0749;-0.9593;
859.5000;0.0733;-0.9570;
859.8000;0.0602;-0.9932;
860.1000;0.0838;-0.9367;
860.4000;0.0741;-0.9503;
860.7000;0.0733;-0.9638;
861.0000;0.0741;-0.9616;
861.3000;0.0708;-0.9729;
861.6000;0.0798;-0.9435;
861.9000;0.0781;-0.9503;
862.2000;0.0708;-0.9661;
862.5000;0.0708;-0.9661;
862.8000;0.0733;-0.9570;
863.1000;0.0602;-0.9819;
863.4000;0.0749;-0.9548;
863.7000;0.0741;-0.9593;
864.0000;0.0765;-0.9457;
864.3000;0.0741;-0.9503;
864.6000;0.0692;-0.9616;
864.9000;0.0733;-0.9593;
865.2000;0.0765;-0.9638;
865.5000;0.0749;-0.9661;
865.8000;0.0708;-0.9797;
866.1000;0.0733;-0.9706;
866.4000;0.0741;-0.9684;
866.7000;0.0733;-0.9706;
867.0000;0.0741;-0.9684;
867.3000;0.0724;-0.9661;
867.6000;0.0757;-0.9525;
867.9000;0.0798;-0.9412;
868.2000;0.0733;-0.9548;
868.5000;0.0659;-0.9774;
868.8000;0.0700;-0.9638;
869.1000;0.0757;-0.9435;
869.4000;0.0741;-0.9480;
869.7000;0.0741;-0.9548;
870.0000;0.0684;-0.9638;
870.3000;0.0700;-0.9570;
870.6000;0.0749;-0.9570;
870.9000;0.0790;-0.9457;
871.2000;0.0757;-0.9616;
871.5000;0.0733;-0.9661;
871.8000;0.0716;-0.9593;
872.1000;0.0708;-0.9593;
872.4000;0.0749;-0.9525;
872.7000;0.0733;-0.9503;
873.0000;0.0749;-0.9525;
873.3000;0.0741;-0.9548;
873.6000;0.0781;-0.9412;
873.9000;0.0716;-0.9548;
874.2000;0.0733;-0.9503;
874.5000;0.0733;-0.9548;
874.8000;0.0724;-0.9525;
875.1000;0.0733;-0.9457;
875.4000;0.0847;-0.9254;
875.7000;0.0716;-0.9570;
876.0000;0.0724;-0.9616;
876.3000;0.0733;-0.9503;
876.6000;0.0765;-0.9389;
876.9000;0.0676;-0.9570;
877.2000;0.0724;-0.9457;
877.5000;0.0724;-0.9525;
877.8000;0.0716;-0.9480;
878.1000;0.0733;-0.9457;
878.4000;0.0733;-0.9548;
878.7000;0.0716;-0.9593;
879.0000;0.0716;-0.9593;
879.3000;0.0749;-0.9593;
879.6000;0.0733;-0.9593;
879.9000;0.0741;-0.9525;
880.2000;0.0733;-0.9593;
880.5000;0.0724;-0.9638;
880.8000;0.0733;-0.9548;
881.1000;0.0765;-0.9480;
881.4000;0.0757;-0.9480;
881.7000;0.0741;-0.9548;
882.0000;0.0708;-0.9638;
882.3000;0.0708;-0.9661;
882.6000;0.0733;-0.9593;
882.9000;0.0716;-0.9684;
883.2000;0.0749;-0.9593;
883.5000;0.0741;-0.9661;
883.8000;0.0716;-0.9638;
884.1000;0.0781;-0.9503;
884.4000;0.0733;-0.9593;
884.7000;0.0741;-0.9616;
885.0000;0.0749;-0.9616;
885.3000;0.0724;-0.9684;
885.6000;0.0790;-0.9525;
885.9000;0.0716;-0.9638;
886.2000;0.0716;-0.9616;
886.5000;0.0724;-0.9548;
886.8000;0.0716;-0.9548;
887.1000;0.0733;-0.9570;
887.4000;0.0692;-0.9706;
887.7000;0.0724;-0.9684;
888.0000;0.0741;-0.9661;
888.3000;0.0724;-0.9729;
888.6000;0.0733;-0.9661;
888.9000;0.0716;-0.9684;
889.2000;0.0708;-0.9706;
889.5000;0.0749;-0.9706;
889.8000;0.0741;-0.9661;
890.1000;0.0716;-0.9729;
890.4000;0.0700;-0.9819;
890.7000;0.0798;-0.9503;
891.0000;0.0749;-0.9616;
891.3000;0.0733;-0.9729;
891.6000;0.0749;-0.9729;
891.9000;0.0741;-0.9774;
892.2000;0.0643;-0.9932;
892.5000;0.0708;-0.9684;
892.8000;0.0724;-0.9593;
893.1000;0.0749;-0.9548;
893.4000;0.0749;-0.9570;
893.7000;0.0765;-0.9503;
894.0000;0.0716;-0.9729;
894.3000;0.0838;-0.9322;
894.6000;0.0781;-0.9503;
894.9000;0.0741;-0.9593;
895.2000;0.0749;-0.9570;
895.5000;0.0716;-0.9661;
895.8000;0.0619;-0.9910;
896.1000;0.0733;-0.9503;
896.4000;0.0716;-0.9570;
896.7000;0.0749;-0.9457;
897.0000;0.0700;-0.9570;
897.3000;0.0741;-0.9593;
897.6000;0.0871;-0.9276;
897.9000;0.0749;-0.9570;
898.2000;0.0757;-0.9525;
898.5000;0.0724;-0.9616;
898.8000;0.0733;-0.9570;
899.1000;0.0749;-0.9570;
899.4000;0.0847;-0.9389;
899.7000;0.0830;-0.9503;
900.0000;0.0757;-0.9661;
900.3000;0.0716;-0.9819;
900.6000;0.0733;-0.9706;
900.9000;0.0781;-0.9548;
901.2000;0.0798;-0.9593;
901.5000;0.0716;-0.9751;
901.8000;0.0733;-0.9661;
902.1000;0.0716;-0.9684;
902.4000;0.0733;-0.9774;
902.7000;0.0700;-0.9910;
903.0000;0.0757;-0.9819;
903.3000;0.0700;-0.9865;
903.6000;0.0741;-0.9751;
903.9000;0.0757;-0.9797;
904.2000;0.0708;-0.9797;
904.5000;0.0773;-0.9457;
904.8000;0.0757;-0.9480;
905.1000;0.0716;-0.9570;
905.4000;0.0708;-0.9616;
905.7000;0.0716;-0.9638;
906.0000;0.0708;-0.9661;
906.3000;0.0733;-0.9638;
906.6000;0.0749;-0.9570;
906.9000;0.0724;-0.9593;
907.2000;0.0716;-0.9638;
907.5000;0.0716;-0.9706;
907.8000;0.0724;-0.9661;
908.1000;0.0700;-0.9729;
908.4000;0.0757;-0.9616;
908.7000;0.0741;-0.9706;
909.0000;0.0814;-0.9412;
909.3000;0.0676;-0.9729;
909.6000;0.0798;-0.9457;
909.9000;0.0741;-0.9638;
910.2000;0.0716;-0.9616;
910.5000;0.0733;-0.9616;
910.8000;0.0724;-0.9684;
911.1000;0.0757;-0.9548;
911.4000;0.0716;-0.9797;
911.7000;0.0733;-0.9797;
912.0000;0.0716;-0.9842;
912.3000;0.0708;-0.9887;
912.6000;0.0757;-0.9706;
912.9000;0.0716;-0.9751;
913.2000;0.0716;-0.9774;
913.5000;0.0708;-0.9729;
913.8000;0.0724;-0.9661;
914.1000;0.0716;-0.9684;
914.4000;0.0716;-0.9548;
914.7000;0.0757;-0.9457;
915.0000;0.0741;-0.9457;
915.3000;0.0733;-0.9503;
915.6000;0.0790;-0.9322;
915.9000;0.0749;-0.9412;
916.2000;0.0724;-0.9525;
916.5000;0.0806;-0.9322;
916.8000;0.0749;-0.9480;
917.1000;0.0749;-0.9503;
917.4000;0.0741;-0.9480;
917.7000;0.0781;-0.9367;
918.0000;0.0724;-0.9593;
918.3000;0.0724;-0.9525;
918.6000;0.0798;-0.9254;
918.9000;0.0733;-0.9525;
919.2000;0.0708;-0.9638;
919.5000;0.0716;-0.9684;
919.8000;0.0724;-0.9706;
920.1000;0.0749;-0.9638;
920.4000;0.0757;-0.9616;
920.7000;0.0733;-0.9638;
921.0000;0.0749;-0.9548;
921.3000;0.0741;-0.9684;
921.6000;0.0741;-0.9729;
921.9000;0.0708;-0.9819;
922.2000;0.0798;-0.9684;
922.5000;0.0798;-0.9616;
922.8000;0.0733;-0.9774;
923.1000;0.0724;-0.9729;
923.4000;0.0733;-0.9661;
923.7000;0.0749;-0.9729;
924.0000;0.0724;-0.9751;
924.3000;0.0619;-1.0000;
924.6000;0.0741;-0.9774;
924.9000;0.0724;-0.9842;
925.2000;0.0741;-0.9819;
925.5000;0.0741;-0.9842;
925.8000;0.0757;-0.9819;
926.1000;0.0749;-0.9819;
926.4000;0.0749;-0.9865;
926.7000;0.0757;-0.9865;
927.0000;0.0716;-0.9932;
927.3000;0.0700;-0.9955;
927.6000;0.0749;-0.9887;
927.9000;0.0765;-0.9842;
928.2000;0.0757;-0.9774;
928.5000;0.0724;-0.9774;
928.8000;0.0684;-0.9842;
929.1000;0.0749;-0.9661;
929.4000;0.0708;-0.9797;
929.7000;0.0749;-0.9751;
930.0000;0.0733;-0.9684;
930.3000;0.0757;-0.9616;
930.6000;0.0741;-0.9661;
930.9000;0.0741;-0.9570;
931.2000;0.0733;-0.9548;
931.5000;0.0741;-0.9570;
931.8000;0.0741;-0.9593;
932.1000;0.0700;-0.9774;
932.4000;0.0733;-0.9729;
932.7000;0.0749;-0.9661;
933.0000;0.0724;-0.9684;
933.3000;0.0741;-0.9593;
933.6000;0.0749;-0.9638;
933.9000;0.0749;-0.9661;
934.2000;0.0716;-0.9661;
934.5000;0.0716;-0.9706;
934.8000;0.0741;-0.9706;
935.1000;0.0741;-0.9684;
935.4000;0.0733;-0.9774;
935.7000;0.0733;-0.9774;
936.0000;0.0757;-0.9661;
936.3000;0.0724;-0.9865;
936.6000;0.0765;-0.9797;
936.9000;0.0749;-0.9842;
937.2000;0.0765;-0.9797;
937.5000;0.0724;-0.9797;
937.8000;0.0733;-0.9774;
938.1000;0.0724;-0.9865;
938.4000;0.0757;-0.9751;
938.7000;0.0741;-0.9706;
939.0000;0.0798;-0.9593;
939.3000;0.0773;-0.9684;
939.6000;0.0724;-0.9729;
939.9000;0.0749;-0.9684;
940.2000;0.0757;-0.9616;
940.5000;0.0733;-0.9661;
940.8000;0.0741;-0.9616;
941.1000;0.0765;-0.9548;
941.4000;0.0692;-0.9751;
941.7000;0.0716;-0.9638;
942.0000;0.0724;-0.9548;
942.3000;0.0757;-0.9503;
942.6000;0.0741;-0.9480;
942.9000;0.0733;-0.9548;
943.2000;0.0724;-0.9616;
943.5000;0.0708;-0.9661;
943.8000;0.0692;-0.9706;
944.1000;0.0741;-0.9480;
944.4000;0.0700;-0.9593;
944.7000;0.0692;-0.9616;
945.0000;0.0741;-0.9525;
945.3000;0.0708;-0.9616;
945.6000;0.0733;-0.9548;
945.9000;0.0733;-0.9503;
946.2000;0.0700;-0.9593;
946.5000;0.0684;-0.9593;
946.8000;0.0700;-0.9593;
947.1000;0.0692;-0.9638;
947.4000;0.0749;-0.9435;
947.7000;0.0749;-0.9389;
948.0000;0.0733;-0.9480;
948.3000;0.0765;-0.9435;
948.6000;0.0749;-0.9457;
948.9000;0.0635;-0.9797;
949.2000;0.0733;-0.9457;
949.5000;0.0651;-0.9684;
949.8000;0.0700;-0.9548;
950.1000;0.0733;-0.9457;
950.4000;0.0749;-0.9480;
950.7000;0.0757;-0.9389;
951.0000;0.0643;-0.9684;
951.3000;0.0765;-0.9322;
951.6000;0.0765;-0.9389;
951.9000;0.0651;-0.9661;
952.2000;0.0749;-0.9389;
952.5000;0.0733;-0.9412;
952.8000;0.0749;-0.9344;
953.1000;0.0741;-0.9389;
953.4000;0.0724;-0.9480;
953.7000;0.0676;-0.9729;
954.0000;0.0700;-0.9706;
954.3000;0.0749;-0.9638;
954.6000;0.0692;-0.9684;
954.9000;0.0741;-0.9548;
955.2000;0.0700;-0.9570;
955.5000;0.0749;-0.9457;
955.8000;0.0708;-0.9593;
956.1000;0.0741;-0.9435;
956.4000;0.0708;-0.9525;
956.7000;0.0830;-0.9231;
957.0000;0.0749;-0.9503;
957.3000;0.0724;-0.9548;
957.6000;0.0741;-0.9638;
957.9000;0.0724;-0.9616;
958.2000;0.0749;-0.9412;
958.5000;0.0724;-0.9503;
958.8000;0.0749;-0.9435;
959.1000;0.0708;-0.9480;
959.4000;0.0757;-0.9435;
959.7000;0.0749;-0.9503;
960.0000;0.0741;-0.9548;
960.3000;0.0749;-0.9525;
960.6000;0.0724;-0.9548;
960.9000;0.0700;-0.9616;
961.2000;0.0733;-0.9457;
961.5000;0.0733;-0.9525;
961.8000;0.0741;-0.9457;
962.1000;0.0667;-0.9638;
962.4000;0.0757;-0.9435;
962.7000;0.0733;-0.9548;
963.0000;0.0716;-0.9616;
963.3000;0.0773;-0.9525;
963.6000;0.0749;-0.9548;
963.9000;0.0554;-1.0046;
964.2000;0.0716;-0.9548;
964.5000;0.0733;-0.9367;
964.8000;0.0733;-0.9367;
965.1000;0.0733;-0.9389;
965.4000;0.0749;-0.9367;
965.7000;0.0733;-0.9412;
966.0000;0.0741;-0.9389;
966.3000;0.0708;-0.9480;
966.6000;0.0733;-0.9435;
966.9000;0.0724;-0.9503;
967.2000;0.0733;-0.9435;
967.5000;0.0741;-0.9389;
967.8000;0.0716;-0.9480;
968.1000;0.0724;-0.9389;
968.4000;0.0716;-0.9435;
968.7000;0.0765;-0.9344;
969.0000;0.0741;-0.9412;
969.3000;0.0765;-0.9276;
969.6000;0.0749;-0.9367;
969.9000;0.0733;-0.9412;
970.2000;0.0724;-0.9389;
970.5000;0.0733;-0.9412;
970.8000;0.0733;-0.9457;
971.1000;0.0749;-0.9412;
971.4000;0.0724;-0.9389;
971.7000;0.0733;-0.9367;
972.0000;0.0708;-0.9435;
972.3000;0.0724;-0.9503;
972.6000;0.0692;-0.9638;
972.9000;0.0724;-0.9480;
973.2000;0.0716;-0.9503;
973.5000;0.0741;-0.9480;
973.8000;0.0724;-0.9616;
974.1000;0.0733;-0.9525;
974.4000;0.0733;-0.9548;
974.7000;0.0708;-0.9616;
975.0000;0.0716;-0.9593;
975.3000;0.0741;-0.9525;
975.6000;0.0733;-0.9503;
975.9000;0.0781;-0.9344;
976.2000;0.0692;-0.9480;
976.5000;0.0684;-0.9616;
976.8000;0.0741;-0.9435;
977.1000;0.0741;-0.9435;
977.4000;0.0741;-0.9367;
977.7000;0.0716;-0.9525;
978.0000;0.0667;-0.9684;
978.3000;0.0757;-0.9457;
978.6000;0.0708;-0.9570;
978.9000;0.0757;-0.9525;
979.2000;0.0749;-0.9503;
979.5000;0.0733;-0.9480;
979.8000;0.0733;-0.9503;
980.1000;0.0716;-0.9503;
980.4000;0.0708;-0.9525;
980.7000;0.0692;-0.9570;
981.0000;0.0684;-0.9638;
981.3000;0.0741;-0.9503;
981.6000;0.0724;-0.9525;
981.9000;0.0765;-0.9435;
982.2000;0.0716;-0.9503;
982.5000;0.0773;-0.9322;
982.8000;0.0724;-0.9435;
983.1000;0.0700;-0.9503;
983.4000;0.0741;-0.9480;
983.7000;0.0790;-0.9412;
984.0000;0.0708;-0.9616;
984.3000;0.0773;-0.9435;
984.6000;0.0724;-0.9503;
984.9000;0.0781;-0.9322;
985.2000;0.0733;-0.9435;
985.5000;0.0708;-0.9503;
985.8000;0.0749;-0.9389;
986.1000;0.0708;-0.9525;
986.4000;0.0749;-0.9412;
986.7000;0.0676;-0.9525;
987.0000;0.0716;-0.9344;
987.3000;0.0684;-0.9457;
987.6000;0.0724;-0.9457;
987.9000;0.0684;-0.9593;
988.2000;0.0741;-0.9457;
988.5000;0.0651;-0.9684;
988.8000;0.0765;-0.9457;
989.1000;0.0733;-0.9570;
989.4000;0.0749;-0.9480;
989.7000;0.0716;-0.9480;
990.0000;0.0724;-0.9457;
990.3000;0.0716;-0.9548;
990.6000;0.0733;-0.9412;
990.9000;0.0749;-0.9367;
991.2000;0.0741;-0.9344;
991.5000;0.0741;-0.9457;
991.8000;0.0724;-0.9503;
992.1000;0.0700;-0.9525;
992.4000;0.0733;-0.9503;
992.7000;0.0724;-0.9525;
993.0000;0.0716;-0.9525;
993.3000;0.0749;-0.9457;
993.6000;0.0716;-0.9435;
993.9000;0.0708;-0.9457;
994.2000;0.0733;-0.9480;
994.5000;0.0741;-0.9457;
994.8000;0.0749;-0.9435;
995.1000;0.0724;-0.9480;
995.4000;0.0716;-0.9480;
995.7000;0.0733;-0.9480;
996.0000;0.0781;-0.9389;
996.3000;0.0749;-0.9435;
996.6000;0.0684;-0.9616;
996.9000;0.0643;-0.9797;
997.2000;0.0724;-0.9638;
997.5000;0.0724;-0.9661;
997.8000;0.0724;-0.9593;
998.1000;0.0716;-0.9616;
998.4000;0.0724;-0.9570;
998.7000;0.0724;-0.9548;
999.0000;0.0773;-0.9344;
999.3000;0.0708;-0.9548;
999.6000;0.0724;-0.9480;
999.9000;0.0676;-0.9661;
1000.2000;0.0684;-0.9684;
1000.5000;0.0733;-0.9638;
1000.8000;0.0741;-0.9616;
1001.1000;0.0741;-0.9593;
1001.4000;0.0806;-0.9480;
1001.7000;0.0749;-0.9638;
1002.0000;0.0659;-0.9797;
1002.3000;0.0708;-0.9616;
1002.6000;0.0733;-0.9548;
1002.9000;0.0708;-0.9570;
1003.2000;0.0724;-0.9435;
1003.5000;0.0716;-0.9548;
1003.8000;0.0741;-0.9389;
1004.1000;0.0773;-0.9254;
1004.4000;0.0708;-0.9412;
1004.7000;0.0749;-0.9435;
1005.0000;0.0733;-0.9389;
1005.3000;0.0741;-0.9435;
1005.6000;0.0724;-0.9435;
1005.9000;0.0724;-0.9480;
1006.2000;0.0733;-0.9570;
1006.5000;0.0724;-0.9638;
1006.8000;0.0806;-0.9412;
1007.1000;0.0741;-0.9616;
1007.4000;0.0733;-0.9684;
1007.7000;0.0716;-0.9729;
1008.0000;0.0724;-0.9706;
1008.3000;0.0700;-0.9774;
1008.6000;0.0733;-0.9684;
1008.9000;0.0733;-0.9684;
1009.2000;0.0724;-0.9616;
1009.5000;0.0741;-0.9616;
1009.8000;0.0724;-0.9593;
1010.1000;0.0724;-0.9593;
1010.4000;0.0757;-0.9548;
1010.7000;0.0724;-0.9503;
1011.0000;0.0733;-0.9435;
1011.3000;0.0724;-0.9457;
1011.6000;0.0741;-0.9412;
1011.9000;0.0700;-0.9548;
1012.2000;0.0724;-0.9570;
1012.5000;0.0700;-0.9616;
1012.8000;0.0643;-0.9865;
1013.1000;0.0757;-0.9684;
1013.4000;0.0724;-0.9751;
1013.7000;0.0684;-0.9865;
1014.0000;0.0733;-0.9661;
1014.3000;0.0749;-0.9638;
1014.6000;0.0692;-0.9751;
1014.9000;0.0733;-0.9684;
1015.2000;0.0749;-0.9661;
1015.5000;0.0724;-0.9706;
1015.8000;0.0724;-0.9797;
1016.1000;0.0716;-0.9774;
1016.4000;0.0765;-0.9729;
1016.7000;0.0733;-0.9684;
1017.0000;0.0700;-0.9729;
1017.3000;0.0708;-0.9729;
1017.6000;0.0733;-0.9706;
1017.9000;0.0733;-0.9684;
1018.2000;0.0741;-0.9661;
1018.5000;0.0716;-0.9774;
1018.8000;0.0749;-0.9616;
1019.1000;0.0733;-0.9593;
1019.4000;0.0708;-0.9616;
1019.7000;0.0724;-0.9616;
1020.0000;0.0659;-0.9887;
1020.3000;0.0708;-0.9729;
1020.6000;0.0757;-0.9593;
1020.9000;0.0724;-0.9616;
1021.2000;0.0733;-0.9661;
1021.5000;0.0716;-0.9638;
1021.8000;0.0749;-0.9548;
1022.1000;0.0798;-0.9435;
1022.4000;0.0676;-0.9729;
1022.7000;0.0700;-0.9661;
1023.0000;0.0790;-0.9457;
1023.3000;0.0749;-0.9661;
1023.6000;0.0651;-0.9865;
1023.9000;0.0659;-0.9910;
1024.2000;0.0765;-0.9593;
1024.5000;0.0716;-0.9661;
1024.8000;0.0733;-0.9593;
1025.1000;0.0716;-0.9661;
1025.4000;0.0895;-0.9344;
1025.7000;0.0741;-0.9751;
1026.0000;0.0684;-0.9932;
1026.3000;0.0741;-0.9842;
1026.6000;0.0741;-0.9797;
1026.9000;0.0741;-0.9774;
1027.2000;0.0733;-0.9842;
1027.5000;0.0733;-0.9842;
1027.8000;0.0724;-0.9842;
1028.1000;0.0716;-0.9842;
1028.4000;0.0724;-0.9751;
1028.7000;0.0733;-0.9887;
1029.0000;0.0733;-0.9887;
1029.3000;0.0757;-0.9751;
1029.6000;0.0765;-0.9751;
1029.9000;0.0749;-0.9797;
1030.2000;0.0724;-0.9751;
1030.5000;0.0749;-0.9706;
1030.8000;0.0741;-0.9729;
1031.1000;0.0733;-0.9797;
1031.4000;0.0830;-0.9435;
1031.7000;0.0773;-0.9570;
1032.0000;0.0749;-0.9638;
1032.3000;0.0724;-0.9684;
1032.6000;0.0700;-0.9774;
1032.9000;0.0741;-0.9774;
1033.2000;0.0773;-0.9616;
1033.5000;0.0724;-0.9751;
1033.8000;0.0619;-1.0000;
1034.1000;0.0708;-0.9706;
1034.4000;0.0733;-0.9616;
1034.7000;0.0716;-0.9706;
1035.0000;0.0741;-0.9593;
1035.3000;0.0716;-0.9570;
1035.6000;0.0790;-0.9412;
1035.9000;0.0733;-0.9570;
1036.2000;0.0716;-0.9593;
1036.5000;0.0741;-0.9548;
1036.8000;0.0741;-0.9480;
1037.1000;0.0757;-0.9480;
1037.4000;0.0724;-0.9661;
1037.7000;0.0651;-0.9842;
1038.0000;0.0700;-0.9684;
1038.3000;0.0724;-0.9593;
1038.6000;0.0716;-0.9593;
1038.9000;0.0716;-0.9525;
1039.2000;0.0749;-0.9525;
1039.5000;0.0724;-0.9593;
1039.8000;0.0733;-0.9593;
1040.1000;0.0741;-0.9480;
1040.4000;0.0741;-0.9525;
1040.7000;0.0757;-0.9525;
1041.0000;0.0749;-0.9503;
1041.3000;0.0724;-0.9548;
1041.6000;0.0790;-0.9389;
1041.9000;0.0724;-0.9616;
1042.2000;0.0741;-0.9548;
1042.5000;0.0700;-0.9684;
1042.8000;0.0741;-0.9661;
1043.1000;0.0749;-0.9661;
1043.4000;0.0716;-0.9706;
1043.7000;0.0741;-0.9684;
1044.0000;0.0790;-0.9548;
1044.3000;0.0741;-0.9729;
1044.6000;0.0733;-0.9774;
1044.9000;0.0749;-0.9751;
1045.2000;0.0741;-0.9751;
1045.5000;0.0733;-0.9819;
1045.8000;0.0757;-0.9797;
1046.1000;0.0676;-0.9887;
1046.4000;0.0724;-0.9842;
1046.7000;0.0741;-0.9774;
1047.0000;0.0749;-0.9797;
1047.3000;0.0741;-0.9819;
1047.6000;0.0708;-0.9842;
1047.9000;0.0749;-0.9684;
1048.2000;0.0716;-0.9751;
1048.5000;0.0716;-0.9638;
1048.8000;0.0733;-0.9661;
1049.1000;0.0700;-0.9797;
1049.4000;0.0716;-0.9797;
1049.7000;0.0708;-0.9842;
1050.0000;0.0798;-0.9684;
1050.3000;0.0741;-0.9842;
1050.6000;0.0765;-0.9842;
1050.9000;0.0749;-0.9887;
1051.2000;0.0708;-0.9887;
1051.5000;0.0724;-0.9797;
1051.8000;0.0716;-0.9774;
1052.1000;0.0733;-0.9684;
1052.4000;0.0733;-0.9638;
1052.7000;0.0741;-0.9570;
1053.0000;0.0741;-0.9503;
1053.3000;0.0724;-0.9593;
1053.6000;0.0847;-0.9322;
1053.9000;0.0733;-0.9684;
1054.2000;0.0716;-0.9706;
1054.5000;0.0724;-0.9593;
1054.8000;0.0659;-0.9774;
1055.1000;0.0724;-0.9706;
1055.4000;0.0676;-0.9819;
1055.7000;0.0749;-0.9570;
1056.0000;0.0749;-0.9570;
1056.3000;0.0716;-0.9774;
1056.6000;0.0733;-0.9706;
1056.9000;0.0724;-0.9729;
1057.2000;0.0741;-0.9706;
1057.5000;0.0724;-0.9684;
1057.8000;0.0773;-0.9480;
1058.1000;0.0724;-0.9593;
1058.4000;0.0830;-0.9322;
1058.7000;0.0724;-0.9616;
1059.0000;0.0757;-0.9503;
1059.3000;0.0724;-0.9751;
1059.6000;0.0741;-0.9751;
1059.9000;0.0716;-0.9819;
1060.2000;0.0716;-0.9865;
1060.5000;0.0757;-0.9797;
1060.8000;0.0733;-0.9819;
1061.1000;0.0716;-0.9842;
1061.4000;0.0806;-0.9593;
1061.7000;0.0716;-0.9797;
1062.0000;0.0733;-0.9706;
1062.3000;0.0765;-0.9661;
1062.6000;0.0724;-0.9684;
1062.9000;0.0733;-0.9661;
1063.2000;0.0741;-0.9638;
1063.5000;0.0733;-0.9706;
1063.8000;0.0716;-0.9729;
1064.1000;0.0716;-0.9774;
1064.4000;0.0708;-0.9797;
1064.7000;0.0733;-0.9729;
1065.0000;0.0733;-0.9751;
1065.3000;0.0724;-0.9751;
1065.6000;0.0716;-0.9774;
1065.9000;0.0733;-0.9751;
1066.2000;0.0757;-0.9638;
1066.5000;0.0676;-0.9865;
1066.8000;0.0757;-0.9684;
1067.1000;0.0716;-0.9706;
1067.4000;0.0716;-0.9661;
1067.7000;0.0733;-0.9661;
1068.0000;0.0733;-0.9661;
1068.3000;0.0708;-0.9684;
1068.6000;0.0773;-0.9570;
1068.9000;0.0733;-0.9684;
1069.2000;0.0733;-0.9684;
1069.5000;0.0708;-0.9842;
1069.8000;0.0716;-0.9729;
1070.1000;0.0708;-0.9751;
1070.4000;0.0781;-0.9570;
1070.7000;0.0733;-0.9661;
1071.0000;0.0798;-0.9389;
1071.3000;0.0814;-0.9412;
1071.6000;0.0716;-0.9774;
1071.9000;0.0741;-0.9706;
1072.2000;0.0716;-0.9797;
1072.5000;0.0724;-0.9774;
1072.8000;0.0773;-0.9661;
1073.1000;0.0611;-1.0023;
1073.4000;0.0692;-0.9729;
1073.7000;0.0733;-0.9684;
1074.0000;0.0716;-0.9684;
1074.3000;0.0733;-0.9661;
1074.6000;0.0741;-0.9638;
1074.9000;0.0741;-0.9684;
1075.2000;0.0765;-0.9684;
1075.5000;0.0733;-0.9729;
1075.8000;0.0733;-0.9616;
1076.1000;0.0733;-0.9638;
1076.4000;0.0773;-0.9525;
1076.7000;0.0733;-0.9684;
1077.0000;0.0741;-0.9661;
1077.3000;0.0724;-0.9684;
1077.6000;0.0708;-0.9729;
1077.9000;0.0716;-0.9729;
1078.2000;0.0716;-0.9729;
1078.5000;0.0635;-0.9978;
1078.8000;0.0741;-0.9729;
1079.1000;0.0741;-0.9706;
1079.4000;0.0741;-0.9729;
1079.7000;0.0733;-0.9751;
1080.0000;0.0733;-0.9751;
1080.3000;0.0676;-0.9842;
1080.6000;0.0733;-0.9774;
1080.9000;0.0741;-0.9751;
1081.2000;0.0667;-0.9910;
1081.5000;0.0741;-0.9865;
1081.8000;0.0716;-0.9955;
1082.1000;0.0716;-0.9978;
1082.4000;0.0733;-0.9797;
1082.7000;0.0708;-0.9819;
1083.0000;0.0700;-0.9842;
1083.3000;0.0708;-0.9797;
1083.6000;0.0749;-0.9593;
1083.9000;0.0733;-0.9616;
1084.2000;0.0700;-0.9751;
1084.5000;0.0700;-0.9774;
1084.8000;0.0733;-0.9751;
1085.1000;0.0741;-0.9616;
1085.4000;0.0716;-0.9616;
1085.7000;0.0741;-0.9548;
1086.0000;0.0716;-0.9638;
1086.3000;0.0757;-0.9638;
1086.6000;0.0733;-0.9751;
1086.9000;0.0741;-0.9706;
1087.2000;0.0733;-0.9684;
1087.5000;0.0733;-0.9684;
1087.8000;0.0749;-0.9661;
1088.1000;0.0749;-0.9661;
1088.4000;0.0724;-0.9729;
1088.7000;0.0716;-0.9706;
1089.0000;0.0700;-0.9729;
1089.3000;0.0716;-0.9684;
1089.6000;0.0733;-0.9661;
1089.9000;0.0781;-0.9593;
1090.2000;0.0765;-0.9570;
1090.5000;0.0765;-0.9593;
1090.8000;0.0716;-0.9638;
1091.1000;0.0749;-0.9525;
1091.4000;0.0733;-0.9593;
1091.7000;0.0724;-0.9548;
1092.0000;0.0692;-0.9706;
1092.3000;0.0741;-0.9525;
1092.6000;0.0733;-0.9548;
1092.9000;0.0724;-0.9480;
1093.2000;0.0757;-0.9412;
1093.5000;0.0684;-0.9480;
1093.8000;0.0724;-0.9412;
1094.1000;0.0716;-0.9525;
1094.4000;0.0700;-0.9593;
1094.7000;0.0724;-0.9548;
1095.0000;0.0724;-0.9661;
1095.3000;0.0684;-0.9684;
1095.6000;0.0700;-0.9593;
1095.9000;0.0733;-0.9548;
1096.2000;0.0733;-0.9480;
1096.5000;0.0724;-0.9525;
1096.8000;0.0724;-0.9503;
1097.1000;0.0635;-0.9774;
1097.4000;0.0838;-0.9231;
1097.7000;0.0741;-0.9412;
1098.0000;0.0733;-0.9389;
1098.3000;0.0708;-0.9435;
1098.6000;0.0724;-0.9389;
1098.9000;0.0741;-0.9367;
1099.2000;0.0700;-0.9457;
1099.5000;0.0700;-0.9525;
1099.8000;0.0724;-0.9503;
1100.1000;0.0741;-0.9435;
1100.4000;0.0749;-0.9457;
1100.7000;0.0741;-0.9503;
1101.0000;0.0724;-0.9525;
1101.3000;0.0733;-0.9548;
1101.6000;0.0757;-0.9525;
1101.9000;0.0724;-0.9593;
1102.2000;0.0724;-0.9706;
1102.5000;0.0708;-0.9774;
1102.8000;0.0659;-0.9932;
1103.1000;0.0724;-0.9774;
1103.4000;0.0749;-0.9684;
1103.7000;0.0733;-0.9729;
1104.0000;0.0716;-0.9774;
1104.3000;0.0749;-0.9729;
1104.6000;0.0830;-0.9457;
1104.9000;0.0741;-0.9684;
1105.2000;0.0733;-0.9706;
1105.5000;0.0716;-0.9706;
1105.8000;0.0724;-0.9706;
1106.1000;0.0708;-0.9797;
1106.4000;0.0790;-0.9548;
1106.7000;0.0749;-0.9593;
1107.0000;0.0708;-0.9706;
1107.3000;0.0724;-0.9706;
1107.6000;0.0708;-0.9842;
1107.9000;0.0724;-0.9797;
1108.2000;0.0708;-0.9865;
1108.5000;0.0700;-0.9887;
1108.8000;0.0724;-0.9819;
1109.1000;0.0733;-0.9774;
1109.4000;0.0773;-0.9638;
1109.7000;0.0733;-0.9684;
1110.0000;0.0733;-0.9616;
1110.3000;0.0733;-0.9616;
1110.6000;0.0724;-0.9570;
1110.9000;0.0749;-0.9525;
1111.2000;0.0733;-0.9616;
1111.5000;0.0822;-0.9457;
1111.8000;0.0741;-0.9684;
1112.1000;0.0773;-0.9593;
1112.4000;0.0724;-0.9819;
1112.7000;0.0814;-0.9593;
1113.0000;0.0716;-0.9797;
1113.3000;0.0749;-0.9729;
1113.6000;0.0724;-0.9797;
1113.9000;0.0619;-1.0091;
1114.2000;0.0708;-0.9819;
1114.5000;0.0765;-0.9548;
1114.8000;0.0733;-0.9616;
1115.1000;0.0757;-0.9503;
1115.4000;0.0708;-0.9548;
1115.7000;0.0741;-0.9503;
1116.0000;0.0749;-0.9457;
1116.3000;0.0733;-0.9525;
1116.6000;0.0733;-0.9480;
1116.9000;0.0733;-0.9480;
1117.2000;0.0733;-0.9525;
1117.5000;0.0724;-0.9525;
1117.8000;0.0724;-0.9570;
1118.1000;0.0741;-0.9525;
1118.4000;0.0667;-0.9661;
1118.7000;0.0733;-0.9525;
1119.0000;0.0659;-0.9684;
1119.3000;0.0733;-0.9480;
1119.6000;0.0716;-0.9593;
1119.9000;0.0716;-0.9616;
1120.2000;0.0700;-0.9706;
1120.5000;0.0741;-0.9684;
1120.8000;0.0724;-0.9661;
1121.1000;0.0692;-0.9819;
1121.4000;0.0838;-0.9435;
1121.7000;0.0741;-0.9616;
1122.0000;0.0741;-0.9503;
1122.3000;0.0724;-0.9435;
1122.6000;0.0716;-0.9548;
1122.9000;0.0733;-0.9548;
1123.2000;0.0741;-0.9525;
1123.5000;0.0741;-0.9616;
1123.8000;0.0724;-0.9774;
1124.1000;0.0733;-0.9774;
1124.4000;0.0724;-0.9751;
1124.7000;0.0863;-0.9435;
1125.0000;0.0757;-0.9706;
1125.3000;0.0716;-0.9729;
1125.6000;0.0724;-0.9774;
1125.9000;0.0659;-0.9865;
1126.2000;0.0724;-0.9706;
1126.5000;0.0733;-0.9706;
1126.8000;0.0749;-0.9661;
1127.1000;0.0708;-0.9706;
1127.4000;0.0700;-0.9797;
1127.7000;0.0724;-0.9751;
1128.0000;0.0676;-0.9819;
1128.3000;0.0700;-0.9729;
1128.6000;0.0733;-0.9706;
1128.9000;0.0724;-0.9706;
1129.2000;0.0757;-0.9684;
1129.5000;0.0733;-0.9706;
1129.8000;0.0676;-0.9865;
1130.1000;0.0724;-0.9774;
1130.4000;0.0741;-0.9616;
1130.7000;0.0594;-0.9887;
1131.0000;0.0733;-0.9525;
1131.3000;0.0741;-0.9616;
1131.6000;0.0586;-0.9932;
1131.9000;0.0749;-0.9457;
1132.2000;0.0692;-0.9751;
1132.5000;0.0676;-0.9774;
1132.8000;0.0716;-0.9684;
1133.1000;0.0724;-0.9706;
1133.4000;0.0741;-0.9706;
1133.7000;0.0716;-0.9751;
1134.0000;0.0700;-0.9706;
1134.3000;0.0708;-0.9706;
1134.6000;0.0733;-0.9751;
1134.9000;0.0741;-0.9706;
1135.2000;0.0708;-0.9751;
1135.5000;0.0757;-0.9616;
1135.8000;0.0733;-0.9661;
1136.1000;0.0733;-0.9616;
1136.4000;0.0773;-0.9548;
1136.7000;0.0724;-0.9661;
1137.0000;0.0724;-0.9706;
1137.3000;0.0733;-0.9684;
1137.6000;0.0749;-0.9706;
1137.9000;0.0667;-0.9955;
1138.2000;0.0733;-0.9910;
1138.5000;0.0757;-0.9774;
1138.8000;0.0724;-0.9797;
1139.1000;0.0733;-0.9774;
1139.4000;0.0733;-0.9842;
1139.7000;0.0733;-0.9774;
1140.0000;0.0798;-0.9570;
1140.3000;0.0814;-0.9570;
1140.6000;0.0716;-0.9910;
1140.9000;0.0741;-0.9774;
1141.2000;0.0741;-0.9797;
1141.5000;0.0741;-0.9865;
1141.8000;0.0716;-0.9932;
1142.1000;0.0700;-0.9955;
1142.4000;0.0733;-0.9819;
1142.7000;0.0741;-0.9797;
1143.0000;0.0724;-0.9706;
1143.3000;0.0700;-0.9729;
1143.6000;0.0724;-0.9774;
1143.9000;0.0733;-0.9684;
1144.2000;0.0733;-0.9729;
1144.5000;0.0741;-0.9706;
1144.8000;0.0716;-0.9729;
1145.1000;0.0733;-0.9638;
1145.4000;0.0724;-0.9706;
1145.7000;0.0733;-0.9706;
1146.0000;0.0716;-0.9751;
1146.3000;0.0724;-0.9684;
1146.6000;0.0733;-0.9661;
1146.9000;0.0700;-0.9706;
1147.2000;0.0700;-0.9729;
1147.5000;0.0651;-0.9887;
1147.8000;0.0781;-0.9616;
1148.1000;0.0773;-0.9593;
1148.4000;0.0667;-0.9865;
1148.7000;0.0749;-0.9729;
1149.0000;0.0708;-0.9842;
1149.3000;0.0716;-0.9774;
1149.6000;0.0741;-0.9638;
1149.9000;0.0741;-0.9616;
1150.2000;0.0724;-0.9684;
1150.5000;0.0806;-0.9367;
1150.8000;0.0741;-0.9480;
1151.1000;0.0733;-0.9570;
1151.4000;0.0765;-0.9457;
1151.7000;0.0716;-0.9570;
1152.0000;0.0741;-0.9616;
1152.3000;0.0733;-0.9616;
1152.6000;0.0741;-0.9706;
1152.9000;0.0684;-0.9774;
1153.2000;0.0830;-0.9457;
1153.5000;0.0741;-0.9638;
1153.8000;0.0749;-0.9593;
1154.1000;0.0741;-0.9548;
1154.4000;0.0749;-0.9525;
1154.7000;0.0790;-0.9457;
1155.0000;0.0724;-0.9570;
1155.3000;0.0733;-0.9570;
1155.6000;0.0781;-0.9412;
1155.9000;0.0733;-0.9548;
1156.2000;0.0716;-0.9616;
1156.5000;0.0741;-0.9661;
1156.8000;0.0741;-0.9661;
1157.1000;0.0733;-0.9661;
1157.4000;0.0724;-0.9706;
1157.7000;0.0716;-0.9774;
1158.0000;0.0733;-0.9684;
1158.3000;0.0716;-0.9616;
1158.6000;0.0790;-0.9344;
1158.9000;0.0749;-0.9570;
1159.2000;0.0741;-0.9661;
1159.5000;0.0733;-0.9706;
1159.8000;0.0822;-0.9480;
1160.1000;0.0733;-0.9751;
1160.4000;0.0741;-0.9819;
1160.7000;0.0724;-0.9910;
1161.0000;0.0806;-0.9751;
1161.3000;0.0781;-0.9797;
1161.6000;0.0871;-0.9525;
1161.9000;0.0757;-0.9706;
1162.2000;0.0757;-0.9661;
1162.5000;0.0724;-0.9684;
1162.8000;0.0724;-0.9706;
1163.1000;0.0684;-0.9706;
1163.4000;0.0733;-0.9548;
1163.7000;0.0757;-0.9548;
1164.0000;0.0700;-0.9706;
1164.3000;0.0814;-0.9389;
1164.6000;0.0513;-1.0091;
1164.9000;0.0757;-0.9638;
1165.2000;0.0733;-0.9729;
1165.5000;0.0684;-0.9842;
1165.8000;0.0733;-0.9729;
1166.1000;0.0733;-0.9706;
1166.4000;0.0757;-0.9706;
1166.7000;0.0741;-0.9751;
1167.0000;0.0716;-0.9706;
1167.3000;0.0733;-0.9638;
1167.6000;0.0741;-0.9638;
1167.9000;0.0716;-0.9638;
1168.2000;0.0749;-0.9616;
1168.5000;0.0741;-0.9729;
1168.8000;0.0659;-0.9955;
1169.1000;0.0716;-0.9797;
1169.4000;0.0741;-0.9684;
1169.7000;0.0741;-0.9661;
1170.0000;0.0741;-0.9684;
1170.3000;0.0741;-0.9729;
1170.6000;0.0724;-0.9774;
1170.9000;0.0757;-0.9774;
1171.2000;0.0716;-0.9774;
1171.5000;0.0627;-1.0068;
1171.8000;0.0733;-0.9819;
1172.1000;0.0781;-0.9797;
1172.4000;0.0724;-0.9955;
1172.7000;0.0733;-0.9978;
1173.0000;0.0741;-0.9910;
1173.3000;0.0798;-0.9797;
1173.6000;0.0733;-0.9932;
1173.9000;0.0724;-0.9932;
1174.2000;0.0765;-0.9819;
1174.5000;0.0716;-0.9842;
1174.8000;0.0643;-1.0000;
1175.1000;0.0838;-0.9638;
1175.4000;0.0724;-0.9978;
1175.7000;0.0765;-0.9910;
1176.0000;0.0749;-0.9955;
1176.3000;0.0724;-0.9887;
1176.6000;0.0741;-0.9865;
1176.9000;0.0692;-0.9932;
1177.2000;0.0741;-0.9797;
1177.5000;0.0741;-0.9797;
1177.8000;0.0724;-0.9842;
1178.1000;0.0708;-0.9842;
1178.4000;0.0724;-0.9819;
1178.7000;0.0741;-0.9797;
1179.0000;0.0708;-0.9910;
1179.3000;0.0724;-0.9842;
1179.6000;0.0700;-0.9955;
1179.9000;0.0724;-0.9978;
1180.2000;0.0741;-0.9932;
1180.5000;0.0741;-0.9865;
1180.8000;0.0733;-0.9955;
1181.1000;0.0700;-1.0046;
1181.4000;0.0741;-1.0046;
1181.7000;0.0724;-1.0046;
1182.0000;0.0724;-0.9887;
1182.3000;0.0733;-0.9842;
1182.6000;0.0757;-0.9774;
1182.9000;0.0741;-0.9865;
1183.2000;0.0733;-0.9865;
1183.5000;0.0724;-0.9910;
1183.8000;0.0692;-0.9955;
1184.1000;0.0781;-0.9729;
1184.4000;0.0749;-0.9819;
1184.7000;0.0733;-0.9865;
1185.0000;0.0716;-0.9887;
1185.3000;0.0724;-0.9910;
1185.6000;0.0749;-0.9910;
1185.9000;0.0733;-0.9955;
1186.2000;0.0708;-1.0000;
1186.5000;0.0733;-0.9842;
1186.8000;0.0724;-0.9774;
1187.1000;0.0635;-0.9955;
1187.4000;0.0659;-0.9910;
1187.7000;0.0757;-0.9729;
1188.0000;0.0814;-0.9616;
1188.3000;0.0741;-0.9797;
1188.6000;0.0716;-0.9819;
1188.9000;0.0716;-0.9774;
1189.2000;0.0724;-0.9751;
1189.5000;0.0741;-0.9661;
1189.8000;0.0741;-0.9661;
1190.1000;0.0847;-0.9457;
1190.4000;0.0676;-0.9910;
1190.7000;0.0749;-0.9774;
1191.0000;0.0749;-0.9751;
1191.3000;0.0749;-0.9819;
1191.6000;0.0733;-0.9842;
1191.9000;0.0757;-0.9842;
1192.2000;0.0749;-0.9865;
1192.5000;0.0741;-0.9955;
1192.8000;0.0724;-0.9865;
1193.1000;0.0765;-0.9797;
1193.4000;0.0741;-0.9797;
1193.7000;0.0749;-0.9751;
1194.0000;0.0765;-0.9797;
1194.3000;0.0692;-0.9865;
1194.6000;0.0741;-0.9729;
1194.9000;0.0708;-0.9729;
1195.2000;0.0724;-0.9684;
1195.5000;0.0692;-0.9797;
1195.8000;0.0741;-0.9706;
1196.1000;0.0643;-1.0000;
1196.4000;0.0757;-0.9684;
1196.7000;0.0733;-0.9684;
1197.0000;0.0724;-0.9729;
1197.3000;0.0741;-0.9751;
1197.6000;0.0724;-0.9774;
1197.9000;0.0790;-0.9661;
1198.2000;0.0749;-0.9751;
1198.5000;0.0741;-0.9819;
1198.8000;0.0798;-0.9661;
1199.1000;0.0676;-0.9978;
1199.4000;0.0749;-0.9774;
1199.7000;0.0765;-0.9751;
1200.0000;0.0708;-0.9865;
1200.3000;0.0716;-0.9932;
1200.6000;0.0741;-0.9819;
1200.9000;0.0716;-0.9887;
1201.2000;0.0798;-0.9638;
1201.5000;0.0708;-0.9865;
1201.8000;0.0741;-0.9774;
1202.1000;0.0733;-0.9638;
1202.4000;0.0708;-0.9751;
1202.7000;0.0716;-0.9819;
1203.0000;0.0773;-0.9706;
1203.3000;0.0741;-0.9729;
1203.6000;0.0749;-0.9616;
1203.9000;0.0733;-0.9751;
1204.2000;0.0741;-0.9729;
1204.5000;0.0741;-0.9729;
1204.8000;0.0765;-0.9729;
1205.1000;0.0790;-0.9616;
1205.4000;0.0733;-0.9684;
1205.7000;0.0741;-0.9638;
1206.0000;0.0757;-0.9661;
1206.3000;0.0741;-0.9706;
1206.6000;0.0733;-0.9570;
1206.9000;0.0757;-0.9389;
1207.2000;0.0724;-0.9525;
1207.5000;0.0733;-0.9503;
1207.8000;0.0724;-0.9548;
1208.1000;0.0741;-0.9570;
1208.4000;0.0757;-0.9593;
1208.7000;0.0757;-0.9706;
1209.0000;0.0708;-0.9842;
1209.3000;0.0757;-0.9751;
1209.6000;0.0724;-0.9910;
1209.9000;0.0757;-0.9887;
1210.2000;0.0757;-0.9910;
1210.5000;0.0741;-0.9955;
1210.8000;0.0741;-0.9978;
1211.1000;0.0887;-0.9616;
1211.4000;0.0700;-1.0091;
1211.7000;0.0733;-0.9865;
1212.0000;0.0822;-0.9593;
1212.3000;0.0733;-0.9819;
1212.6000;0.0749;-0.9774;
1212.9000;0.0733;-0.9910;
1213.2000;0.0830;-0.9570;
1213.5000;0.0757;-0.9706;
1213.8000;0.0716;-0.9729;
1214.1000;0.0724;-0.9706;
1214.4000;0.0749;-0.9684;
1214.7000;0.0757;-0.9661;
1215.0000;0.0733;-0.9797;
1215.3000;0.0741;-0.9797;
1215.6000;0.0838;-0.9503;
1215.9000;0.0724;-0.9729;
1216.2000;0.0724;-0.9729;
1216.5000;0.0749;-0.9729;
1216.8000;0.0733;-0.9797;
1217.1000;0.0790;-0.9729;
1217.4000;0.0773;-0.9751;
1217.7000;0.0733;-0.9729;
1218.0000;0.0741;-0.9819;
1218.3000;0.0724;-0.9910;
1218.6000;0.0733;-0.9978;
1218.9000;0.0765;-0.9819;
1219.2000;0.0708;-0.9865;
1219.5000;0.0733;-0.9706;
1219.8000;0.0814;-0.9525;
1220.1000;0.0716;-0.9751;
1220.4000;0.0716;-0.9797;
1220.7000;0.0741;-0.9797;
1221.0000;0.0790;-0.9616;
1221.3000;0.0733;-0.9684;
1221.6000;0.0733;-0.9661;
1221.9000;0.0724;-0.9684;
1222.2000;0.0749;-0.9616;
1222.5000;0.0724;-0.9706;
1222.8000;0.0724;-0.9729;
1223.1000;0.0716;-0.9774;
1223.4000;0.0749;-0.9684;
1223.7000;0.0741;-0.9729;
1224.0000;0.0724;-0.9774;
1224.3000;0.0733;-0.9797;
1224.6000;0.0733;-0.9751;
1224.9000;0.0838;-0.9480;
1225.2000;0.0773;-0.9638;
1225.5000;0.0798;-0.9616;
1225.8000;0.0733;-0.9865;
1226.1000;0.0716;-0.9978;
1226.4000;0.0700;-0.9955;
1226.7000;0.0724;-0.9887;
1227.0000;0.0765;-0.9774;
1227.3000;0.0749;-0.9797;
1227.6000;0.0855;-0.9457;
1227.9000;0.0733;-0.9684;
1228.2000;0.0708;-0.9638;
1228.5000;0.0757;-0.9570;
1228.8000;0.0724;-0.9638;
1229.1000;0.0733;-0.9638;
1229.4000;0.0757;-0.9570;
1229.7000;0.0724;-0.9684;
1230.0000;0.0757;-0.9525;
1230.3000;0.0733;-0.9570;
1230.6000;0.0741;-0.9525;
1230.9000;0.0667;-0.9661;
1231.2000;0.0749;-0.9457;
1231.5000;0.0733;-0.9570;
1231.8000;0.0716;-0.9661;
1232.1000;0.0586;-1.0023;
1232.4000;0.0749;-0.9684;
1232.7000;0.0733;-0.9684;
1233.0000;0.0708;-0.9706;
1233.3000;0.0708;-0.9751;
1233.6000;0.0724;-0.9593;
1233.9000;0.0708;-0.9457;
1234.2000;0.0798;-0.9344;
1234.5000;0.0724;-0.9548;
1234.8000;0.0724;-0.9548;
1235.1000;0.0733;-0.9593;
1235.4000;0.0830;-0.9367;
1235.7000;0.0724;-0.9616;
1236.0000;0.0667;-0.9774;
1236.3000;0.0716;-0.9706;
1236.6000;0.0749;-0.9684;
1236.9000;0.0765;-0.9661;
1237.2000;0.0741;-0.9819;
1237.5000;0.0749;-0.9797;
1237.8000;0.0733;-0.9797;
1238.1000;0.0733;-0.9797;
1238.4000;0.0716;-0.9932;
1238.7000;0.0733;-0.9887;
1239.0000;0.0749;-0.9842;
1239.3000;0.0749;-0.9819;
1239.6000;0.0733;-0.9819;
1239.9000;0.0684;-0.9887;
1240.2000;0.0757;-0.9774;
1240.5000;0.0684;-0.9978;
1240.8000;0.0733;-0.9819;
1241.1000;0.0716;-0.9819;
1241.4000;0.0724;-0.9842;
1241.7000;0.0651;-1.0046;
1242.0000;0.0716;-0.9887;
1242.3000;0.0733;-0.9842;
1242.6000;0.0724;-0.9774;
1242.9000;0.0733;-0.9729;
1243.2000;0.0716;-0.9774;
1243.5000;0.0708;-0.9865;
1243.8000;0.0749;-0.9774;
1244.1000;0.0716;-0.9842;
1244.4000;0.0749;-0.9774;
1244.7000;0.0733;-0.9797;
1245.0000;0.0733;-0.9751;
1245.3000;0.0838;-0.9480;
1245.6000;0.0724;-0.9751;
1245.9000;0.0700;-0.9932;
1246.2000;0.0741;-0.9842;
1246.5000;0.0757;-0.9797;
1246.8000;0.0733;-0.9819;
1247.1000;0.0733;-0.9751;
1247.4000;0.0724;-0.9774;
1247.7000;0.0806;-0.9616;
1248.0000;0.0708;-0.9887;
1248.3000;0.0733;-0.9819;
1248.6000;0.0716;-0.9842;
1248.9000;0.0781;-0.9729;
1249.2000;0.0749;-0.9774;
1249.5000;0.0716;-0.9751;
1249.8000;0.0724;-0.9706;
1250.1000;0.0741;-0.9616;
1250.4000;0.0733;-0.9593;
1250.7000;0.0733;-0.9684;
1251.0000;0.0733;-0.9729;
1251.3000;0.0741;-0.9684;
1251.6000;0.0806;-0.9570;
1251.9000;0.0749;-0.9684;
1252.2000;0.0724;-0.9706;
1252.5000;0.0692;-0.9774;
1252.8000;0.0749;-0.9616;
1253.1000;0.0741;-0.9570;
1253.4000;0.0733;-0.9638;
1253.7000;0.0659;-0.9797;
1254.0000;0.0733;-0.9638;
1254.3000;0.0757;-0.9684;
1254.6000;0.0838;-0.9389;
1254.9000;0.0773;-0.9548;
1255.2000;0.0749;-0.9706;
1255.5000;0.0773;-0.9729;
1255.8000;0.0741;-0.9751;
1256.1000;0.0733;-0.9842;
1256.4000;0.0757;-0.9842;
1256.7000;0.0733;-0.9932;
1257.0000;0.0741;-1.0000;
1257.3000;0.0700;-1.0068;
1257.6000;0.0692;-1.0113;
1257.9000;0.0659;-1.0181;
1258.2000;0.0733;-1.0113;
1258.5000;0.0749;-1.0046;
1258.8000;0.0733;-1.0000;
1259.1000;0.0781;-0.9751;
1259.4000;0.0724;-0.9797;
1259.7000;0.0716;-0.9797;
1260.0000;0.0724;-0.9910;
1260.3000;0.0757;-0.9842;
1260.6000;0.0716;-0.9910;
1260.9000;0.0716;-0.9865;
1261.2000;0.0773;-0.9638;
1261.5000;0.0724;-0.9706;
1261.8000;0.0716;-0.9797;
1262.1000;0.0724;-0.9842;
1262.4000;0.0741;-0.9819;
1262.7000;0.0708;-0.9842;
1263.0000;0.0765;-0.9729;
1263.3000;0.0708;-0.9887;
1263.6000;0.0708;-0.9842;
1263.9000;0.0708;-0.9751;
1264.2000;0.0692;-0.9774;
1264.5000;0.0724;-0.9706;
1264.8000;0.0724;-0.9661;
1265.1000;0.0716;-0.9661;
1265.4000;0.0741;-0.9570;
1265.7000;0.0733;-0.9661;
1266.0000;0.0741;-0.9616;
1266.3000;0.0724;-0.9661;
1266.6000;0.0765;-0.9548;
1266.9000;0.0749;-0.9570;
1267.2000;0.0814;-0.9503;
1267.5000;0.0773;-0.9593;
1267.8000;0.0781;-0.9457;
1268.1000;0.0895;-0.9276;
1268.4000;0.0749;-0.9751;
1268.7000;0.0741;-0.9729;
1269.0000;0.0733;-0.9661;
1269.3000;0.0700;-0.9774;
1269.6000;0.0692;-0.9729;
1269.9000;0.0733;-0.9661;
1270.2000;0.0700;-0.9819;
1270.5000;0.0790;-0.9684;
1270.8000;0.0733;-0.9842;
1271.1000;0.0741;-0.9774;
1271.4000;0.0863;-0.9570;
1271.7000;0.0757;-0.9797;
1272.0000;0.0749;-0.9865;
1272.3000;0.0724;-0.9910;
1272.6000;0.0765;-0.9751;
1272.9000;0.0733;-0.9751;
1273.2000;0.0733;-0.9774;
1273.5000;0.0855;-0.9570;
1273.8000;0.0749;-0.9842;
1274.1000;0.0716;-0.9932;
1274.4000;0.0733;-0.9955;
1274.7000;0.0700;-1.0091;
1275.0000;0.0716;-1.0046;
1275.3000;0.0749;-0.9910;
1275.6000;0.0757;-0.9932;
1275.9000;0.0724;-0.9910;
1276.2000;0.0716;-0.9910;
1276.5000;0.0676;-0.9910;
1276.8000;0.0724;-0.9774;
1277.1000;0.0757;-0.9797;
1277.4000;0.0757;-0.9842;
1277.7000;0.0659;-1.0091;
1278.0000;0.0757;-0.9887;
1278.3000;0.0733;-1.0023;
1278.6000;0.0692;-0.9978;
1278.9000;0.0757;-0.9865;
1279.2000;0.0733;-0.9797;
1279.5000;0.0741;-0.9729;
1279.8000;0.0667;-0.9865;
1280.1000;0.0692;-0.9819;
1280.4000;0.0741;-0.9819;
1280.7000;0.0733;-0.9910;
1281.0000;0.0749;-0.9865;
1281.3000;0.0708;-0.9932;
1281.6000;0.0757;-0.9865;
1281.9000;0.0765;-0.9774;
1282.2000;0.0733;-0.9797;
1282.5000;0.0716;-0.9842;
1282.8000;0.0724;-0.9774;
1283.1000;0.0733;-0.9774;
1283.4000;0.0676;-0.9842;
1283.7000;0.0749;-0.9661;
1284.0000;0.0871;-0.9231;
1284.3000;0.0724;-0.9593;
1284.6000;0.0757;-0.9525;
1284.9000;0.0708;-0.9616;
1285.2000;0.0733;-0.9593;
1285.5000;0.0724;-0.9593;
1285.8000;0.0749;-0.9548;
1286.1000;0.0749;-0.9638;
1286.4000;0.0741;-0.9684;
1286.7000;0.0741;-0.9706;
1287.0000;0.0749;-0.9661;
1287.3000;0.0733;-0.9751;
1287.6000;0.0733;-0.9751;
1287.9000;0.0724;-0.9751;
1288.2000;0.0733;-0.9819;
1288.5000;0.0716;-0.9751;
1288.8000;0.0733;-0.9774;
1289.1000;0.0700;-0.9797;
1289.4000;0.0716;-0.9797;
1289.7000;0.0765;-0.9751;
1290.0000;0.0741;-0.9842;
1290.3000;0.0676;-1.0091;
1290.6000;0.0692;-1.0068;
1290.9000;0.0684;-1.0023;
1291.2000;0.0692;-0.9955;
1291.5000;0.0749;-0.9819;
1291.8000;0.0741;-0.9774;
1292.1000;0.0822;-0.9548;
1292.4000;0.0773;-0.9729;
1292.7000;0.0749;-0.9819;
1293.0000;0.0814;-0.9638;
1293.3000;0.0716;-0.9842;
1293.6000;0.0749;-0.9774;
1293.9000;0.0781;-0.9661;
1294.2000;0.0716;-0.9819;
1294.5000;0.0692;-0.9865;
1294.8000;0.0749;-0.9751;
1295.1000;0.0741;-0.9819;
1295.4000;0.0749;-0.9910;
1295.7000;0.0724;-0.9978;
1296.0000;0.0749;-0.9865;
1296.3000;0.0708;-0.9955;
1296.6000;0.0716;-0.9865;
1296.9000;0.0806;-0.9706;
1297.2000;0.0733;-0.9910;
1297.5000;0.0724;-0.9932;
1297.8000;0.0741;-0.9797;
1298.1000;0.0733;-0.9729;
1298.4000;0.0741;-0.9729;
1298.7000;0.0724;-0.9729;
1299.0000;0.0716;-0.9706;
1299.3000;0.0724;-0.9729;
1299.6000;0.0879;-0.9389;
1299.9000;0.0651;-0.9955;
1300.2000;0.0749;-0.9819;
1300.5000;0.0741;-0.9887;
1300.8000;0.0724;-0.9819;
1301.1000;0.0757;-0.9706;
1301.4000;0.0741;-0.9706;
1301.7000;0.0749;-0.9616;
1302.0000;0.0741;-0.9684;
1302.3000;0.0724;-0.9706;
1302.6000;0.0716;-0.9797;
1302.9000;0.0733;-0.9774;
1303.2000;0.0749;-0.9774;
1303.5000;0.0741;-0.9774;
1303.8000;0.0741;-0.9684;
1304.1000;0.0708;-0.9774;
1304.4000;0.0724;-0.9819;
1304.7000;0.0733;-0.9865;
1305.0000;0.0749;-0.9797;
1305.3000;0.0724;-0.9842;
1305.6000;0.0716;-0.9819;
1305.9000;0.0716;-0.9797;
1306.2000;0.0676;-0.9819;
1306.5000;0.0749;-0.9751;
1306.8000;0.0733;-0.9751;
1307.1000;0.0741;-0.9774;
1307.4000;0.0741;-0.9865;
1307.7000;0.0708;-0.9842;
1308.0000;0.0724;-0.9797;
1308.3000;0.0692;-1.0000;
1308.6000;0.0724;-0.9978;
1308.9000;0.0733;-1.0000;
1309.2000;0.0822;-0.9661;
1309.5000;0.0724;-0.9910;
1309.8000;0.0749;-0.9797;
1310.1000;0.0757;-0.9729;
1310.4000;0.0741;-0.9774;
1310.7000;0.0757;-0.9706;
1311.0000;0.0741;-0.9729;
1311.3000;0.0749;-0.9774;
1311.6000;0.0733;-0.9887;
1311.9000;0.0741;-0.9842;
1312.2000;0.0733;-0.9865;
1312.5000;0.0708;-0.9887;
1312.8000;0.0741;-0.9729;
1313.1000;0.0733;-0.9616;
1313.4000;0.0773;-0.9389;
1313.7000;0.0765;-0.9412;
1314.0000;0.0733;-0.9570;
1314.3000;0.0773;-0.9593;
1314.6000;0.0700;-0.9797;
1314.9000;0.0724;-0.9751;
1315.2000;0.0708;-0.9842;
1315.5000;0.0716;-0.9797;
1315.8000;0.0733;-0.9887;
1316.1000;0.0708;-0.9910;
1316.4000;0.0741;-0.9865;
1316.7000;0.0741;-0.9910;
1317.0000;0.0708;-1.0000;
1317.3000;0.0716;-0.9978;
1317.6000;0.0741;-0.9865;
1317.9000;0.0733;-0.9887;
1318.2000;0.0741;-0.9887;
1318.5000;0.0733;-0.9797;
1318.8000;0.0733;-0.9729;
1319.1000;0.0724;-0.9638;
1319.4000;0.0757;-0.9570;
1319.7000;0.0724;-0.9706;
1320.0000;0.0708;-0.9706;
1320.3000;0.0708;-0.9729;
1320.6000;0.0733;-0.9661;
1320.9000;0.0651;-1.0000;
1321.2000;0.0741;-0.9751;
1321.5000;0.0676;-0.9955;
1321.8000;0.0724;-0.9842;
1322.1000;0.0733;-0.9797;
1322.4000;0.0716;-0.9819;
1322.7000;0.0733;-0.9797;
1323.0000;0.0716;-0.9842;
1323.3000;0.0724;-0.9865;
1323.6000;0.0733;-0.9910;
1323.9000;0.0724;-1.0068;
1324.2000;0.0716;-1.0046;
1324.5000;0.0724;-1.0000;
1324.8000;0.0741;-0.9978;
1325.1000;0.0724;-0.9955;
1325.4000;0.0716;-0.9978;
1325.7000;0.0716;-0.9978;
1326.0000;0.0830;-0.9751;
1326.3000;0.0773;-0.9887;
1326.6000;0.0757;-0.9932;
1326.9000;0.0716;-1.0023;
1327.2000;0.0724;-1.0000;
1327.5000;0.0733;-0.9842;
1327.8000;0.0724;-0.9706;
1328.1000;0.0765;-0.9570;
1328.4000;0.0724;-0.9706;
1328.7000;0.0733;-0.9706;
1329.0000;0.0741;-0.9706;
1329.3000;0.0700;-0.9842;
1329.6000;0.0724;-0.9910;
1329.9000;0.0724;-0.9910;
1330.2000;0.0676;-0.9978;
1330.5000;0.0741;-0.9865;
1330.8000;0.0708;-0.9932;
1331.1000;0.0798;-0.9774;
1331.4000;0.0708;-1.0023;
1331.7000;0.0741;-0.9978;
1332.0000;0.0733;-1.0046;
1332.3000;0.0749;-1.0046;
1332.6000;0.0741;-1.0136;
1332.9000;0.0716;-1.0091;
1333.2000;0.0749;-1.0091;
1333.5000;0.0733;-1.0046;
1333.8000;0.0733;-1.0113;
1334.1000;0.0741;-1.0113;
1334.4000;0.0741;-1.0046;
1334.7000;0.0724;-1.0068;
1335.0000;0.0708;-1.0046;
1335.3000;0.0741;-0.9910;
1335.6000;0.0733;-0.9842;
1335.9000;0.0798;-0.9751;
1336.2000;0.0741;-0.9932;
1336.5000;0.0749;-0.9955;
1336.8000;0.0741;-1.0000;
1337.1000;0.0741;-1.0046;
1337.4000;0.0765;-0.9887;
1337.7000;0.0724;-0.9887;
1338.0000;0.0798;-0.9751;
1338.3000;0.0676;-0.9978;
1338.6000;0.0806;-0.9593;
1338.9000;0.0724;-0.9842;
1339.2000;0.0773;-0.9774;
1339.5000;0.0733;-0.9865;
1339.8000;0.0716;-0.9955;
1340.1000;0.0749;-0.9887;
1340.4000;0.0733;-0.9955;
1340.7000;0.0733;-0.9978;
1341.0000;0.0814;-0.9729;
1341.3000;0.0733;-0.9865;
1341.6000;0.0733;-0.9842;
1341.9000;0.0741;-0.9774;
1342.2000;0.0757;-0.9819;
1342.5000;0.0733;-0.9865;
1342.8000;0.0724;-0.9819;
1343.1000;0.0749;-0.9774;
1343.4000;0.0700;-0.9887;
1343.7000;0.0708;-0.9865;
1344.0000;0.0716;-0.9774;
1344.3000;0.0733;-0.9797;
1344.6000;0.0724;-0.9865;
1344.9000;0.0692;-1.0046;
1345.2000;0.0733;-0.9932;
1345.5000;0.0765;-0.9819;
1345.8000;0.0741;-0.9842;
1346.1000;0.0741;-0.9887;
1346.4000;0.0716;-0.9910;
1346.7000;0.0749;-0.9797;
1347.0000;0.0741;-0.9751;
1347.3000;0.0733;-0.9774;
1347.6000;0.0733;-0.9797;
1347.9000;0.0749;-0.9797;
1348.2000;0.0757;-0.9842;
1348.5000;0.0724;-0.9910;
1348.8000;0.0733;-0.9910;
1349.1000;0.0733;-0.9932;
1349.4000;0.0749;-0.9932;
1349.7000;0.0733;-1.0091;
1350.0000;0.0676;-1.0227;
1350.3000;0.0716;-1.0136;
1350.6000;0.0749;-1.0113;
1350.9000;0.0741;-1.0159;
1351.2000;0.0855;-0.9865;
1351.5000;0.0716;-1.0159;
1351.8000;0.0741;-1.0068;
1352.1000;0.0741;-1.0023;
1352.4000;0.0724;-1.0000;
1352.7000;0.0741;-1.0000;
1353.0000;0.0741;-1.0068;
1353.3000;0.0741;-1.0091;
1353.6000;0.0700;-1.0113;
1353.9000;0.0733;-0.9955;
1354.2000;0.0863;-0.9661;
1354.5000;0.0733;-1.0000;
1354.8000;0.0741;-1.0000;
1355.1000;0.0790;-0.9865;
1355.4000;0.0741;-0.9932;
1355.7000;0.0724;-0.9955;
1356.0000;0.0741;-0.9887;
1356.3000;0.0733;-0.9932;
1356.6000;0.0733;-1.0000;
1356.9000;0.0757;-1.0046;
1357.2000;0.0806;-0.9910;
1357.5000;0.0822;-0.9932;
1357.8000;0.0749;-1.0091;
1358.1000;0.0733;-1.0046;
1358.4000;0.0757;-0.9932;
1358.7000;0.0733;-0.9932;
1359.0000;0.0700;-0.9978;
1359.3000;0.0741;-0.9932;
1359.6000;0.0749;-0.9932;
1359.9000;0.0814;-0.9774;
1360.2000;0.0741;-1.0023;
1360.5000;0.0773;-0.9932;
1360.8000;0.0733;-1.0091;
1361.1000;0.0741;-0.9978;
1361.4000;0.0724;-1.0046;
1361.7000;0.0749;-0.9978;
1362.0000;0.0733;-1.0068;
1362.3000;0.0724;-1.0113;
1362.6000;0.0708;-1.0113;
1362.9000;0.0773;-0.9978;
1363.2000;0.0724;-1.0136;
1363.5000;0.0757;-0.9955;
1363.8000;0.0724;-1.0068;
1364.1000;0.0708;-1.0091;
1364.4000;0.0757;-0.9932;
1364.7000;0.0676;-1.0046;
1365.0000;0.0676;-1.0091;
1365.3000;0.0733;-1.0000;
1365.6000;0.0733;-1.0046;
1365.9000;0.0733;-0.9955;
1366.2000;0.0741;-0.9955;
1366.5000;0.0667;-1.0181;
1366.8000;0.0733;-0.9910;
1367.1000;0.0749;-0.9797;
1367.4000;0.0822;-0.9593;
1367.7000;0.0708;-0.9887;
1368.0000;0.0765;-0.9797;
1368.3000;0.0757;-0.9774;
1368.6000;0.0700;-0.9910;
1368.9000;0.0749;-0.9774;
1369.2000;0.0749;-0.9751;
1369.5000;0.0724;-0.9842;
1369.8000;0.0749;-0.9774;
1370.1000;0.0733;-0.9842;
1370.4000;0.0733;-0.9842;
1370.7000;0.0724;-0.9842;
1371.0000;0.0724;-0.9955;
1371.3000;0.0741;-0.9887;
1371.6000;0.0773;-0.9797;
1371.9000;0.0716;-1.0000;
1372.2000;0.0733;-0.9865;
1372.5000;0.0749;-0.9751;
1372.8000;0.0716;-0.9751;
1373.1000;0.0716;-0.9865;
1373.4000;0.0733;-0.9910;
1373.7000;0.0847;-0.9548;
1374.0000;0.0773;-0.9774;
1374.3000;0.0700;-0.9978;
1374.6000;0.0667;-1.0046;
1374.9000;0.0716;-0.9865;
1375.2000;0.0733;-0.9887;
1375.5000;0.0700;-0.9910;
1375.8000;0.0733;-0.9819;
1376.1000;0.0716;-0.9887;
1376.4000;0.0724;-0.9955;
1376.7000;0.0733;-0.9887;
1377.0000;0.0733;-0.9910;
1377.3000;0.0733;-0.9955;
1377.6000;0.0724;-0.9955;
1377.9000;0.0733;-0.9910;
1378.2000;0.0700;-0.9978;
1378.5000;0.0684;-1.0000;
1378.8000;0.0749;-0.9865;
1379.1000;0.0724;-0.9887;
1379.4000;0.0724;-0.9706;
1379.7000;0.0733;-0.9819;
1380.0000;0.0716;-0.9751;
1380.3000;0.0700;-0.9797;
1380.6000;0.0708;-0.9797;
1380.9000;0.0733;-0.9842;
1381.2000;0.0741;-0.9819;
1381.5000;0.0692;-1.0000;
1381.8000;0.0773;-0.9865;
1382.1000;0.0716;-0.9978;
1382.4000;0.0733;-0.9978;
1382.7000;0.0733;-0.9955;
1383.0000;0.0716;-0.9932;
1383.3000;0.0708;-0.9910;
1383.6000;0.0676;-1.0000;
1383.9000;0.0602;-1.0136;
1384.2000;0.0733;-0.9910;
1384.5000;0.0733;-0.9887;
1384.8000;0.0773;-0.9661;
1385.1000;0.0733;-0.9729;
1385.4000;0.0708;-0.9706;
1385.7000;0.0724;-0.9751;
1386.0000;0.0790;-0.9616;
1386.3000;0.0708;-0.9797;
1386.6000;0.0733;-0.9706;
1386.9000;0.0733;-0.9842;
1387.2000;0.0724;-0.9887;
1387.5000;0.0733;-0.9932;
1387.8000;0.0716;-0.9910;
1388.1000;0.0741;-0.9819;
1388.4000;0.0741;-0.9932;
1388.7000;0.0708;-0.9910;
1389.0000;0.0798;-0.9616;
1389.3000;0.0684;-0.9842;
1389.6000;0.0684;-0.9819;
1389.9000;0.0733;-0.9729;
1390.2000;0.0724;-0.9751;
1390.5000;0.0741;-0.9774;
1390.8000;0.0708;-0.9887;
1391.1000;0.0684;-1.0023;
1391.4000;0.0781;-0.9751;
1391.7000;0.0676;-1.0068;
1392.0000;0.0724;-1.0023;
1392.3000;0.0692;-1.0046;
1392.6000;0.0790;-0.9865;
1392.9000;0.0741;-0.9932;
1393.2000;0.0749;-0.9955;
1393.5000;0.0741;-1.0000;
1393.8000;0.0724;-0.9978;
1394.1000;0.0700;-1.0091;
1394.4000;0.0741;-1.0000;
1394.7000;0.0724;-1.0023;
1395.0000;0.0741;-0.9955;
1395.3000;0.0733;-0.9978;
1395.6000;0.0724;-1.0068;
1395.9000;0.0757;-1.0046;
1396.2000;0.0765;-1.0113;
1396.5000;0.0716;-1.0159;
1396.8000;0.0733;-1.0113;
1397.1000;0.0741;-1.0091;
1397.4000;0.0741;-1.0136;
1397.7000;0.0741;-1.0136;
1398.0000;0.0741;-1.0204;
1398.3000;0.0724;-1.0272;
1398.6000;0.0708;-1.0249;
1398.9000;0.0757;-1.0159;
1399.2000;0.0733;-1.0181;
1399.5000;0.0716;-1.0136;
1399.8000;0.0790;-0.9932;
