time/ms;Fluo/V;P700 deltaI/I x10³;
-199.8000;0.0716;-1.0272;
-199.5000;0.0635;-1.0475;
-199.2000;0.0749;-1.0249;
-198.9000;0.0757;-1.0294;
-198.6000;0.0773;-1.0272;
-198.3000;0.0716;-1.0340;
-198.0000;0.0757;-1.0204;
-197.7000;0.0724;-1.0181;
-197.4000;0.0724;-1.0204;
-197.1000;0.0724;-1.0181;
-196.8000;0.0667;-1.0249;
-196.5000;0.0692;-1.0159;
-196.2000;0.0757;-0.9955;
-195.9000;0.0684;-1.0113;
-195.6000;0.0724;-1.0023;
-195.3000;0.0716;-1.0068;
-195.0000;0.0708;-1.0000;
-194.7000;0.0684;-1.0091;
-194.4000;0.0733;-0.9955;
-194.1000;0.0724;-1.0046;
-193.8000;0.0806;-0.9865;
-193.5000;0.0700;-1.0181;
-193.2000;0.0741;-1.0113;
-192.9000;0.0716;-1.0046;
-192.6000;0.0708;-1.0091;
-192.3000;0.0765;-1.0000;
-192.0000;0.0741;-1.0023;
-191.7000;0.0757;-1.0000;
-191.4000;0.0741;-1.0113;
-191.1000;0.0757;-1.0136;
-190.8000;0.0822;-0.9932;
-190.5000;0.0765;-1.0159;
-190.2000;0.0733;-1.0249;
-189.9000;0.0708;-1.0249;
-189.6000;0.0684;-1.0227;
-189.3000;0.0700;-1.0159;
-189.0000;0.0765;-0.9978;
-188.7000;0.0676;-1.0091;
-188.4000;0.0692;-1.0046;
-188.1000;0.0757;-0.9978;
-187.8000;0.0724;-0.9978;
-187.5000;0.0733;-1.0046;
-187.2000;0.0708;-1.0181;
-186.9000;0.0749;-1.0091;
-186.6000;0.0741;-1.0204;
-186.3000;0.0741;-1.0159;
-186.0000;0.0716;-1.0181;
-185.7000;0.0724;-1.0181;
-185.4000;0.0676;-1.0294;
-185.1000;0.0716;-1.0204;
-184.8000;0.0733;-1.0227;
-184.5000;0.0708;-1.0249;
-184.2000;0.0724;-1.0272;
-183.9000;0.0692;-1.0362;
-183.6000;0.0741;-1.0181;
-183.3000;0.0838;-0.9955;
-183.0000;0.0749;-1.0204;
-182.7000;0.0749;-1.0204;
-182.4000;0.0773;-1.0204;
-182.1000;0.0741;-1.0204;
-181.8000;0.0741;-1.0159;
-181.5000;0.0741;-1.0227;
-181.2000;0.0733;-1.0204;
-180.9000;0.0749;-1.0113;
-180.6000;0.0684;-1.0317;
-180.3000;0.0765;-1.0113;
-180.0000;0.0749;-1.0181;
-179.7000;0.0757;-1.0227;
-179.4000;0.0700;-1.0385;
-179.1000;0.0749;-1.0317;
-178.8000;0.0733;-1.0294;
-178.5000;0.0708;-1.0340;
-178.2000;0.0659;-1.0385;
-177.9000;0.0781;-1.0113;
-177.6000;0.0757;-1.0181;
-177.3000;0.0643;-1.0521;
-177.0000;0.0724;-1.0362;
-176.7000;0.0684;-1.0453;
-176.4000;0.0708;-1.0408;
-176.1000;0.0733;-1.0317;
-175.8000;0.0749;-1.0181;
-175.5000;0.0692;-1.0430;
-175.2000;0.0733;-1.0385;
-174.9000;0.0741;-1.0430;
-174.6000;0.0749;-1.0453;
-174.3000;0.0724;-1.0498;
-174.0000;0.0741;-1.0453;
-173.7000;0.0757;-1.0408;
-173.4000;0.0749;-1.0385;
-173.1000;0.0724;-1.0453;
-172.8000;0.0733;-1.0453;
-172.5000;0.0733;-1.0475;
-172.2000;0.0684;-1.0543;
-171.9000;0.0733;-1.0475;
-171.6000;0.0741;-1.0521;
-171.3000;0.0765;-1.0385;
-171.0000;0.0733;-1.0430;
-170.7000;0.0708;-1.0362;
-170.4000;0.0733;-1.0317;
-170.1000;0.0716;-1.0272;
-169.8000;0.0676;-1.0340;
-169.5000;0.0724;-1.0272;
-169.2000;0.0724;-1.0294;
-168.9000;0.0724;-1.0272;
-168.6000;0.0749;-1.0227;
-168.3000;0.0798;-1.0159;
-168.0000;0.0765;-1.0227;
-167.7000;0.0765;-1.0272;
-167.4000;0.0733;-1.0362;
-167.1000;0.0733;-1.0272;
-166.8000;0.0749;-1.0181;
-166.5000;0.0733;-1.0272;
-166.2000;0.0749;-1.0227;
-165.9000;0.0724;-1.0317;
-165.6000;0.0708;-1.0272;
-165.3000;0.0716;-1.0227;
-165.0000;0.0781;-1.0091;
-164.7000;0.0749;-1.0046;
-164.4000;0.0741;-1.0068;
-164.1000;0.0692;-1.0227;
-163.8000;0.0708;-1.0091;
-163.5000;0.0733;-1.0046;
-163.2000;0.0724;-1.0000;
-162.9000;0.0757;-0.9932;
-162.6000;0.0838;-0.9751;
-162.3000;0.0757;-1.0000;
-162.0000;0.0741;-1.0023;
-161.7000;0.0781;-0.9910;
-161.4000;0.0716;-1.0091;
-161.1000;0.0733;-1.0091;
-160.8000;0.0741;-1.0091;
-160.5000;0.0724;-1.0136;
-160.2000;0.0700;-1.0249;
-159.9000;0.0676;-1.0272;
-159.6000;0.0724;-1.0204;
-159.3000;0.0733;-1.0317;
-159.0000;0.0700;-1.0362;
-158.7000;0.0692;-1.0408;
-158.4000;0.0741;-1.0317;
-158.1000;0.0708;-1.0362;
-157.8000;0.0733;-1.0272;
-157.5000;0.0749;-1.0227;
-157.2000;0.0708;-1.0317;
-156.9000;0.0692;-1.0362;
-156.6000;0.0765;-1.0136;
-156.3000;0.0724;-1.0294;
-156.0000;0.0733;-1.0294;
-155.7000;0.0741;-1.0294;
-155.4000;0.0733;-1.0340;
-155.1000;0.0692;-1.0543;
-154.8000;0.0733;-1.0475;
-154.5000;0.0757;-1.0385;
-154.2000;0.0741;-1.0385;
-153.9000;0.0765;-1.0362;
-153.6000;0.0708;-1.0408;
-153.3000;0.0724;-1.0317;
-153.0000;0.0724;-1.0227;
-152.7000;0.0708;-1.0227;
-152.4000;0.0716;-1.0136;
-152.1000;0.0716;-1.0159;
-151.8000;0.0757;-1.0136;
-151.5000;0.0749;-1.0136;
-151.2000;0.0716;-1.0227;
-150.9000;0.0741;-1.0181;
-150.6000;0.0724;-1.0249;
-150.3000;0.0692;-1.0249;
-150.0000;0.0684;-1.0204;
-149.7000;0.0781;-1.0046;
-149.4000;0.0708;-1.0249;
-149.1000;0.0733;-1.0091;
-148.8000;0.0741;-1.0091;
-148.5000;0.0757;-1.0046;
-148.2000;0.0749;-1.0046;
-147.9000;0.0692;-1.0249;
-147.6000;0.0757;-1.0023;
-147.3000;0.0773;-0.9887;
-147.0000;0.0733;-1.0023;
-146.7000;0.0716;-1.0113;
-146.4000;0.0773;-0.9932;
-146.1000;0.0733;-1.0046;
-145.8000;0.0765;-1.0000;
-145.5000;0.0716;-1.0113;
-145.2000;0.0741;-1.0159;
-144.9000;0.0733;-1.0181;
-144.6000;0.0733;-1.0113;
-144.3000;0.0716;-1.0113;
-144.0000;0.0724;-1.0136;
-143.7000;0.0749;-1.0091;
-143.4000;0.0716;-1.0159;
-143.1000;0.0700;-1.0136;
-142.8000;0.0757;-0.9955;
-142.5000;0.0733;-0.9978;
-142.2000;0.0708;-0.9955;
-141.9000;0.0765;-0.9865;
-141.6000;0.0741;-0.9819;
-141.3000;0.0708;-0.9932;
-141.0000;0.0741;-0.9887;
-140.7000;0.0749;-0.9865;
-140.4000;0.0708;-0.9910;
-140.1000;0.0700;-1.0000;
-139.8000;0.0716;-1.0091;
-139.5000;0.0733;-1.0091;
-139.2000;0.0749;-1.0068;
-138.9000;0.0733;-1.0159;
-138.6000;0.0733;-1.0091;
-138.3000;0.0708;-1.0091;
-138.0000;0.0724;-1.0113;
-137.7000;0.0749;-1.0068;
-137.4000;0.0700;-1.0091;
-137.1000;0.0741;-1.0046;
-136.8000;0.0724;-1.0068;
-136.5000;0.0741;-0.9910;
-136.2000;0.0733;-0.9887;
-135.9000;0.0733;-0.9865;
-135.6000;0.0749;-0.9819;
-135.3000;0.0716;-0.9887;
-135.0000;0.0643;-1.0159;
-134.7000;0.0741;-1.0000;
-134.4000;0.0749;-1.0000;
-134.1000;0.0733;-1.0023;
-133.8000;0.0733;-0.9910;
-133.5000;0.0708;-1.0000;
-133.2000;0.0733;-0.9955;
-132.9000;0.0741;-1.0046;
-132.6000;0.0733;-1.0113;
-132.3000;0.0724;-1.0136;
-132.0000;0.0757;-1.0000;
-131.7000;0.0692;-1.0136;
-131.4000;0.0757;-1.0000;
-131.1000;0.0733;-1.0091;
-130.8000;0.0716;-1.0091;
-130.5000;0.0724;-1.0136;
-130.2000;0.0716;-1.0113;
-129.9000;0.0708;-1.0091;
-129.6000;0.0716;-1.0204;
-129.3000;0.0733;-1.0159;
-129.0000;0.0773;-0.9955;
-128.7000;0.0708;-1.0091;
-128.4000;0.0773;-1.0000;
-128.1000;0.0724;-1.0068;
-127.8000;0.0765;-0.9955;
-127.5000;0.0724;-1.0068;
-127.2000;0.0724;-1.0023;
-126.9000;0.0716;-1.0068;
-126.6000;0.0700;-1.0091;
-126.3000;0.0798;-0.9865;
-126.0000;0.0700;-1.0136;
-125.7000;0.0676;-1.0181;
-125.4000;0.0741;-1.0068;
-125.1000;0.0724;-1.0113;
-124.8000;0.0733;-1.0136;
-124.5000;0.0765;-1.0000;
-124.2000;0.0724;-1.0000;
-123.9000;0.0724;-0.9978;
-123.6000;0.0733;-1.0113;
-123.3000;0.0708;-1.0227;
-123.0000;0.0724;-1.0113;
-122.7000;0.0611;-1.0453;
-122.4000;0.0708;-1.0181;
-122.1000;0.0733;-1.0091;
-121.8000;0.0733;-1.0068;
-121.5000;0.0684;-1.0317;
-121.2000;0.0724;-1.0113;
-120.9000;0.0724;-1.0068;
-120.6000;0.0757;-0.9932;
-120.3000;0.0733;-1.0046;
-120.0000;0.0733;-1.0068;
-119.7000;0.0724;-1.0046;
-119.4000;0.0724;-1.0023;
-119.1000;0.0724;-1.0046;
-118.8000;0.0724;-1.0091;
-118.5000;0.0716;-1.0068;
-118.2000;0.0741;-1.0023;
-117.9000;0.0724;-1.0068;
-117.6000;0.0724;-1.0023;
-117.3000;0.0741;-1.0000;
-117.0000;0.0716;-1.0068;
-116.7000;0.0708;-1.0113;
-116.4000;0.0676;-1.0204;
-116.1000;0.0724;-0.9978;
-115.8000;0.0724;-0.9955;
-115.5000;0.0741;-1.0023;
-115.2000;0.0733;-1.0000;
-114.9000;0.0790;-0.9887;
-114.6000;0.0716;-1.0136;
-114.3000;0.0733;-1.0136;
-114.0000;0.0733;-1.0113;
-113.7000;0.0724;-1.0113;
-113.4000;0.0716;-1.0181;
-113.1000;0.0724;-1.0136;
-112.8000;0.0708;-1.0136;
-112.5000;0.0790;-0.9819;
-112.2000;0.0733;-0.9978;
-111.9000;0.0700;-1.0000;
-111.6000;0.0716;-0.9955;
-111.3000;0.0741;-0.9910;
-111.0000;0.0741;-0.9955;
-110.7000;0.0733;-0.9932;
-110.4000;0.0700;-1.0046;
-110.1000;0.0716;-1.0023;
-109.8000;0.0724;-1.0046;
-109.5000;0.0684;-1.0227;
-109.2000;0.0724;-1.0091;
-108.9000;0.0724;-1.0046;
-108.6000;0.0716;-1.0159;
-108.3000;0.0684;-1.0272;
-108.0000;0.0733;-1.0181;
-107.7000;0.0716;-1.0272;
-107.4000;0.0765;-1.0159;
-107.1000;0.0724;-1.0272;
-106.8000;0.0716;-1.0249;
-106.5000;0.0724;-1.0227;
-106.2000;0.0733;-1.0317;
-105.9000;0.0724;-1.0294;
-105.6000;0.0724;-1.0181;
-105.3000;0.0700;-1.0204;
-105.0000;0.0749;-1.0068;
-104.7000;0.0716;-1.0136;
-104.4000;0.0733;-1.0091;
-104.1000;0.0724;-0.9978;
-103.8000;0.0716;-0.9955;
-103.5000;0.0700;-0.9978;
-103.2000;0.0733;-0.9932;
-102.9000;0.0708;-0.9955;
-102.6000;0.0692;-1.0068;
-102.3000;0.0733;-1.0000;
-102.0000;0.0724;-0.9978;
-101.7000;0.0733;-0.9887;
-101.4000;0.0651;-1.0091;
-101.1000;0.0733;-0.9865;
-100.8000;0.0733;-0.9842;
-100.5000;0.0700;-1.0000;
-100.2000;0.0749;-0.9910;
-99.9000;0.0757;-0.9932;
-99.6000;0.0659;-1.0204;
-99.3000;0.0708;-1.0091;
-99.0000;0.0700;-1.0068;
-98.7000;0.0733;-0.9978;
-98.4000;0.0741;-1.0023;
-98.1000;0.0708;-1.0046;
-97.8000;0.0708;-1.0000;
-97.5000;0.0749;-0.9910;
-97.2000;0.0724;-0.9910;
-96.9000;0.0562;-1.0362;
-96.6000;0.0708;-1.0136;
-96.3000;0.0741;-1.0204;
-96.0000;0.0733;-1.0181;
-95.7000;0.0708;-1.0204;
-95.4000;0.0733;-1.0227;
-95.1000;0.0724;-1.0227;
-94.8000;0.0716;-1.0136;
-94.5000;0.0741;-0.9932;
-94.2000;0.0733;-1.0000;
-93.9000;0.0724;-1.0068;
-93.6000;0.0822;-0.9842;
-93.3000;0.0757;-1.0046;
-93.0000;0.0716;-1.0091;
-92.7000;0.0733;-1.0113;
-92.4000;0.0749;-1.0113;
-92.1000;0.0749;-1.0113;
-91.8000;0.0741;-1.0181;
-91.5000;0.0724;-1.0204;
-91.2000;0.0733;-1.0181;
-90.9000;0.0724;-1.0046;
-90.6000;0.0716;-1.0068;
-90.3000;0.0724;-1.0023;
-90.0000;0.0716;-1.0023;
-89.7000;0.0741;-1.0046;
-89.4000;0.0733;-1.0136;
-89.1000;0.0757;-1.0136;
-88.8000;0.0724;-1.0204;
-88.5000;0.0667;-1.0362;
-88.2000;0.0708;-1.0204;
-87.9000;0.0741;-1.0136;
-87.6000;0.0611;-1.0521;
-87.3000;0.0749;-1.0159;
-87.0000;0.0741;-1.0113;
-86.7000;0.0708;-1.0181;
-86.4000;0.0716;-1.0159;
-86.1000;0.0667;-1.0294;
-85.8000;0.0733;-1.0113;
-85.5000;0.0724;-1.0023;
-85.2000;0.0765;-0.9910;
-84.9000;0.0716;-1.0091;
-84.6000;0.0822;-0.9887;
-84.3000;0.0741;-1.0181;
-84.0000;0.0667;-1.0362;
-83.7000;0.0741;-1.0159;
-83.4000;0.0708;-1.0068;
-83.1000;0.0716;-0.9978;
-82.8000;0.0716;-1.0000;
-82.5000;0.0749;-0.9910;
-82.2000;0.0724;-0.9955;
-81.9000;0.0716;-1.0068;
-81.6000;0.0724;-1.0068;
-81.3000;0.0741;-1.0091;
-81.0000;0.0733;-1.0068;
-80.7000;0.0733;-1.0068;
-80.4000;0.0741;-0.9978;
-80.1000;0.0716;-1.0113;
-79.8000;0.0724;-1.0091;
-79.5000;0.0708;-1.0136;
-79.2000;0.0708;-1.0113;
-78.9000;0.0716;-1.0091;
-78.6000;0.0895;-0.9593;
-78.3000;0.0733;-1.0068;
-78.0000;0.0724;-1.0204;
-77.7000;0.0716;-1.0272;
-77.4000;0.0619;-1.0408;
-77.1000;0.0724;-1.0113;
-76.8000;0.0733;-1.0181;
-76.5000;0.0667;-1.0362;
-76.2000;0.0790;-1.0000;
-75.9000;0.0733;-1.0159;
-75.6000;0.0708;-1.0204;
-75.3000;0.0798;-0.9978;
-75.0000;0.0724;-1.0181;
-74.7000;0.0749;-1.0068;
-74.4000;0.0700;-1.0159;
-74.1000;0.0708;-1.0068;
-73.8000;0.0700;-1.0000;
-73.5000;0.0708;-1.0023;
-73.2000;0.0724;-0.9910;
-72.9000;0.0733;-0.9887;
-72.6000;0.0724;-0.9887;
-72.3000;0.0716;-0.9932;
-72.0000;0.0724;-0.9910;
-71.7000;0.0724;-0.9978;
-71.4000;0.0798;-0.9751;
-71.1000;0.0716;-1.0000;
-70.8000;0.0733;-1.0000;
-70.5000;0.0733;-1.0068;
-70.2000;0.0716;-1.0068;
-69.9000;0.0733;-1.0068;
-69.6000;0.0733;-1.0159;
-69.3000;0.0716;-1.0227;
-69.0000;0.0708;-1.0227;
-68.7000;0.0708;-1.0340;
-68.4000;0.0684;-1.0385;
-68.1000;0.0724;-1.0340;
-67.8000;0.0733;-1.0227;
-67.5000;0.0708;-1.0227;
-67.2000;0.0708;-1.0227;
-66.9000;0.0716;-1.0136;
-66.6000;0.0708;-1.0113;
-66.3000;0.0708;-1.0272;
-66.0000;0.0741;-1.0023;
-65.7000;0.0765;-0.9932;
-65.4000;0.0749;-0.9978;
-65.1000;0.0708;-1.0046;
-64.8000;0.0733;-1.0046;
-64.5000;0.0684;-1.0159;
-64.2000;0.0708;-1.0159;
-63.9000;0.0716;-1.0091;
-63.6000;0.0733;-1.0046;
-63.3000;0.0627;-1.0227;
-63.0000;0.0724;-0.9910;
-62.7000;0.0741;-0.9865;
-62.4000;0.0724;-0.9932;
-62.1000;0.0773;-0.9842;
-61.8000;0.0773;-0.9819;
-61.5000;0.0700;-1.0046;
-61.2000;0.0716;-1.0068;
-60.9000;0.0724;-1.0068;
-60.6000;0.0733;-1.0113;
-60.3000;0.0627;-1.0362;
-60.0000;0.0708;-1.0181;
-59.7000;0.0716;-1.0159;
-59.4000;0.0724;-1.0136;
-59.1000;0.0651;-1.0294;
-58.8000;0.0700;-1.0294;
-58.5000;0.0692;-1.0362;
-58.2000;0.0733;-1.0294;
-57.9000;0.0716;-1.0317;
-57.6000;0.0724;-1.0249;
-57.3000;0.0741;-1.0272;
-57.0000;0.0741;-1.0249;
-56.7000;0.0733;-1.0249;
-56.4000;0.0749;-1.0181;
-56.1000;0.0724;-1.0272;
-55.8000;0.0716;-1.0181;
-55.5000;0.0765;-1.0113;
-55.2000;0.0708;-1.0227;
-54.9000;0.0863;-0.9842;
-54.6000;0.0741;-1.0227;
-54.3000;0.0708;-1.0317;
-54.0000;0.0733;-1.0204;
-53.7000;0.0659;-1.0430;
-53.4000;0.0790;-1.0181;
-53.1000;0.0716;-1.0294;
-52.8000;0.0741;-1.0227;
-52.5000;0.0733;-1.0227;
-52.2000;0.0733;-1.0136;
-51.9000;0.0716;-1.0181;
-51.6000;0.0724;-1.0227;
-51.3000;0.0659;-1.0430;
-51.0000;0.0724;-1.0317;
-50.7000;0.0741;-1.0317;
-50.4000;0.0716;-1.0475;
-50.1000;0.0724;-1.0475;
-49.8000;0.0692;-1.0589;
-49.5000;0.0716;-1.0430;
-49.2000;0.0692;-1.0362;
-48.9000;0.0765;-1.0113;
-48.6000;0.0733;-1.0204;
-48.3000;0.0692;-1.0272;
-48.0000;0.0733;-1.0317;
-47.7000;0.0716;-1.0362;
-47.4000;0.0716;-1.0430;
-47.1000;0.0619;-1.0634;
-46.8000;0.0724;-1.0408;
-46.5000;0.0733;-1.0408;
-46.2000;0.0733;-1.0362;
-45.9000;0.0724;-1.0408;
-45.6000;0.0724;-1.0385;
-45.3000;0.0733;-1.0294;
-45.0000;0.0733;-1.0272;
-44.7000;0.0724;-1.0317;
-44.4000;0.0733;-1.0272;
-44.1000;0.0741;-1.0340;
-43.8000;0.0700;-1.0362;
-43.5000;0.0724;-1.0294;
-43.2000;0.0724;-1.0227;
-42.9000;0.0724;-1.0204;
-42.6000;0.0716;-1.0227;
-42.3000;0.0749;-1.0159;
-42.0000;0.0724;-1.0249;
-41.7000;0.0724;-1.0181;
-41.4000;0.0741;-1.0113;
-41.1000;0.0684;-1.0159;
-40.8000;0.0749;-0.9978;
-40.5000;0.0716;-1.0113;
-40.2000;0.0667;-1.0317;
-39.9000;0.0749;-1.0159;
-39.6000;0.0724;-1.0272;
-39.3000;0.0741;-1.0159;
-39.0000;0.0733;-1.0272;
-38.7000;0.0724;-1.0272;
-38.4000;0.0716;-1.0227;
-38.1000;0.0692;-1.0204;
-37.8000;0.0749;-1.0068;
-37.5000;0.0708;-1.0159;
-37.2000;0.0733;-1.0091;
-36.9000;0.0724;-1.0136;
-36.6000;0.0651;-1.0453;
-36.3000;0.0765;-1.0181;
-36.0000;0.0733;-1.0227;
-35.7000;0.0700;-1.0317;
-35.4000;0.0708;-1.0249;
-35.1000;0.0724;-1.0227;
-34.8000;0.0700;-1.0294;
-34.5000;0.0733;-1.0159;
-34.2000;0.0733;-1.0181;
-33.9000;0.0765;-1.0023;
-33.6000;0.0798;-0.9865;
-33.3000;0.0692;-1.0136;
-33.0000;0.0733;-1.0068;
-32.7000;0.0733;-0.9932;
-32.4000;0.0733;-0.9887;
-32.1000;0.0708;-0.9932;
-31.8000;0.0765;-0.9842;
-31.5000;0.0822;-0.9729;
-31.2000;0.0676;-1.0091;
-30.9000;0.0790;-0.9774;
-30.6000;0.0790;-0.9842;
-30.3000;0.0692;-1.0046;
-30.0000;0.0716;-1.0000;
-29.7000;0.0741;-1.0091;
-29.4000;0.0814;-0.9955;
-29.1000;0.0708;-1.0136;
-28.8000;0.0716;-1.0113;
-28.5000;0.0781;-0.9978;
-28.2000;0.0708;-1.0204;
-27.9000;0.0798;-1.0023;
-27.6000;0.0757;-1.0113;
-27.3000;0.0749;-1.0136;
-27.0000;0.0724;-1.0136;
-26.7000;0.0716;-1.0113;
-26.4000;0.0733;-1.0136;
-26.1000;0.0700;-1.0204;
-25.8000;0.0700;-1.0136;
-25.5000;0.0676;-1.0113;
-25.2000;0.0692;-1.0136;
-24.9000;0.0724;-1.0113;
-24.6000;0.0741;-1.0159;
-24.3000;0.0659;-1.0408;
-24.0000;0.0724;-1.0204;
-23.7000;0.0724;-1.0227;
-23.4000;0.0724;-1.0159;
-23.1000;0.0716;-1.0113;
-22.8000;0.0724;-1.0113;
-22.5000;0.0724;-1.0136;
-22.2000;0.0716;-1.0136;
-21.9000;0.0757;-1.0023;
-21.6000;0.0733;-1.0136;
-21.3000;0.0741;-1.0159;
-21.0000;0.0724;-1.0159;
-20.7000;0.0716;-1.0113;
-20.4000;0.0611;-1.0362;
-20.1000;0.0716;-1.0000;
-19.8000;0.0724;-0.9955;
-19.5000;0.0684;-1.0046;
-19.2000;0.0741;-0.9887;
-18.9000;0.0749;-0.9955;
-18.6000;0.0716;-1.0068;
-18.3000;0.0716;-1.0091;
-18.0000;0.0733;-1.0046;
-17.7000;0.0619;-1.0272;
-17.4000;0.0667;-1.0113;
-17.1000;0.0724;-0.9910;
-16.8000;0.0733;-0.9932;
-16.5000;0.0716;-0.9978;
-16.2000;0.0733;-0.9910;
-15.9000;0.0741;-0.9978;
-15.6000;0.0733;-0.9932;
-15.3000;0.0814;-0.9751;
-15.0000;0.0733;-0.9955;
-14.7000;0.0716;-1.0023;
-14.4000;0.0724;-0.9978;
-14.1000;0.0692;-1.0136;
-13.8000;0.0765;-0.9978;
-13.5000;0.0773;-0.9932;
-13.2000;0.0724;-1.0046;
-12.9000;0.0716;-1.0046;
-12.6000;0.0716;-1.0046;
-12.3000;0.0716;-1.0046;
-12.0000;0.0733;-1.0000;
-11.7000;0.0724;-1.0000;
-11.4000;0.0741;-0.9978;
-11.1000;0.0741;-1.0000;
-10.8000;0.0749;-1.0046;
-10.5000;0.0733;-1.0091;
-10.2000;0.0749;-0.9978;
-9.9000;0.0733;-0.9978;
-9.6000;0.0741;-0.9955;
-9.3000;0.0724;-1.0023;
-9.0000;0.0741;-1.0046;
-8.7000;0.0741;-1.0136;
-8.4000;0.0741;-1.0113;
-8.1000;0.0708;-1.0227;
-7.8000;0.0733;-1.0181;
-7.5000;0.0773;-1.0023;
-7.2000;0.0724;-1.0046;
-6.9000;0.0692;-1.0068;
-6.6000;0.0733;-0.9978;
-6.3000;0.0733;-1.0000;
-6.0000;0.0724;-1.0023;
-5.7000;0.0716;-0.9932;
-5.4000;0.0749;-0.9932;
-5.1000;0.0724;-1.0023;
-4.8000;0.0716;-0.9932;
-4.5000;0.0700;-1.0023;
-4.2000;0.0724;-0.9955;
-3.9000;0.0692;-0.9978;
-3.6000;0.0716;-1.0023;
-3.3000;0.0724;-1.0023;
-3.0000;0.0790;-0.9865;
-2.7000;0.0708;-1.0000;
-2.4000;0.0708;-1.0091;
-2.1000;0.0733;-0.9932;
-1.8000;0.0757;-0.9887;
-1.5000;0.0749;-0.9910;
-1.2000;0.0708;-0.9978;
-0.9000;0.0733;-1.0000;
-0.6000;0.0733;-0.9978;
-0.3000;0.0733;-0.9978;
0.0000;0.0733;-0.9978;
0.3000;0.0741;-1.0136;
0.6000;0.0651;-1.0340;
0.9000;0.0765;-0.9910;
1.2000;0.0765;-0.9797;
1.5000;0.0781;-0.9729;
1.8000;0.0830;-0.9525;
2.1000;0.0838;-0.9412;
2.4000;0.0871;-0.9231;
2.7000;0.0887;-0.9231;
3.0000;0.0838;-0.9231;
3.3000;0.0863;-0.9095;
3.6000;0.0928;-0.8892;
3.9000;0.0863;-0.9050;
4.2000;0.0838;-0.9118;
4.5000;0.0855;-0.9095;
4.8000;0.0863;-0.9095;
5.1000;0.0871;-0.9027;
5.4000;0.0879;-0.8982;
5.7000;0.0928;-0.8892;
6.0000;0.0863;-0.8960;
6.3000;0.0863;-0.8937;
6.6000;0.0895;-0.8846;
6.9000;0.0904;-0.8869;
7.2000;0.0830;-0.8960;
7.5000;0.0855;-0.9005;
7.8000;0.0863;-0.8960;
8.1000;0.0855;-0.8937;
8.4000;0.0912;-0.8846;
8.7000;0.0814;-0.9050;
9.0000;0.0895;-0.8892;
9.3000;0.1018;-0.8665;
9.6000;0.0961;-0.8801;
9.9000;0.0969;-0.8869;
10.2000;0.0847;-0.9276;
10.5000;0.0887;-0.9118;
10.8000;0.0895;-0.9141;
11.1000;0.0887;-0.9073;
11.4000;0.0887;-0.9005;
11.7000;0.0838;-0.9208;
12.0000;0.0887;-0.8982;
12.3000;0.0904;-0.8869;
12.6000;0.0863;-0.8914;
12.9000;0.0838;-0.8960;
13.2000;0.0920;-0.8756;
13.5000;0.0904;-0.8711;
13.8000;0.0952;-0.8620;
14.1000;0.0887;-0.8756;
14.4000;0.0985;-0.8530;
14.7000;0.0904;-0.8711;
15.0000;0.0871;-0.8665;
15.3000;0.0920;-0.8620;
15.6000;0.0920;-0.8643;
15.9000;0.0879;-0.8756;
16.2000;0.1026;-0.8507;
16.5000;0.0887;-0.8937;
16.8000;0.0887;-0.8869;
17.1000;0.0887;-0.8960;
17.4000;0.0887;-0.8892;
17.7000;0.0904;-0.8846;
18.0000;0.0904;-0.8779;
18.3000;0.0920;-0.8711;
18.6000;0.0879;-0.8892;
18.9000;0.0879;-0.8869;
19.2000;0.0904;-0.8779;
19.5000;0.0879;-0.8733;
19.8000;0.0887;-0.8779;
20.1000;0.0904;-0.8801;
20.4000;0.0879;-0.8733;
20.7000;0.0871;-0.8801;
21.0000;0.0912;-0.8711;
21.3000;0.0904;-0.8665;
21.6000;0.0887;-0.8756;
21.9000;0.0904;-0.8711;
22.2000;0.0895;-0.8779;
22.5000;0.0944;-0.8575;
22.8000;0.0904;-0.8688;
23.1000;0.0912;-0.8665;
23.4000;0.0895;-0.8665;
23.7000;0.0904;-0.8711;
24.0000;0.0879;-0.8846;
24.3000;0.0895;-0.8846;
24.6000;0.0912;-0.8824;
24.9000;0.0912;-0.8869;
25.2000;0.0895;-0.8892;
25.5000;0.0887;-0.8801;
25.8000;0.0912;-0.8801;
26.1000;0.0887;-0.8914;
26.4000;0.0985;-0.8643;
26.7000;0.0904;-0.8756;
27.0000;0.0895;-0.8665;
27.3000;0.0887;-0.8733;
27.6000;0.0781;-0.9005;
27.9000;0.0879;-0.8824;
28.2000;0.0961;-0.8665;
28.5000;0.0912;-0.8756;
28.8000;0.0895;-0.8801;
29.1000;0.0895;-0.8846;
29.4000;0.0879;-0.8892;
29.7000;0.0920;-0.8779;
30.0000;0.0895;-0.8892;
30.3000;0.0985;-0.8711;
30.6000;0.0895;-0.8824;
30.9000;0.0895;-0.8801;
31.2000;0.0879;-0.8824;
31.5000;0.0912;-0.8824;
31.8000;0.0912;-0.8824;
32.1000;0.0961;-0.8643;
32.4000;0.1009;-0.8575;
32.7000;0.0920;-0.8711;
33.0000;0.0847;-0.8846;
33.3000;0.0855;-0.8846;
33.6000;0.0904;-0.8665;
33.9000;0.0895;-0.8643;
34.2000;0.0904;-0.8643;
34.5000;0.0904;-0.8711;
34.8000;0.0904;-0.8643;
35.1000;0.0920;-0.8575;
35.4000;0.0904;-0.8575;
35.7000;0.0887;-0.8643;
36.0000;0.0904;-0.8643;
36.3000;0.0920;-0.8598;
36.6000;0.0887;-0.8688;
36.9000;0.0904;-0.8598;
37.2000;0.0904;-0.8620;
37.5000;0.0830;-0.8801;
37.8000;0.0863;-0.8733;
38.1000;0.0928;-0.8620;
38.4000;0.0838;-0.8869;
38.7000;0.0904;-0.8688;
39.0000;0.0904;-0.8643;
39.3000;0.0928;-0.8665;
39.6000;0.0855;-0.8914;
39.9000;0.0871;-0.8892;
40.2000;0.0936;-0.8733;
40.5000;0.0969;-0.8620;
40.8000;0.0912;-0.8779;
41.1000;0.0757;-0.9163;
41.4000;0.0895;-0.8869;
41.7000;0.0895;-0.8779;
42.0000;0.0887;-0.8756;
42.3000;0.0879;-0.8892;
42.6000;0.0920;-0.8824;
42.9000;0.0928;-0.8846;
43.2000;0.0798;-0.9073;
43.5000;0.0928;-0.8756;
43.8000;0.0904;-0.8801;
44.1000;0.0904;-0.8846;
44.4000;0.0847;-0.8982;
44.7000;0.0928;-0.8688;
45.0000;0.0904;-0.8688;
45.3000;0.0912;-0.8643;
45.6000;0.0855;-0.8733;
45.9000;0.0912;-0.8575;
46.2000;0.0904;-0.8733;
46.5000;0.0871;-0.8779;
46.8000;0.0904;-0.8733;
47.1000;0.0928;-0.8733;
47.4000;0.0912;-0.8756;
47.7000;0.0920;-0.8688;
48.0000;0.0895;-0.8733;
48.3000;0.0904;-0.8756;
48.6000;0.0920;-0.8756;
48.9000;0.0912;-0.8733;
49.2000;0.0871;-0.8892;
49.5000;0.0838;-0.8982;
49.8000;0.0912;-0.8779;
50.1000;0.0920;-0.8733;
50.4000;0.0928;-0.8824;
50.7000;0.0887;-0.8914;
51.0000;0.0928;-0.8824;
51.3000;0.0912;-0.8779;
51.6000;0.0895;-0.8756;
51.9000;0.0895;-0.8711;
52.2000;0.0904;-0.8665;
52.5000;0.0904;-0.8598;
52.8000;0.0912;-0.8620;
53.1000;0.0904;-0.8598;
53.4000;0.0985;-0.8439;
53.7000;0.0912;-0.8575;
54.0000;0.0855;-0.8756;
54.3000;0.1058;-0.8236;
54.6000;0.0830;-0.8869;
54.9000;0.0904;-0.8688;
55.2000;0.0952;-0.8530;
55.5000;0.0904;-0.8620;
55.8000;0.0895;-0.8688;
56.1000;0.0920;-0.8620;
56.4000;0.0928;-0.8665;
56.7000;0.0904;-0.8711;
57.0000;0.0879;-0.8824;
57.3000;0.0944;-0.8688;
57.6000;0.0912;-0.8711;
57.9000;0.0912;-0.8711;
58.2000;0.0887;-0.8801;
58.5000;0.0887;-0.8824;
58.8000;0.0928;-0.8779;
59.1000;0.0977;-0.8620;
59.4000;0.0855;-0.8914;
59.7000;0.0912;-0.8688;
60.0000;0.0895;-0.8779;
60.3000;0.0936;-0.8801;
60.6000;0.0969;-0.8733;
60.9000;0.0904;-0.8892;
61.2000;0.0765;-0.9276;
61.5000;0.0928;-0.8960;
61.8000;0.0969;-0.8779;
62.1000;0.0936;-0.8914;
62.4000;0.0912;-0.8982;
62.7000;0.0912;-0.8960;
63.0000;0.0928;-0.8892;
63.3000;0.0879;-0.8937;
63.6000;0.0912;-0.8869;
63.9000;0.0904;-0.8846;
64.2000;0.0912;-0.8756;
64.5000;0.0871;-0.8892;
64.8000;0.0993;-0.8484;
65.1000;0.0904;-0.8711;
65.4000;0.0904;-0.8779;
65.7000;0.0936;-0.8756;
66.0000;0.0920;-0.8869;
66.3000;0.0879;-0.8960;
66.6000;0.0912;-0.8892;
66.9000;0.0887;-0.9005;
67.2000;0.0887;-0.8982;
67.5000;0.0977;-0.8733;
67.8000;0.0904;-0.8914;
68.1000;0.0928;-0.8869;
68.4000;0.0904;-0.8846;
68.7000;0.0887;-0.8914;
69.0000;0.0904;-0.8779;
69.3000;0.0895;-0.8892;
69.6000;0.0838;-0.9073;
69.9000;0.0895;-0.8914;
70.2000;0.0895;-0.8914;
70.5000;0.0904;-0.8824;
70.8000;0.0904;-0.8824;
71.1000;0.0895;-0.8824;
71.4000;0.0904;-0.8914;
71.7000;0.0912;-0.8982;
72.0000;0.0904;-0.9005;
72.3000;0.0904;-0.9027;
72.6000;0.0912;-0.8846;
72.9000;0.0920;-0.8801;
73.2000;0.0887;-0.8869;
73.5000;0.0920;-0.8733;
73.8000;0.0887;-0.8824;
74.1000;0.0928;-0.8733;
74.4000;0.0952;-0.8756;
74.7000;0.0912;-0.8824;
75.0000;0.0912;-0.8779;
75.3000;0.0936;-0.8779;
75.6000;0.0936;-0.8733;
75.9000;0.0895;-0.8846;
76.2000;0.0920;-0.8779;
76.5000;0.0985;-0.8552;
76.8000;0.0928;-0.8779;
77.1000;0.0969;-0.8733;
77.4000;0.0961;-0.8756;
77.7000;0.0822;-0.9118;
78.0000;0.0920;-0.8892;
78.3000;0.0985;-0.8620;
78.6000;0.0887;-0.8824;
78.9000;0.0977;-0.8620;
79.2000;0.0920;-0.8892;
79.5000;0.0895;-0.8937;
79.8000;0.0920;-0.8779;
80.1000;0.0887;-0.8711;
80.4000;0.0936;-0.8620;
80.7000;0.0928;-0.8733;
81.0000;0.0871;-0.8824;
81.3000;0.0879;-0.8914;
81.6000;0.0920;-0.8779;
81.9000;0.0895;-0.8801;
82.2000;0.0969;-0.8620;
82.5000;0.0928;-0.8733;
82.8000;0.0920;-0.8824;
83.1000;0.0920;-0.8801;
83.4000;0.0936;-0.8846;
83.7000;0.0920;-0.8869;
84.0000;0.0969;-0.8733;
84.3000;0.0912;-0.8914;
84.6000;0.0904;-0.9005;
84.9000;0.0928;-0.8892;
85.2000;0.0895;-0.8824;
85.5000;0.0830;-0.9005;
85.8000;0.0936;-0.8711;
86.1000;0.0920;-0.8756;
86.4000;0.0912;-0.8779;
86.7000;0.0920;-0.8711;
87.0000;0.1018;-0.8552;
87.3000;0.0912;-0.8801;
87.6000;0.0904;-0.8846;
87.9000;0.0920;-0.8869;
88.2000;0.0895;-0.8892;
88.5000;0.0838;-0.9073;
88.8000;0.0895;-0.8892;
89.1000;0.0936;-0.8711;
89.4000;0.0944;-0.8665;
89.7000;0.0920;-0.8688;
90.0000;0.0863;-0.8892;
90.3000;0.0904;-0.8801;
90.6000;0.0936;-0.8824;
90.9000;0.0895;-0.8937;
91.2000;0.0904;-0.8846;
91.5000;0.0895;-0.8756;
91.8000;0.0912;-0.8756;
92.1000;0.0920;-0.8733;
92.4000;0.0895;-0.8869;
92.7000;0.0904;-0.8869;
93.0000;0.0936;-0.8801;
93.3000;0.0920;-0.8801;
93.6000;0.0961;-0.8665;
93.9000;0.0920;-0.8756;
94.2000;0.0961;-0.8598;
94.5000;0.0944;-0.8643;
94.8000;0.0912;-0.8756;
95.1000;0.0904;-0.8846;
95.4000;0.0969;-0.8688;
95.7000;0.0936;-0.8756;
96.0000;0.0928;-0.8756;
96.3000;0.0952;-0.8756;
96.6000;0.0936;-0.8779;
96.9000;0.0920;-0.8801;
97.2000;0.0920;-0.8869;
97.5000;0.0895;-0.8937;
97.8000;0.0928;-0.8846;
98.1000;0.0920;-0.8869;
98.4000;0.0920;-0.8892;
98.7000;0.0904;-0.8869;
99.0000;0.0920;-0.8869;
99.3000;0.0928;-0.8733;
99.6000;0.0928;-0.8733;
99.9000;0.0912;-0.8801;
100.2000;0.0904;-0.8869;
100.5000;0.0969;-0.8665;
100.8000;0.0944;-0.8733;
101.1000;0.0936;-0.8824;
101.4000;0.1018;-0.8620;
101.7000;0.0879;-0.8914;
102.0000;0.0895;-0.8779;
102.3000;0.0822;-0.9073;
102.6000;0.0887;-0.9027;
102.9000;0.0904;-0.8982;
103.2000;0.0904;-0.8869;
103.5000;0.0920;-0.8779;
103.8000;0.0928;-0.8779;
104.1000;0.0904;-0.8779;
104.4000;0.0887;-0.8733;
104.7000;0.0920;-0.8665;
105.0000;0.0912;-0.8711;
105.3000;0.0936;-0.8665;
105.6000;0.0936;-0.8643;
105.9000;0.0920;-0.8643;
106.2000;0.0912;-0.8643;
106.5000;0.0887;-0.8688;
106.8000;0.0936;-0.8598;
107.1000;0.0904;-0.8598;
107.4000;0.0912;-0.8711;
107.7000;0.0904;-0.8711;
108.0000;0.0904;-0.8711;
108.3000;0.0912;-0.8756;
108.6000;0.0920;-0.8824;
108.9000;0.0952;-0.8779;
109.2000;0.0920;-0.8869;
109.5000;0.0904;-0.8960;
109.8000;0.0920;-0.8960;
110.1000;0.0928;-0.9005;
110.4000;0.0863;-0.9208;
110.7000;0.0904;-0.9141;
111.0000;0.0920;-0.9073;
111.3000;0.0985;-0.8869;
111.6000;0.0912;-0.9050;
111.9000;0.0887;-0.9073;
112.2000;0.0936;-0.8892;
112.5000;0.0912;-0.8914;
112.8000;0.0887;-0.9073;
113.1000;0.0920;-0.9073;
113.4000;0.0944;-0.9027;
113.7000;0.0912;-0.9163;
114.0000;0.0904;-0.9208;
114.3000;0.0904;-0.9208;
114.6000;0.0912;-0.9186;
114.9000;0.0912;-0.9141;
115.2000;0.0904;-0.9163;
115.5000;0.1001;-0.8869;
115.8000;0.0912;-0.9208;
116.1000;0.0912;-0.9141;
116.4000;0.0961;-0.9050;
116.7000;0.0920;-0.9186;
117.0000;0.0993;-0.9027;
117.3000;0.0920;-0.9186;
117.6000;0.0928;-0.9095;
117.9000;0.0847;-0.9163;
118.2000;0.0928;-0.9073;
118.5000;0.0977;-0.8960;
118.8000;0.0936;-0.9095;
119.1000;0.0895;-0.9186;
119.4000;0.1050;-0.8779;
119.7000;0.0920;-0.9073;
120.0000;0.0952;-0.8960;
120.3000;0.0952;-0.8892;
120.6000;0.0904;-0.9005;
120.9000;0.0936;-0.8892;
121.2000;0.0928;-0.8846;
121.5000;0.0895;-0.8960;
121.8000;0.0904;-0.8937;
122.1000;0.0847;-0.9095;
122.4000;0.0871;-0.9050;
122.7000;0.0928;-0.8982;
123.0000;0.0920;-0.9005;
123.3000;0.0920;-0.8982;
123.6000;0.0912;-0.9027;
123.9000;0.0912;-0.8982;
124.2000;0.0863;-0.9050;
124.5000;0.0928;-0.8914;
124.8000;0.0830;-0.9141;
125.1000;0.0928;-0.8846;
125.4000;0.0895;-0.8937;
125.7000;0.1066;-0.8552;
126.0000;0.0912;-0.8982;
126.3000;0.0887;-0.9118;
126.6000;0.0904;-0.9073;
126.9000;0.0904;-0.9005;
127.2000;0.0920;-0.8960;
127.5000;0.0912;-0.9050;
127.8000;0.0944;-0.8892;
128.1000;0.0814;-0.9186;
128.4000;0.0912;-0.8960;
128.7000;0.0920;-0.8982;
129.0000;0.0928;-0.9027;
129.3000;0.0928;-0.8982;
129.6000;0.0928;-0.8982;
129.9000;0.0936;-0.8869;
130.2000;0.0920;-0.8982;
130.5000;0.0920;-0.9027;
130.8000;0.0936;-0.9073;
131.1000;0.0904;-0.9186;
131.4000;0.0912;-0.9163;
131.7000;0.0969;-0.9005;
132.0000;0.0920;-0.9118;
132.3000;0.0912;-0.9027;
132.6000;0.0928;-0.8937;
132.9000;0.0920;-0.8937;
133.2000;0.0928;-0.8914;
133.5000;0.0887;-0.9005;
133.8000;0.0920;-0.8892;
134.1000;0.0936;-0.8960;
134.4000;0.0806;-0.9322;
134.7000;0.0912;-0.9027;
135.0000;0.0904;-0.9050;
135.3000;0.0928;-0.8914;
135.6000;0.0920;-0.8982;
135.9000;0.0928;-0.8960;
136.2000;0.0912;-0.9095;
136.5000;0.0895;-0.9027;
136.8000;0.0904;-0.9005;
137.1000;0.0904;-0.9073;
137.4000;0.0920;-0.9073;
137.7000;0.0863;-0.9208;
138.0000;0.0920;-0.9118;
138.3000;0.0904;-0.9118;
138.6000;0.0912;-0.9095;
138.9000;0.0936;-0.8960;
139.2000;0.0920;-0.8937;
139.5000;0.0928;-0.8846;
139.8000;0.0936;-0.8846;
140.1000;0.0944;-0.8824;
140.4000;0.0961;-0.8982;
140.7000;0.0912;-0.9186;
141.0000;0.0887;-0.9118;
141.3000;0.0912;-0.9118;
141.6000;0.0920;-0.9095;
141.9000;0.0952;-0.8960;
142.2000;0.0928;-0.9073;
142.5000;0.0904;-0.9027;
142.8000;0.0961;-0.8892;
143.1000;0.0928;-0.8914;
143.4000;0.0806;-0.9118;
143.7000;0.0944;-0.8779;
144.0000;0.0936;-0.8846;
144.3000;0.0920;-0.8824;
144.6000;0.0912;-0.8846;
144.9000;0.0904;-0.8892;
145.2000;0.0912;-0.8869;
145.5000;0.0920;-0.8846;
145.8000;0.0920;-0.8937;
146.1000;0.0904;-0.8960;
146.4000;0.0928;-0.8982;
146.7000;0.0912;-0.9027;
147.0000;0.0928;-0.8914;
147.3000;0.0904;-0.8982;
147.6000;0.0895;-0.8960;
147.9000;0.0952;-0.8869;
148.2000;0.0993;-0.8756;
148.5000;0.0920;-0.8960;
148.8000;0.0863;-0.9095;
149.1000;0.0920;-0.8892;
149.4000;0.0895;-0.8982;
149.7000;0.0928;-0.8846;
150.0000;0.0904;-0.8914;
150.3000;0.0985;-0.8733;
150.6000;0.0904;-0.9005;
150.9000;0.0920;-0.9005;
151.2000;0.0961;-0.8869;
151.5000;0.0952;-0.8846;
151.8000;0.0806;-0.9163;
152.1000;0.0912;-0.8982;
152.4000;0.0912;-0.8846;
152.7000;0.0920;-0.8869;
153.0000;0.0961;-0.8733;
153.3000;0.0904;-0.8914;
153.6000;0.0904;-0.8937;
153.9000;0.0928;-0.8892;
154.2000;0.0928;-0.8869;
154.5000;0.0936;-0.8824;
154.8000;0.0952;-0.8779;
155.1000;0.0936;-0.8892;
155.4000;0.0928;-0.8892;
155.7000;0.0936;-0.8824;
156.0000;0.0895;-0.8914;
156.3000;0.0879;-0.8869;
156.6000;0.0944;-0.8688;
156.9000;0.0887;-0.8756;
157.2000;0.0912;-0.8688;
157.5000;0.0993;-0.8575;
157.8000;0.0863;-0.8937;
158.1000;0.0961;-0.8643;
158.4000;0.0928;-0.8756;
158.7000;0.0928;-0.8756;
159.0000;0.0977;-0.8598;
159.3000;0.0977;-0.8711;
159.6000;0.0952;-0.8892;
159.9000;0.1058;-0.8688;
160.2000;0.0928;-0.9005;
160.5000;0.0920;-0.9050;
160.8000;0.0936;-0.9050;
161.1000;0.0895;-0.9118;
161.4000;0.0936;-0.9005;
161.7000;0.0928;-0.9050;
162.0000;0.0928;-0.8982;
162.3000;0.0904;-0.8960;
162.6000;0.0936;-0.8960;
162.9000;0.0928;-0.8982;
163.2000;0.0944;-0.8846;
163.5000;0.0928;-0.8869;
163.8000;0.0936;-0.8779;
164.1000;0.0904;-0.8846;
164.4000;0.0847;-0.8937;
164.7000;0.0936;-0.8756;
165.0000;0.0961;-0.8824;
165.3000;0.0944;-0.8801;
165.6000;0.0944;-0.8801;
165.9000;0.0912;-0.8914;
166.2000;0.0912;-0.8937;
166.5000;0.0936;-0.9005;
166.8000;0.0928;-0.9073;
167.1000;0.0904;-0.9118;
167.4000;0.0904;-0.9095;
167.7000;0.0936;-0.9118;
168.0000;0.0928;-0.9050;
168.3000;0.0936;-0.8914;
168.6000;0.0936;-0.8937;
168.9000;0.0920;-0.8869;
169.2000;0.0879;-0.8869;
169.5000;0.0936;-0.8779;
169.8000;0.0920;-0.8779;
170.1000;0.0920;-0.8643;
170.4000;0.0863;-0.8846;
170.7000;0.0920;-0.8756;
171.0000;0.0944;-0.8688;
171.3000;0.0928;-0.8824;
171.6000;0.0944;-0.8756;
171.9000;0.0904;-0.8914;
172.2000;0.0904;-0.9005;
172.5000;0.0944;-0.8960;
172.8000;0.0904;-0.8982;
173.1000;0.0936;-0.8960;
173.4000;0.1018;-0.8801;
173.7000;0.1018;-0.8779;
174.0000;0.0871;-0.9050;
174.3000;0.0904;-0.8982;
174.6000;0.0895;-0.8982;
174.9000;0.0920;-0.8914;
175.2000;0.0920;-0.9005;
175.5000;0.0871;-0.9118;
175.8000;0.0928;-0.8960;
176.1000;0.0822;-0.9095;
176.4000;0.0912;-0.8960;
176.7000;0.0944;-0.8892;
177.0000;0.0765;-0.9389;
177.3000;0.0985;-0.8914;
177.6000;0.0928;-0.9005;
177.9000;0.0920;-0.9050;
178.2000;0.0830;-0.9276;
178.5000;0.0904;-0.9073;
178.8000;0.0993;-0.8846;
179.1000;0.0928;-0.8982;
179.4000;0.0879;-0.9186;
179.7000;0.0936;-0.9073;
180.0000;0.0944;-0.8982;
180.3000;0.0944;-0.8960;
180.6000;0.0871;-0.9163;
180.9000;0.0928;-0.8960;
181.2000;0.0855;-0.9073;
181.5000;0.0904;-0.9005;
181.8000;0.0928;-0.9005;
182.1000;0.1009;-0.8824;
182.4000;0.0961;-0.8960;
182.7000;0.0920;-0.9005;
183.0000;0.0895;-0.9027;
183.3000;0.0928;-0.8982;
183.6000;0.0944;-0.8937;
183.9000;0.0920;-0.9073;
184.2000;0.0920;-0.9163;
184.5000;0.0944;-0.9095;
184.8000;0.0920;-0.9118;
185.1000;0.0920;-0.9095;
185.4000;0.0928;-0.9073;
185.7000;0.0920;-0.9050;
186.0000;0.0936;-0.8937;
186.3000;0.0928;-0.9005;
186.6000;0.0912;-0.8960;
186.9000;0.0912;-0.8982;
187.2000;0.0895;-0.8892;
187.5000;0.0912;-0.8960;
187.8000;0.0904;-0.8960;
188.1000;0.0863;-0.9027;
188.4000;0.1001;-0.8688;
188.7000;0.0936;-0.8846;
189.0000;0.0912;-0.8846;
189.3000;0.0936;-0.8801;
189.6000;0.0920;-0.8756;
189.9000;0.0904;-0.8914;
190.2000;0.0904;-0.8937;
190.5000;0.0928;-0.8914;
190.8000;0.0928;-0.8937;
191.1000;0.0879;-0.8982;
191.4000;0.0904;-0.8892;
191.7000;0.0920;-0.8960;
192.0000;0.0912;-0.8869;
192.3000;0.0912;-0.8892;
192.6000;0.0952;-0.8869;
192.9000;0.0895;-0.8869;
193.2000;0.0806;-0.9118;
193.5000;0.0936;-0.8824;
193.8000;0.0912;-0.8846;
194.1000;0.0920;-0.8801;
194.4000;0.0977;-0.8620;
194.7000;0.0879;-0.8801;
195.0000;0.0944;-0.8665;
195.3000;0.0920;-0.8756;
195.6000;0.0944;-0.8824;
195.9000;0.0912;-0.8869;
196.2000;0.0855;-0.9141;
196.5000;0.0806;-0.9231;
196.8000;0.0871;-0.9050;
197.1000;0.0871;-0.8982;
197.4000;0.0904;-0.8892;
197.7000;0.1001;-0.8688;
198.0000;0.1001;-0.8643;
198.3000;0.0920;-0.8914;
198.6000;0.0961;-0.8756;
198.9000;0.0952;-0.8733;
199.2000;0.0871;-0.9050;
199.5000;0.0847;-0.9141;
199.8000;0.0904;-0.9073;
200.1000;0.0847;-0.9254;
200.4000;0.0904;-0.9073;
200.7000;0.0904;-0.9050;
201.0000;0.0904;-0.9005;
201.3000;0.0904;-0.8869;
201.6000;0.0912;-0.8801;
201.9000;0.0904;-0.8892;
202.2000;0.0895;-0.8960;
202.5000;0.0912;-0.8937;
202.8000;0.0928;-0.8914;
203.1000;0.0912;-0.8869;
203.4000;0.0944;-0.8824;
203.7000;0.0912;-0.8892;
204.0000;0.0895;-0.8824;
204.3000;0.0912;-0.8846;
204.6000;0.0936;-0.8824;
204.9000;0.0912;-0.8801;
205.2000;0.0904;-0.8801;
205.5000;0.0904;-0.8869;
205.8000;0.0912;-0.8914;
206.1000;0.0920;-0.8892;
206.4000;0.0912;-0.8869;
206.7000;0.0879;-0.8937;
207.0000;0.0895;-0.8937;
207.3000;0.0904;-0.8937;
207.6000;0.0928;-0.8937;
207.9000;0.0944;-0.8846;
208.2000;0.0895;-0.8937;
208.5000;0.0936;-0.8914;
208.8000;0.0912;-0.9005;
209.1000;0.0920;-0.8914;
209.4000;0.0928;-0.8779;
209.7000;0.0928;-0.8733;
210.0000;0.0928;-0.8756;
210.3000;0.0928;-0.8846;
210.6000;0.0912;-0.8937;
210.9000;0.0887;-0.9027;
211.2000;0.0912;-0.8982;
211.5000;0.0904;-0.9027;
211.8000;0.0920;-0.8892;
212.1000;0.0887;-0.9027;
212.4000;0.0806;-0.9254;
212.7000;0.0936;-0.8982;
213.0000;0.0920;-0.8982;
213.3000;0.0904;-0.9005;
213.6000;0.0920;-0.8937;
213.9000;0.0765;-0.9344;
214.2000;0.0928;-0.8937;
214.5000;0.0944;-0.8869;
214.8000;0.0879;-0.9050;
215.1000;0.0936;-0.8892;
215.4000;0.1001;-0.8688;
215.7000;0.0895;-0.8937;
216.0000;0.0920;-0.8869;
216.3000;0.0912;-0.8824;
216.6000;0.0920;-0.8801;
216.9000;0.0904;-0.8846;
217.2000;0.0904;-0.8892;
217.5000;0.0936;-0.8869;
217.8000;0.0928;-0.8937;
218.1000;0.0944;-0.8914;
218.4000;0.0985;-0.8779;
218.7000;0.0961;-0.8824;
219.0000;0.0944;-0.8914;
219.3000;0.0920;-0.9027;
219.6000;0.0928;-0.9095;
219.9000;0.0920;-0.9073;
220.2000;0.0936;-0.9073;
220.5000;0.0912;-0.9208;
220.8000;0.0904;-0.9231;
221.1000;0.0773;-0.9503;
221.4000;0.0887;-0.9141;
221.7000;0.0904;-0.9027;
222.0000;0.0887;-0.8982;
222.3000;0.0920;-0.8937;
222.6000;0.0912;-0.8982;
222.9000;0.0904;-0.9027;
223.2000;0.0928;-0.8937;
223.5000;0.0904;-0.9050;
223.8000;0.0912;-0.9005;
224.1000;0.0871;-0.9073;
224.4000;0.0928;-0.8960;
224.7000;0.0920;-0.9027;
225.0000;0.0847;-0.9186;
225.3000;0.0920;-0.9095;
225.6000;0.0912;-0.9118;
225.9000;0.0904;-0.9095;
226.2000;0.0928;-0.9050;
226.5000;0.0912;-0.9005;
226.8000;0.0928;-0.9050;
227.1000;0.0904;-0.9073;
227.4000;0.0993;-0.8937;
227.7000;0.0895;-0.9163;
228.0000;0.0912;-0.9163;
228.3000;0.0928;-0.9186;
228.6000;0.0928;-0.9276;
228.9000;0.0920;-0.9231;
229.2000;0.0936;-0.9208;
229.5000;0.0912;-0.9254;
229.8000;0.0928;-0.9276;
230.1000;0.0904;-0.9299;
230.4000;0.0944;-0.9254;
230.7000;0.0928;-0.9186;
231.0000;0.0920;-0.9231;
231.3000;0.0993;-0.9050;
231.6000;0.0936;-0.9118;
231.9000;0.0928;-0.9141;
232.2000;0.0904;-0.9208;
232.5000;0.0904;-0.9231;
232.8000;0.0912;-0.9231;
233.1000;0.0944;-0.9276;
233.4000;0.0928;-0.9276;
233.7000;0.0912;-0.9344;
234.0000;0.0928;-0.9299;
234.3000;0.0928;-0.9231;
234.6000;0.0879;-0.9457;
234.9000;0.0912;-0.9254;
235.2000;0.0912;-0.9208;
235.5000;0.0912;-0.9163;
235.8000;0.0920;-0.9208;
236.1000;0.0904;-0.9276;
236.4000;0.0904;-0.9208;
236.7000;0.0912;-0.9163;
237.0000;0.0936;-0.9073;
237.3000;0.0928;-0.9095;
237.6000;0.0912;-0.9073;
237.9000;0.0871;-0.9276;
238.2000;0.0944;-0.9118;
238.5000;0.0936;-0.9095;
238.8000;0.0920;-0.9141;
239.1000;0.0920;-0.9027;
239.4000;0.0928;-0.9005;
239.7000;0.0838;-0.9254;
240.0000;0.0904;-0.9118;
240.3000;0.0928;-0.9027;
240.6000;0.0928;-0.9050;
240.9000;0.0928;-0.9027;
241.2000;0.0847;-0.9367;
241.5000;0.0912;-0.9186;
241.8000;0.0928;-0.9163;
242.1000;0.0904;-0.9208;
242.4000;0.0879;-0.9231;
242.7000;0.0928;-0.9050;
243.0000;0.0912;-0.9118;
243.3000;0.0977;-0.8960;
243.6000;0.0912;-0.9073;
243.9000;0.0904;-0.9186;
244.2000;0.0904;-0.9141;
244.5000;0.0904;-0.9141;
244.8000;0.0920;-0.9027;
245.1000;0.0928;-0.9073;
245.4000;0.0944;-0.9050;
245.7000;0.0920;-0.8982;
246.0000;0.0944;-0.8914;
246.3000;0.0912;-0.9073;
246.6000;0.0904;-0.9050;
246.9000;0.0920;-0.9095;
247.2000;0.0904;-0.9163;
247.5000;0.0928;-0.9073;
247.8000;0.0895;-0.9095;
248.1000;0.1026;-0.8688;
248.4000;0.0944;-0.8846;
248.7000;0.0904;-0.8892;
249.0000;0.0936;-0.8756;
249.3000;0.0863;-0.9005;
249.6000;0.0912;-0.8982;
249.9000;0.0944;-0.8960;
250.2000;0.0944;-0.8914;
250.5000;0.0847;-0.9163;
250.8000;0.0920;-0.8960;
251.1000;0.0912;-0.8937;
251.4000;0.0904;-0.8914;
251.7000;0.0904;-0.8869;
252.0000;0.0920;-0.8733;
252.3000;0.0895;-0.8824;
252.6000;0.0912;-0.8914;
252.9000;0.0920;-0.8982;
253.2000;0.0887;-0.9027;
253.5000;0.0944;-0.8824;
253.8000;0.0887;-0.8892;
254.1000;0.0920;-0.8869;
254.4000;0.0879;-0.8869;
254.7000;0.0928;-0.8801;
255.0000;0.0944;-0.8824;
255.3000;0.0904;-0.8960;
255.6000;0.0952;-0.8892;
255.9000;0.0936;-0.8937;
256.2000;0.0928;-0.9095;
256.5000;0.0961;-0.9095;
256.8000;0.0928;-0.9141;
257.1000;0.0928;-0.9073;
257.4000;0.0928;-0.9073;
257.7000;0.0993;-0.8937;
258.0000;0.0977;-0.8982;
258.3000;0.0904;-0.9163;
258.6000;0.0993;-0.9027;
258.9000;0.0920;-0.9118;
259.2000;0.0887;-0.9276;
259.5000;0.0928;-0.9095;
259.8000;0.0928;-0.9005;
260.1000;0.0895;-0.9073;
260.4000;0.0904;-0.9050;
260.7000;0.0928;-0.8982;
261.0000;0.0936;-0.8960;
261.3000;0.0904;-0.8982;
261.6000;0.0912;-0.8937;
261.9000;0.0904;-0.8960;
262.2000;0.0928;-0.8982;
262.5000;0.0912;-0.9027;
262.8000;0.0904;-0.9050;
263.1000;0.0904;-0.9027;
263.4000;0.0912;-0.9118;
263.7000;0.0936;-0.9005;
264.0000;0.0904;-0.9095;
264.3000;0.0920;-0.9027;
264.6000;0.0912;-0.9118;
264.9000;0.0961;-0.9073;
265.2000;0.0936;-0.9050;
265.5000;0.0944;-0.9050;
265.8000;0.0936;-0.9163;
266.1000;0.0928;-0.9095;
266.4000;0.0838;-0.9322;
266.7000;0.0904;-0.9186;
267.0000;0.0895;-0.9231;
267.3000;0.0944;-0.9118;
267.6000;0.0912;-0.9186;
267.9000;0.0936;-0.9141;
268.2000;0.0936;-0.9186;
268.5000;0.0920;-0.9208;
268.8000;0.0912;-0.9208;
269.1000;0.0936;-0.9186;
269.4000;0.0944;-0.9141;
269.7000;0.0904;-0.9254;
270.0000;0.0863;-0.9367;
270.3000;0.0936;-0.9231;
270.6000;0.0920;-0.9299;
270.9000;0.0895;-0.9367;
271.2000;0.0912;-0.9254;
271.5000;0.0928;-0.9231;
271.8000;0.1009;-0.8982;
272.1000;0.0920;-0.9276;
272.4000;0.0912;-0.9299;
272.7000;0.0920;-0.9299;
273.0000;0.0928;-0.9276;
273.3000;0.0944;-0.9254;
273.6000;0.0912;-0.9299;
273.9000;0.0895;-0.9254;
274.2000;0.0912;-0.9276;
274.5000;0.0912;-0.9299;
274.8000;0.0912;-0.9231;
275.1000;0.0928;-0.9186;
275.4000;0.0920;-0.9163;
275.7000;0.0895;-0.9118;
276.0000;0.0912;-0.9118;
276.3000;0.0936;-0.9027;
276.6000;0.0928;-0.9141;
276.9000;0.0887;-0.9254;
277.2000;0.0928;-0.9141;
277.5000;0.0920;-0.9163;
277.8000;0.0920;-0.9163;
278.1000;0.0920;-0.9141;
278.4000;0.0920;-0.9073;
278.7000;0.0904;-0.9073;
279.0000;0.0912;-0.9118;
279.3000;0.1026;-0.8869;
279.6000;0.0920;-0.9095;
279.9000;0.0928;-0.9050;
280.2000;0.0904;-0.9027;
280.5000;0.0920;-0.8982;
280.8000;0.0969;-0.8824;
281.1000;0.0936;-0.8982;
281.4000;0.0847;-0.9254;
281.7000;0.0961;-0.9027;
282.0000;0.0936;-0.9141;
282.3000;0.0847;-0.9254;
282.6000;0.0920;-0.9095;
282.9000;0.0912;-0.9095;
283.2000;0.0822;-0.9322;
283.5000;0.0944;-0.9005;
283.8000;0.0912;-0.9163;
284.1000;0.0863;-0.9276;
284.4000;0.0895;-0.9141;
284.7000;0.0928;-0.9163;
285.0000;0.0912;-0.9186;
285.3000;0.0895;-0.9254;
285.6000;0.0904;-0.9299;
285.9000;0.0920;-0.9231;
286.2000;0.0904;-0.9276;
286.5000;0.0936;-0.9231;
286.8000;0.0928;-0.9276;
287.1000;0.0895;-0.9367;
287.4000;0.0904;-0.9186;
287.7000;0.0879;-0.9254;
288.0000;0.0895;-0.9208;
288.3000;0.0936;-0.9186;
288.6000;0.0895;-0.9254;
288.9000;0.0912;-0.9095;
289.2000;0.0879;-0.9254;
289.5000;0.0944;-0.9095;
289.8000;0.0887;-0.9186;
290.1000;0.0895;-0.9118;
290.4000;0.0928;-0.9095;
290.7000;0.0863;-0.9322;
291.0000;0.0928;-0.9095;
291.3000;0.0977;-0.8914;
291.6000;0.0928;-0.9005;
291.9000;0.0912;-0.9027;
292.2000;0.0928;-0.9050;
292.5000;0.0952;-0.9027;
292.8000;0.0904;-0.9163;
293.1000;0.0904;-0.9186;
293.4000;0.0895;-0.9186;
293.7000;0.0904;-0.9163;
294.0000;0.0961;-0.8982;
294.3000;0.0928;-0.9095;
294.6000;0.0895;-0.9095;
294.9000;0.0912;-0.9095;
295.2000;0.0928;-0.9141;
295.5000;0.0920;-0.9073;
295.8000;0.0912;-0.9027;
296.1000;0.0871;-0.9254;
296.4000;0.0912;-0.9186;
296.7000;0.0895;-0.9163;
297.0000;0.0920;-0.9141;
297.3000;0.0847;-0.9254;
297.6000;0.0920;-0.9095;
297.9000;0.0879;-0.9186;
298.2000;0.0944;-0.9050;
298.5000;0.0904;-0.9163;
298.8000;0.0904;-0.9208;
299.1000;0.0928;-0.9163;
299.4000;0.0920;-0.9322;
299.7000;0.0847;-0.9525;
300.0000;0.0814;-0.9525;
300.3000;0.0928;-0.9231;
300.6000;0.0928;-0.9322;
300.9000;0.0904;-0.9344;
301.2000;0.0936;-0.9163;
301.5000;0.0904;-0.9141;
301.8000;0.0952;-0.9005;
302.1000;0.0944;-0.8937;
302.4000;0.0952;-0.8914;
302.7000;0.0830;-0.9299;
303.0000;0.0936;-0.9095;
303.3000;0.0895;-0.9299;
303.6000;0.0944;-0.9118;
303.9000;0.0920;-0.9231;
304.2000;0.0904;-0.9163;
304.5000;0.0871;-0.9208;
304.8000;0.0863;-0.9186;
305.1000;0.0912;-0.9163;
305.4000;0.0781;-0.9457;
305.7000;0.0920;-0.9095;
306.0000;0.0920;-0.9163;
306.3000;0.0944;-0.9141;
306.6000;0.0936;-0.9141;
306.9000;0.0920;-0.9299;
307.2000;0.0920;-0.9389;
307.5000;0.0993;-0.9231;
307.8000;0.0920;-0.9322;
308.1000;0.0830;-0.9457;
308.4000;0.0912;-0.9231;
308.7000;0.0904;-0.9208;
309.0000;0.0936;-0.9027;
309.3000;0.0895;-0.9163;
309.6000;0.0871;-0.9276;
309.9000;0.0920;-0.9118;
310.2000;0.1018;-0.8869;
310.5000;0.0969;-0.8937;
310.8000;0.0944;-0.9073;
311.1000;0.0895;-0.9050;
311.4000;0.0887;-0.9005;
311.7000;0.0952;-0.8846;
312.0000;0.0912;-0.8892;
312.3000;0.0822;-0.9050;
312.6000;0.0928;-0.8801;
312.9000;0.0912;-0.8801;
313.2000;0.0936;-0.8688;
313.5000;0.1001;-0.8507;
313.8000;0.0912;-0.8824;
314.1000;0.0920;-0.8846;
314.4000;0.0928;-0.8801;
314.7000;0.0863;-0.9027;
315.0000;0.0904;-0.8982;
315.3000;0.0944;-0.8937;
315.6000;0.0928;-0.8982;
315.9000;0.0928;-0.9095;
316.2000;0.0993;-0.8914;
316.5000;0.0879;-0.9299;
316.8000;0.0936;-0.9254;
317.1000;0.0961;-0.9118;
317.4000;0.0920;-0.9276;
317.7000;0.0920;-0.9322;
318.0000;0.0928;-0.9208;
318.3000;0.0936;-0.9141;
318.6000;0.0944;-0.9027;
318.9000;0.0936;-0.9050;
319.2000;0.0895;-0.9141;
319.5000;0.0928;-0.9073;
319.8000;0.0928;-0.9050;
320.1000;0.0912;-0.8982;
320.4000;0.0912;-0.8982;
320.7000;0.0928;-0.9095;
321.0000;0.0920;-0.9073;
321.3000;0.0936;-0.9050;
321.6000;0.0904;-0.9073;
321.9000;0.0879;-0.9231;
322.2000;0.0887;-0.9208;
322.5000;0.0912;-0.9186;
322.8000;0.0920;-0.9231;
323.1000;0.0920;-0.9231;
323.4000;0.0904;-0.9276;
323.7000;0.0952;-0.9163;
324.0000;0.0928;-0.9163;
324.3000;0.0920;-0.9118;
324.6000;0.0928;-0.9141;
324.9000;0.0912;-0.9163;
325.2000;0.0887;-0.9231;
325.5000;0.0952;-0.9141;
325.8000;0.0920;-0.9163;
326.1000;0.0936;-0.9163;
326.4000;0.0855;-0.9344;
326.7000;0.1034;-0.8869;
327.0000;0.0920;-0.9231;
327.3000;0.0952;-0.9163;
327.6000;0.0895;-0.9322;
327.9000;0.0920;-0.9299;
328.2000;0.0879;-0.9344;
328.5000;0.0879;-0.9435;
328.8000;0.0879;-0.9367;
329.1000;0.0936;-0.9254;
329.4000;0.0895;-0.9299;
329.7000;0.0830;-0.9480;
330.0000;0.0936;-0.9299;
330.3000;0.0904;-0.9322;
330.6000;0.0977;-0.9095;
330.9000;0.0928;-0.9231;
331.2000;0.0985;-0.9095;
331.5000;0.0887;-0.9367;
331.8000;0.0961;-0.9141;
332.1000;0.0944;-0.9208;
332.4000;0.0912;-0.9299;
332.7000;0.0928;-0.9254;
333.0000;0.0904;-0.9344;
333.3000;0.0977;-0.9118;
333.6000;0.0904;-0.9299;
333.9000;0.0928;-0.9299;
334.2000;0.0904;-0.9367;
334.5000;0.0895;-0.9344;
334.8000;0.0912;-0.9231;
335.1000;0.0920;-0.9186;
335.4000;0.0928;-0.9163;
335.7000;0.0920;-0.9141;
336.0000;0.0936;-0.9073;
336.3000;0.0847;-0.9344;
336.6000;0.0895;-0.9186;
336.9000;0.0904;-0.9163;
337.2000;0.0920;-0.9186;
337.5000;0.0952;-0.9073;
337.8000;0.0904;-0.9208;
338.1000;0.0928;-0.9163;
338.4000;0.0952;-0.9073;
338.7000;0.0912;-0.9186;
339.0000;0.0912;-0.9163;
339.3000;0.0912;-0.9231;
339.6000;0.0928;-0.9118;
339.9000;0.0928;-0.9027;
340.2000;0.0928;-0.9027;
340.5000;0.0928;-0.9118;
340.8000;0.0936;-0.9163;
341.1000;0.0912;-0.9186;
341.4000;0.0961;-0.9050;
341.7000;0.0928;-0.9050;
342.0000;0.0912;-0.9095;
342.3000;0.0936;-0.9073;
342.6000;0.0936;-0.9095;
342.9000;0.0920;-0.9186;
343.2000;0.1034;-0.8869;
343.5000;0.0928;-0.9208;
343.8000;0.0920;-0.9163;
344.1000;0.0912;-0.9231;
344.4000;0.0969;-0.9095;
344.7000;0.0879;-0.9276;
345.0000;0.0944;-0.9118;
345.3000;0.0936;-0.9118;
345.6000;0.0936;-0.9118;
345.9000;0.0912;-0.9118;
346.2000;0.0936;-0.9118;
346.5000;0.0944;-0.9073;
346.8000;0.0912;-0.9141;
347.1000;0.0912;-0.9073;
347.4000;0.1050;-0.8779;
347.7000;0.0912;-0.9095;
348.0000;0.0912;-0.9050;
348.3000;0.0912;-0.9141;
348.6000;0.0936;-0.9095;
348.9000;0.0920;-0.9141;
349.2000;0.0928;-0.9186;
349.5000;0.0920;-0.9208;
349.8000;0.0920;-0.9163;
350.1000;0.0920;-0.9141;
350.4000;0.0871;-0.9435;
350.7000;0.0838;-0.9593;
351.0000;0.0936;-0.9299;
351.3000;0.0912;-0.9367;
351.6000;0.0912;-0.9389;
351.9000;0.0993;-0.9208;
352.2000;0.0879;-0.9457;
352.5000;0.0944;-0.9231;
352.8000;0.0936;-0.9231;
353.1000;0.0887;-0.9322;
353.4000;0.0912;-0.9254;
353.7000;0.0895;-0.9231;
354.0000;0.0969;-0.9141;
354.3000;0.0928;-0.9186;
354.6000;0.0928;-0.9141;
354.9000;0.0912;-0.9163;
355.2000;0.0985;-0.8960;
355.5000;0.0855;-0.9163;
355.8000;0.0977;-0.8869;
356.1000;0.0928;-0.9005;
356.4000;0.0936;-0.8982;
356.7000;0.0912;-0.9073;
357.0000;0.1009;-0.8779;
357.3000;0.0920;-0.9095;
357.6000;0.0912;-0.9118;
357.9000;0.0936;-0.9163;
358.2000;0.0904;-0.9186;
358.5000;0.0895;-0.9254;
358.8000;0.0887;-0.9254;
359.1000;0.0895;-0.9276;
359.4000;0.0904;-0.9186;
359.7000;0.0920;-0.9095;
360.0000;0.0928;-0.9027;
360.3000;0.0928;-0.9073;
360.6000;0.0904;-0.9073;
360.9000;0.0912;-0.9005;
361.2000;0.0912;-0.9141;
361.5000;0.0912;-0.9208;
361.8000;0.0912;-0.9231;
362.1000;0.0838;-0.9412;
362.4000;0.0912;-0.9186;
362.7000;0.0928;-0.9254;
363.0000;0.0912;-0.9208;
363.3000;0.0936;-0.9118;
363.6000;0.0961;-0.9141;
363.9000;0.0887;-0.9231;
364.2000;0.1001;-0.9005;
364.5000;0.0887;-0.9276;
364.8000;0.0895;-0.9208;
365.1000;0.0912;-0.9163;
365.4000;0.0952;-0.9073;
365.7000;0.0961;-0.9141;
366.0000;0.0961;-0.9027;
366.3000;0.0920;-0.9163;
366.6000;0.0904;-0.9208;
366.9000;0.0904;-0.9095;
367.2000;0.0904;-0.9118;
367.5000;0.0879;-0.9208;
367.8000;0.0912;-0.9050;
368.1000;0.0936;-0.9027;
368.4000;0.0887;-0.9163;
368.7000;0.0895;-0.9141;
369.0000;0.0895;-0.9073;
369.3000;0.0904;-0.9095;
369.6000;0.0928;-0.9050;
369.9000;0.0936;-0.9050;
370.2000;0.0928;-0.9073;
370.5000;0.0904;-0.9141;
370.8000;0.0920;-0.9073;
371.1000;0.0920;-0.8960;
371.4000;0.0928;-0.8892;
371.7000;0.0912;-0.8824;
372.0000;0.0936;-0.8892;
372.3000;0.0895;-0.9027;
372.6000;0.0920;-0.9005;
372.9000;0.0920;-0.9095;
373.2000;0.0904;-0.9141;
373.5000;0.0838;-0.9322;
373.8000;0.0920;-0.9073;
374.1000;0.0920;-0.9073;
374.4000;0.0936;-0.9005;
374.7000;0.0904;-0.9118;
375.0000;0.0944;-0.9073;
375.3000;0.0912;-0.9231;
375.6000;0.0895;-0.9186;
375.9000;0.0912;-0.9118;
376.2000;0.0895;-0.9163;
376.5000;0.0920;-0.9073;
376.8000;0.0920;-0.9027;
377.1000;0.0993;-0.8892;
377.4000;0.0912;-0.9073;
377.7000;0.0895;-0.9027;
378.0000;0.0928;-0.8937;
378.3000;0.0871;-0.9050;
378.6000;0.0928;-0.8982;
378.9000;0.0912;-0.9050;
379.2000;0.0904;-0.9118;
379.5000;0.0944;-0.8960;
379.8000;0.0904;-0.9073;
380.1000;0.0928;-0.8982;
380.4000;0.0912;-0.9005;
380.7000;0.0928;-0.8937;
381.0000;0.0928;-0.8982;
381.3000;0.0855;-0.9163;
381.6000;0.0928;-0.8869;
381.9000;0.0895;-0.8937;
382.2000;0.0879;-0.9005;
382.5000;0.0993;-0.8801;
382.8000;0.1009;-0.8779;
383.1000;0.0895;-0.9118;
383.4000;0.0879;-0.9073;
383.7000;0.0887;-0.9163;
384.0000;0.0936;-0.9118;
384.3000;0.1050;-0.8824;
384.6000;0.0920;-0.9163;
384.9000;0.0887;-0.9231;
385.2000;0.0863;-0.9186;
385.5000;0.0936;-0.8982;
385.8000;0.0936;-0.8982;
386.1000;0.0863;-0.9163;
386.4000;0.0912;-0.9095;
386.7000;0.0904;-0.9118;
387.0000;0.0928;-0.9163;
387.3000;0.0928;-0.9231;
387.6000;0.0806;-0.9480;
387.9000;0.0895;-0.9276;
388.2000;0.0847;-0.9412;
388.5000;0.0863;-0.9412;
388.8000;0.0895;-0.9322;
389.1000;0.1018;-0.9095;
389.4000;0.0904;-0.9322;
389.7000;0.0912;-0.9344;
390.0000;0.0928;-0.9299;
390.3000;0.0887;-0.9367;
390.6000;0.0936;-0.9322;
390.9000;0.0928;-0.9186;
391.2000;0.0904;-0.9186;
391.5000;0.0920;-0.9276;
391.8000;0.0936;-0.9231;
392.1000;0.0879;-0.9367;
392.4000;0.0887;-0.9457;
392.7000;0.0952;-0.9254;
393.0000;0.0920;-0.9299;
393.3000;0.0928;-0.9299;
393.6000;0.0920;-0.9389;
393.9000;0.0887;-0.9412;
394.2000;0.0912;-0.9322;
394.5000;0.0944;-0.9141;
394.8000;0.0912;-0.9163;
395.1000;0.0904;-0.9163;
395.4000;0.0936;-0.9118;
395.7000;0.0912;-0.9186;
396.0000;0.0904;-0.9118;
396.3000;0.0928;-0.9005;
396.6000;0.0912;-0.9118;
396.9000;0.0928;-0.9073;
397.2000;0.0928;-0.9163;
397.5000;0.0806;-0.9525;
397.8000;0.0847;-0.9503;
398.1000;0.0895;-0.9322;
398.4000;0.0879;-0.9367;
398.7000;0.0912;-0.9299;
399.0000;0.0887;-0.9367;
399.3000;0.0936;-0.9163;
399.6000;0.0814;-0.9525;
399.9000;0.0887;-0.9480;
400.2000;0.0904;-0.9389;
400.5000;0.0895;-0.9389;
400.8000;0.0936;-0.9254;
401.1000;0.0977;-0.9073;
401.4000;0.0904;-0.9276;
401.7000;0.0904;-0.9208;
402.0000;0.0920;-0.9118;
402.3000;0.0912;-0.9118;
402.6000;0.0952;-0.8960;
402.9000;0.0920;-0.8960;
403.2000;0.0928;-0.8914;
403.5000;0.0904;-0.8960;
403.8000;0.0912;-0.9005;
404.1000;0.0928;-0.8982;
404.4000;0.0944;-0.9050;
404.7000;0.0928;-0.9050;
405.0000;0.0944;-0.9005;
405.3000;0.0936;-0.9050;
405.6000;0.0993;-0.8914;
405.9000;0.0928;-0.9118;
406.2000;0.0928;-0.9163;
406.5000;0.0806;-0.9457;
406.8000;0.0912;-0.9141;
407.1000;0.0895;-0.9163;
407.4000;0.0871;-0.9231;
407.7000;0.0822;-0.9208;
408.0000;0.0928;-0.8937;
408.3000;0.0912;-0.9005;
408.6000;0.0847;-0.9141;
408.9000;0.0920;-0.8982;
409.2000;0.0920;-0.9005;
409.5000;0.0928;-0.8869;
409.8000;0.0904;-0.8869;
410.1000;0.0912;-0.8914;
410.4000;0.0928;-0.8801;
410.7000;0.0969;-0.8733;
411.0000;0.0928;-0.8869;
411.3000;0.0936;-0.8892;
411.6000;0.0895;-0.8960;
411.9000;0.1018;-0.8733;
412.2000;0.1001;-0.8779;
412.5000;0.0912;-0.8982;
412.8000;0.0895;-0.8982;
413.1000;0.1001;-0.8688;
413.4000;0.0847;-0.9095;
413.7000;0.0912;-0.8982;
414.0000;0.0904;-0.9005;
414.3000;0.0871;-0.9118;
414.6000;0.0920;-0.9005;
414.9000;0.0928;-0.8960;
415.2000;0.0904;-0.8982;
415.5000;0.0912;-0.8982;
415.8000;0.0895;-0.9027;
416.1000;0.0920;-0.8937;
416.4000;0.1018;-0.8756;
416.7000;0.0952;-0.8914;
417.0000;0.0904;-0.9005;
417.3000;0.0904;-0.9027;
417.6000;0.0920;-0.9095;
417.9000;0.0928;-0.9118;
418.2000;0.0920;-0.9141;
418.5000;0.0920;-0.9141;
418.8000;0.0912;-0.9073;
419.1000;0.0904;-0.9073;
419.4000;0.0920;-0.9005;
419.7000;0.0936;-0.8937;
420.0000;0.0936;-0.9073;
420.3000;0.0895;-0.9118;
420.6000;0.1018;-0.8711;
420.9000;0.0847;-0.9027;
421.2000;0.0944;-0.8779;
421.5000;0.0904;-0.8937;
421.8000;0.0887;-0.8982;
422.1000;0.0887;-0.8914;
422.4000;0.0920;-0.8869;
422.7000;0.0912;-0.8869;
423.0000;0.0928;-0.8869;
423.3000;0.0830;-0.9231;
423.6000;0.0952;-0.9005;
423.9000;0.1009;-0.8711;
424.2000;0.0920;-0.8960;
424.5000;0.0920;-0.8982;
424.8000;0.0920;-0.8982;
425.1000;0.0985;-0.8801;
425.4000;0.0904;-0.8960;
425.7000;0.0887;-0.8982;
426.0000;0.0920;-0.8824;
426.3000;0.0977;-0.8643;
426.6000;0.0928;-0.8756;
426.9000;0.0912;-0.8846;
427.2000;0.0912;-0.8801;
427.5000;0.0928;-0.8665;
427.8000;0.0912;-0.8688;
428.1000;0.0936;-0.8598;
428.4000;0.0904;-0.8756;
428.7000;0.0952;-0.8665;
429.0000;0.0912;-0.8846;
429.3000;0.0904;-0.8846;
429.6000;0.0944;-0.8620;
429.9000;0.0904;-0.8733;
430.2000;0.0814;-0.9005;
430.5000;0.0855;-0.8960;
430.8000;0.0928;-0.8756;
431.1000;0.0904;-0.8869;
431.4000;0.0936;-0.8846;
431.7000;0.0895;-0.8937;
432.0000;0.0904;-0.8960;
432.3000;0.0920;-0.9027;
432.6000;0.0920;-0.9005;
432.9000;0.0912;-0.9050;
433.2000;0.0920;-0.9005;
433.5000;0.0895;-0.9073;
433.8000;0.0920;-0.9005;
434.1000;0.0936;-0.9005;
434.4000;0.0895;-0.9073;
434.7000;0.0920;-0.9050;
435.0000;0.0928;-0.8982;
435.3000;0.0936;-0.9005;
435.6000;0.0928;-0.9073;
435.9000;0.0928;-0.9005;
436.2000;0.0928;-0.8937;
436.5000;0.0920;-0.8846;
436.8000;0.0904;-0.8846;
437.1000;0.0912;-0.8801;
437.4000;0.0887;-0.8892;
437.7000;0.0920;-0.8846;
438.0000;0.0904;-0.8892;
438.3000;0.0920;-0.8892;
438.6000;0.0904;-0.8960;
438.9000;0.0928;-0.8982;
439.2000;0.0920;-0.8937;
439.5000;0.0871;-0.9118;
439.8000;0.0928;-0.9005;
440.1000;0.0904;-0.8982;
440.4000;0.0912;-0.9005;
440.7000;0.0912;-0.9027;
441.0000;0.0920;-0.9005;
441.3000;0.0936;-0.9005;
441.6000;0.0895;-0.9005;
441.9000;0.0904;-0.8982;
442.2000;0.0879;-0.9005;
442.5000;0.0879;-0.9141;
442.8000;0.0912;-0.9141;
443.1000;0.0904;-0.9163;
443.4000;0.0879;-0.9163;
443.7000;0.0904;-0.9118;
444.0000;0.0928;-0.8982;
444.3000;0.0936;-0.8914;
444.6000;0.1066;-0.8552;
444.9000;0.0912;-0.8824;
445.2000;0.0936;-0.8801;
445.5000;0.0920;-0.8711;
445.8000;0.0993;-0.8575;
446.1000;0.0895;-0.8779;
446.4000;0.0790;-0.9050;
446.7000;0.0936;-0.8711;
447.0000;0.0912;-0.8779;
447.3000;0.0928;-0.8756;
447.6000;0.0936;-0.8688;
447.9000;0.0895;-0.8779;
448.2000;0.0895;-0.8801;
448.5000;0.0928;-0.8643;
448.8000;0.0904;-0.8824;
449.1000;0.0969;-0.8643;
449.4000;0.0920;-0.8801;
449.7000;0.0887;-0.8914;
450.0000;0.0895;-0.8892;
450.3000;0.0847;-0.9050;
450.6000;0.0920;-0.8846;
450.9000;0.0912;-0.8892;
451.2000;0.0895;-0.8914;
451.5000;0.0904;-0.8914;
451.8000;0.0887;-0.9118;
452.1000;0.0904;-0.9118;
452.4000;0.0830;-0.9231;
452.7000;0.0936;-0.8937;
453.0000;0.0920;-0.8914;
453.3000;0.0920;-0.8937;
453.6000;0.0912;-0.8869;
453.9000;0.0928;-0.8824;
454.2000;0.0936;-0.8779;
454.5000;0.0920;-0.8779;
454.8000;0.0895;-0.8846;
455.1000;0.0936;-0.8801;
455.4000;0.0936;-0.8688;
455.7000;0.0944;-0.8711;
456.0000;0.0920;-0.8801;
456.3000;0.0904;-0.8801;
456.6000;0.0920;-0.8688;
456.9000;0.0920;-0.8711;
457.2000;0.0944;-0.8688;
457.5000;0.0887;-0.8892;
457.8000;0.0912;-0.8846;
458.1000;0.0944;-0.8779;
458.4000;0.0920;-0.8824;
458.7000;0.0895;-0.8937;
459.0000;0.0904;-0.8914;
459.3000;0.0904;-0.8824;
459.6000;0.0920;-0.8779;
459.9000;0.0928;-0.8733;
460.2000;0.0912;-0.8892;
460.5000;0.1009;-0.8620;
460.8000;0.0912;-0.8779;
461.1000;0.0920;-0.8711;
461.4000;0.0822;-0.9027;
461.7000;0.0912;-0.8846;
462.0000;0.0904;-0.8824;
462.3000;0.0855;-0.8960;
462.6000;0.0895;-0.8892;
462.9000;0.0904;-0.8869;
463.2000;0.0928;-0.8688;
463.5000;0.0912;-0.8711;
463.8000;0.0904;-0.8688;
464.1000;0.0912;-0.8643;
464.4000;0.0928;-0.8665;
464.7000;0.0928;-0.8711;
465.0000;0.0920;-0.8756;
465.3000;0.0920;-0.8733;
465.6000;0.0855;-0.8914;
465.9000;0.0985;-0.8688;
466.2000;0.0912;-0.8937;
466.5000;0.0871;-0.9005;
466.8000;0.0822;-0.9118;
467.1000;0.0887;-0.9027;
467.4000;0.0936;-0.9005;
467.7000;0.0912;-0.9050;
468.0000;0.0912;-0.9027;
468.3000;0.0920;-0.9027;
468.6000;0.0879;-0.9118;
468.9000;0.0904;-0.9095;
469.2000;0.0920;-0.9073;
469.5000;0.0887;-0.9118;
469.8000;0.0936;-0.8960;
470.1000;0.0904;-0.9005;
470.4000;0.0936;-0.8892;
470.7000;0.0928;-0.8869;
471.0000;0.0928;-0.8937;
471.3000;0.0993;-0.8733;
471.6000;0.0879;-0.9050;
471.9000;0.0928;-0.8937;
472.2000;0.0847;-0.9163;
472.5000;0.0936;-0.8914;
472.8000;0.0895;-0.8846;
473.1000;0.0879;-0.8937;
473.4000;0.0895;-0.8937;
473.7000;0.0912;-0.8869;
474.0000;0.0895;-0.8869;
474.3000;0.0822;-0.9118;
474.6000;0.0912;-0.8892;
474.9000;0.1058;-0.8462;
475.2000;0.0920;-0.8756;
475.5000;0.0920;-0.8756;
475.8000;0.0936;-0.8598;
476.1000;0.0936;-0.8643;
476.4000;0.0814;-0.9050;
476.7000;0.0904;-0.8892;
477.0000;0.0928;-0.8846;
477.3000;0.0920;-0.8846;
477.6000;0.0879;-0.8914;
477.9000;0.0920;-0.8869;
478.2000;0.0904;-0.8914;
478.5000;0.0895;-0.8869;
478.8000;0.0838;-0.9118;
479.1000;0.0952;-0.8801;
479.4000;0.0969;-0.8869;
479.7000;0.0871;-0.9073;
480.0000;0.1083;-0.8665;
480.3000;0.0912;-0.9095;
480.6000;0.0920;-0.9095;
480.9000;0.0912;-0.9118;
481.2000;0.1001;-0.8937;
481.5000;0.0887;-0.9141;
481.8000;0.0904;-0.9231;
482.1000;0.0806;-0.9503;
482.4000;0.0969;-0.9027;
482.7000;0.0912;-0.9231;
483.0000;0.0887;-0.9231;
483.3000;0.0904;-0.9231;
483.6000;0.0912;-0.9254;
483.9000;0.0847;-0.9367;
484.2000;0.0912;-0.9186;
484.5000;0.0912;-0.9163;
484.8000;0.1026;-0.8869;
485.1000;0.0928;-0.9073;
485.4000;0.0912;-0.9141;
485.7000;0.0936;-0.9050;
486.0000;0.0936;-0.9073;
486.3000;0.0920;-0.9050;
486.6000;0.0936;-0.9050;
486.9000;0.0928;-0.9073;
487.2000;0.0904;-0.9186;
487.5000;0.0928;-0.9163;
487.8000;0.0879;-0.9231;
488.1000;0.0920;-0.9095;
488.4000;0.0928;-0.9073;
488.7000;0.0822;-0.9322;
489.0000;0.0822;-0.9389;
489.3000;0.0920;-0.9141;
489.6000;0.0871;-0.9276;
489.9000;0.0838;-0.9299;
490.2000;0.0920;-0.9186;
490.5000;0.0912;-0.9276;
490.8000;0.0887;-0.9344;
491.1000;0.0928;-0.9141;
491.4000;0.0920;-0.9163;
491.7000;0.0936;-0.9141;
492.0000;0.0904;-0.9163;
492.3000;0.0912;-0.9163;
492.6000;0.0887;-0.9254;
492.9000;0.0912;-0.9208;
493.2000;0.0936;-0.9005;
493.5000;0.0830;-0.9299;
493.8000;0.0912;-0.9163;
494.1000;0.0855;-0.9276;
494.4000;0.0920;-0.8982;
494.7000;0.0936;-0.8869;
495.0000;0.0887;-0.9005;
495.3000;0.0798;-0.9231;
495.6000;0.0912;-0.8937;
495.9000;0.0904;-0.8869;
496.2000;0.0912;-0.8824;
496.5000;0.0920;-0.8824;
496.8000;0.0912;-0.8914;
497.1000;0.0944;-0.8824;
497.4000;0.0895;-0.8960;
497.7000;0.0863;-0.9095;
498.0000;0.0895;-0.9050;
498.3000;0.0830;-0.9254;
498.6000;0.1074;-0.8620;
498.9000;0.0904;-0.9027;
499.2000;0.0895;-0.8982;
499.5000;0.0936;-0.8892;
499.8000;0.0912;-0.9027;
500.1000;0.0920;-0.9005;
500.4000;0.0904;-0.9118;
500.7000;0.0993;-0.8892;
501.0000;0.0904;-0.9073;
501.3000;0.1026;-0.8756;
501.6000;0.0895;-0.9073;
501.9000;0.0887;-0.9027;
502.2000;0.0887;-0.9095;
502.5000;0.0895;-0.9095;
502.8000;0.0920;-0.8960;
503.1000;0.0936;-0.8892;
503.4000;0.0928;-0.8914;
503.7000;0.0928;-0.8914;
504.0000;0.0985;-0.8869;
504.3000;0.0895;-0.9005;
504.6000;0.0904;-0.8960;
504.9000;0.0904;-0.8937;
505.2000;0.0895;-0.8982;
505.5000;0.0904;-0.8960;
505.8000;0.0895;-0.9050;
506.1000;0.0928;-0.9050;
506.4000;0.0920;-0.9073;
506.7000;0.0904;-0.9163;
507.0000;0.0944;-0.9005;
507.3000;0.0961;-0.8937;
507.6000;0.0936;-0.8914;
507.9000;0.0920;-0.8960;
508.2000;0.0912;-0.9005;
508.5000;0.0904;-0.9118;
508.8000;0.0928;-0.9163;
509.1000;0.0936;-0.9027;
509.4000;0.0985;-0.8801;
509.7000;0.0920;-0.8869;
510.0000;0.0920;-0.8914;
510.3000;0.0920;-0.9005;
510.6000;0.0944;-0.8937;
510.9000;0.0912;-0.9073;
511.2000;0.0952;-0.9005;
511.5000;0.0863;-0.9208;
511.8000;0.0904;-0.9118;
512.1000;0.0936;-0.9005;
512.4000;0.0920;-0.9073;
512.7000;0.0847;-0.9254;
513.0000;0.0912;-0.9050;
513.3000;0.0912;-0.9073;
513.6000;0.0887;-0.9050;
513.9000;0.0944;-0.8869;
514.2000;0.0887;-0.8892;
514.5000;0.0904;-0.8824;
514.8000;0.0765;-0.9095;
515.1000;0.0904;-0.8846;
515.4000;0.0936;-0.8733;
515.7000;0.0936;-0.8756;
516.0000;0.0912;-0.8779;
516.3000;0.0936;-0.8801;
516.6000;0.0920;-0.8756;
516.9000;0.0904;-0.8756;
517.2000;0.0838;-0.9027;
517.5000;0.0904;-0.8937;
517.8000;0.0895;-0.9005;
518.1000;0.0952;-0.8869;
518.4000;0.0904;-0.9027;
518.7000;0.0895;-0.9050;
519.0000;0.0936;-0.8937;
519.3000;0.0920;-0.8960;
519.6000;0.1009;-0.8711;
519.9000;0.0781;-0.9322;
520.2000;0.0969;-0.8801;
520.5000;0.0895;-0.9005;
520.8000;0.0920;-0.8960;
521.1000;0.0904;-0.8982;
521.4000;0.1026;-0.8620;
521.7000;0.0977;-0.8688;
522.0000;0.0936;-0.8982;
522.3000;0.0895;-0.8982;
522.6000;0.0985;-0.8756;
522.9000;0.0912;-0.8982;
523.2000;0.0904;-0.9005;
523.5000;0.0904;-0.8960;
523.8000;0.0895;-0.8960;
524.1000;0.0920;-0.8892;
524.4000;0.0944;-0.8869;
524.7000;0.0977;-0.8733;
525.0000;0.1001;-0.8598;
525.3000;0.0912;-0.8733;
525.6000;0.0863;-0.8892;
525.9000;0.0904;-0.8824;
526.2000;0.0887;-0.8869;
526.5000;0.0912;-0.8846;
526.8000;0.0904;-0.8779;
527.1000;0.0895;-0.8756;
527.4000;0.0895;-0.8846;
527.7000;0.0895;-0.8846;
528.0000;0.0928;-0.8846;
528.3000;0.0895;-0.8982;
528.6000;0.0904;-0.8960;
528.9000;0.0912;-0.8960;
529.2000;0.0936;-0.8801;
529.5000;0.0830;-0.9186;
529.8000;0.0904;-0.8869;
530.1000;0.0952;-0.8779;
530.4000;0.0895;-0.8960;
530.7000;0.0936;-0.8869;
531.0000;0.0912;-0.8914;
531.3000;0.0904;-0.8937;
531.6000;0.0928;-0.8960;
531.9000;0.0912;-0.8982;
532.2000;0.0887;-0.9005;
532.5000;0.0895;-0.8982;
532.8000;0.0904;-0.9005;
533.1000;0.0928;-0.8982;
533.4000;0.0904;-0.8982;
533.7000;0.0936;-0.8869;
534.0000;0.0961;-0.8733;
534.3000;0.0895;-0.8982;
534.6000;0.0936;-0.8846;
534.9000;0.0895;-0.8960;
535.2000;0.0904;-0.8960;
535.5000;0.0887;-0.9050;
535.8000;0.0895;-0.9005;
536.1000;0.0928;-0.9027;
536.4000;0.0863;-0.9208;
536.7000;0.0920;-0.9073;
537.0000;0.0904;-0.8960;
537.3000;0.0920;-0.8914;
537.6000;0.0961;-0.8801;
537.9000;0.0863;-0.9095;
538.2000;0.0887;-0.9073;
538.5000;0.0985;-0.8846;
538.8000;0.0887;-0.9118;
539.1000;0.0814;-0.9299;
539.4000;0.0920;-0.9005;
539.7000;0.0895;-0.9027;
540.0000;0.0822;-0.9186;
540.3000;0.0961;-0.8801;
540.6000;0.0928;-0.8892;
540.9000;0.0928;-0.8937;
541.2000;0.0961;-0.8846;
541.5000;0.0944;-0.8869;
541.8000;0.0920;-0.8937;
542.1000;0.0961;-0.8869;
542.4000;0.0920;-0.8892;
542.7000;0.0895;-0.9027;
543.0000;0.0904;-0.8960;
543.3000;0.0912;-0.8892;
543.6000;0.0838;-0.9073;
543.9000;0.0904;-0.8869;
544.2000;0.0912;-0.8846;
544.5000;0.0928;-0.8824;
544.8000;0.0904;-0.8824;
545.1000;0.0847;-0.9005;
545.4000;0.0904;-0.8914;
545.7000;0.0904;-0.8801;
546.0000;0.0912;-0.8756;
546.3000;0.0863;-0.8914;
546.6000;0.0871;-0.9027;
546.9000;0.0928;-0.8892;
547.2000;0.0895;-0.8982;
547.5000;0.0944;-0.8846;
547.8000;0.0912;-0.8982;
548.1000;0.0920;-0.8914;
548.4000;0.0969;-0.8846;
548.7000;0.0912;-0.9095;
549.0000;0.0912;-0.9005;
549.3000;0.0895;-0.9005;
549.6000;0.0863;-0.9118;
549.9000;0.0952;-0.8937;
550.2000;0.0904;-0.9027;
550.5000;0.0944;-0.8914;
550.8000;0.0952;-0.8892;
551.1000;0.0912;-0.8960;
551.4000;0.0920;-0.8937;
551.7000;0.0912;-0.8914;
552.0000;0.0920;-0.8801;
552.3000;0.0806;-0.9141;
552.6000;0.0887;-0.8982;
552.9000;0.0920;-0.8982;
553.2000;0.0904;-0.9050;
553.5000;0.0920;-0.8960;
553.8000;0.0895;-0.8960;
554.1000;0.0912;-0.8914;
554.4000;0.0781;-0.9231;
554.7000;0.0952;-0.8846;
555.0000;0.0912;-0.8937;
555.3000;0.0920;-0.8982;
555.6000;0.0944;-0.8982;
555.9000;0.0863;-0.9118;
556.2000;0.0944;-0.8869;
556.5000;0.0944;-0.8824;
556.8000;0.0904;-0.8846;
557.1000;0.0920;-0.8688;
557.4000;0.0928;-0.8733;
557.7000;0.0912;-0.8779;
558.0000;0.0936;-0.8711;
558.3000;0.0936;-0.8711;
558.6000;0.0952;-0.8733;
558.9000;0.0904;-0.8756;
559.2000;0.0912;-0.8846;
559.5000;0.0920;-0.8914;
559.8000;0.0936;-0.8937;
560.1000;0.0912;-0.8937;
560.4000;0.0912;-0.8914;
560.7000;0.1009;-0.8575;
561.0000;0.0904;-0.8779;
561.3000;0.0912;-0.8711;
561.6000;0.0895;-0.8801;
561.9000;0.0887;-0.8779;
562.2000;0.0928;-0.8665;
562.5000;0.0969;-0.8530;
562.8000;0.0904;-0.8733;
563.1000;0.0879;-0.8756;
563.4000;0.0863;-0.8801;
563.7000;0.0928;-0.8711;
564.0000;0.0904;-0.8756;
564.3000;0.0887;-0.8914;
564.6000;0.0928;-0.8779;
564.9000;0.0977;-0.8552;
565.2000;0.0920;-0.8598;
565.5000;0.0904;-0.8530;
565.8000;0.0928;-0.8530;
566.1000;0.0944;-0.8484;
566.4000;0.0920;-0.8575;
566.7000;0.0928;-0.8530;
567.0000;0.0952;-0.8462;
567.3000;0.0920;-0.8575;
567.6000;0.0936;-0.8620;
567.9000;0.0895;-0.8733;
568.2000;0.0936;-0.8643;
568.5000;0.0928;-0.8688;
568.8000;0.0920;-0.8665;
569.1000;0.0912;-0.8643;
569.4000;0.0847;-0.8824;
569.7000;0.0928;-0.8665;
570.0000;0.0912;-0.8801;
570.3000;0.0993;-0.8620;
570.6000;0.0936;-0.8756;
570.9000;0.0912;-0.8892;
571.2000;0.0961;-0.8801;
571.5000;0.0928;-0.8892;
571.8000;0.0928;-0.8937;
572.1000;0.0928;-0.8892;
572.4000;0.0912;-0.8937;
572.7000;0.0879;-0.8824;
573.0000;0.0912;-0.8846;
573.3000;0.0904;-0.8869;
573.6000;0.0879;-0.8982;
573.9000;0.0936;-0.8846;
574.2000;0.0904;-0.8982;
574.5000;0.0895;-0.9073;
574.8000;0.0936;-0.9027;
575.1000;0.0944;-0.8982;
575.4000;0.0920;-0.9005;
575.7000;0.0936;-0.8937;
576.0000;0.0928;-0.9005;
576.3000;0.0830;-0.9322;
576.6000;0.0936;-0.8960;
576.9000;0.0904;-0.9027;
577.2000;0.0936;-0.9005;
577.5000;0.0920;-0.8960;
577.8000;0.0912;-0.8733;
578.1000;0.0912;-0.8733;
578.4000;0.0961;-0.8620;
578.7000;0.0920;-0.8711;
579.0000;0.0944;-0.8756;
579.3000;0.0887;-0.8869;
579.6000;0.0912;-0.8914;
579.9000;0.0904;-0.8960;
580.2000;0.0920;-0.8869;
580.5000;0.0912;-0.8869;
580.8000;0.0912;-0.8824;
581.1000;0.0904;-0.8824;
581.4000;0.0952;-0.8711;
581.7000;0.0904;-0.8824;
582.0000;0.0920;-0.8824;
582.3000;0.0912;-0.8846;
582.6000;0.0920;-0.8779;
582.9000;0.0912;-0.8801;
583.2000;0.0912;-0.8801;
583.5000;0.0920;-0.8733;
583.8000;0.0912;-0.8688;
584.1000;0.0952;-0.8439;
584.4000;0.0895;-0.8620;
584.7000;0.0895;-0.8643;
585.0000;0.0961;-0.8439;
585.3000;0.0895;-0.8575;
585.6000;0.0863;-0.8756;
585.9000;0.0895;-0.8688;
586.2000;0.0912;-0.8665;
586.5000;0.0912;-0.8688;
586.8000;0.0928;-0.8733;
587.1000;0.0904;-0.8869;
587.4000;0.0961;-0.8801;
587.7000;0.0993;-0.8733;
588.0000;0.0912;-0.8937;
588.3000;0.0871;-0.9027;
588.6000;0.0920;-0.8960;
588.9000;0.0838;-0.9186;
589.2000;0.0912;-0.8982;
589.5000;0.0912;-0.8982;
589.8000;0.0920;-0.8914;
590.1000;0.0822;-0.9163;
590.4000;0.0936;-0.8892;
590.7000;0.0912;-0.9005;
591.0000;0.0887;-0.9050;
591.3000;0.0904;-0.9050;
591.6000;0.0904;-0.9027;
591.9000;0.0912;-0.9005;
592.2000;0.0928;-0.8960;
592.5000;0.0952;-0.8960;
592.8000;0.0920;-0.8914;
593.1000;0.0912;-0.8960;
593.4000;0.0879;-0.9050;
593.7000;0.0895;-0.9005;
594.0000;0.0912;-0.8937;
594.3000;0.0904;-0.8892;
594.6000;0.0887;-0.8982;
594.9000;0.0961;-0.8688;
595.2000;0.0928;-0.8801;
595.5000;0.0912;-0.8801;
595.8000;0.0895;-0.8824;
596.1000;0.0895;-0.8869;
596.4000;0.0920;-0.8892;
596.7000;0.0920;-0.8869;
597.0000;0.0920;-0.8869;
597.3000;0.0952;-0.8824;
597.6000;0.1026;-0.8665;
597.9000;0.0920;-0.8982;
598.2000;0.0887;-0.9141;
598.5000;0.0879;-0.9186;
598.8000;0.0977;-0.8960;
599.1000;0.0928;-0.9073;
599.4000;0.0912;-0.9073;
599.7000;0.0928;-0.9095;
600.0000;0.0871;-0.9163;
600.3000;0.0887;-0.9050;
600.6000;0.0895;-0.8960;
600.9000;0.0895;-0.8982;
601.2000;0.0895;-0.8982;
601.5000;0.0879;-0.9163;
601.8000;0.0928;-0.9118;
602.1000;0.0871;-0.9299;
602.4000;0.0855;-0.9435;
602.7000;0.0887;-0.9457;
603.0000;0.0871;-0.9570;
603.3000;0.0847;-0.9751;
603.6000;0.0863;-0.9887;
603.9000;0.0847;-1.0023;
604.2000;0.0838;-1.0046;
604.5000;0.0838;-1.0113;
604.8000;0.0798;-1.0294;
605.1000;0.0830;-1.0181;
605.4000;0.0822;-1.0227;
605.7000;0.0838;-1.0181;
606.0000;0.0830;-1.0136;
606.3000;0.0806;-1.0317;
606.6000;0.0830;-1.0181;
606.9000;0.0806;-1.0249;
607.2000;0.0855;-1.0181;
607.5000;0.0814;-1.0317;
607.8000;0.0806;-1.0272;
608.1000;0.0830;-1.0159;
608.4000;0.0830;-1.0136;
608.7000;0.0830;-1.0227;
609.0000;0.0806;-1.0317;
609.3000;0.0814;-1.0294;
609.6000;0.0806;-1.0317;
609.9000;0.0814;-1.0272;
610.2000;0.0806;-1.0204;
610.5000;0.0838;-1.0181;
610.8000;0.0912;-0.9910;
611.1000;0.0806;-1.0227;
611.4000;0.0724;-1.0521;
611.7000;0.0781;-1.0453;
612.0000;0.0806;-1.0385;
612.3000;0.0806;-1.0430;
612.6000;0.0798;-1.0430;
612.9000;0.0757;-1.0475;
613.2000;0.0773;-1.0385;
613.5000;0.0798;-1.0408;
613.8000;0.0773;-1.0430;
614.1000;0.0667;-1.0724;
614.4000;0.0765;-1.0589;
614.7000;0.0781;-1.0521;
615.0000;0.0798;-1.0543;
615.3000;0.0765;-1.0589;
615.6000;0.0806;-1.0475;
615.9000;0.0790;-1.0521;
616.2000;0.0895;-1.0249;
616.5000;0.0806;-1.0430;
616.8000;0.0790;-1.0340;
617.1000;0.0806;-1.0340;
617.4000;0.0773;-1.0521;
617.7000;0.0781;-1.0498;
618.0000;0.0773;-1.0498;
618.3000;0.0790;-1.0521;
618.6000;0.0765;-1.0475;
618.9000;0.0757;-1.0543;
619.2000;0.0773;-1.0521;
619.5000;0.0724;-1.0589;
619.8000;0.0773;-1.0453;
620.1000;0.0724;-1.0543;
620.4000;0.0757;-1.0408;
620.7000;0.0773;-1.0385;
621.0000;0.0773;-1.0453;
621.3000;0.0773;-1.0408;
621.6000;0.0790;-1.0362;
621.9000;0.0765;-1.0453;
622.2000;0.0781;-1.0453;
622.5000;0.0757;-1.0521;
622.8000;0.0781;-1.0475;
623.1000;0.0757;-1.0589;
623.4000;0.0806;-1.0521;
623.7000;0.0757;-1.0634;
624.0000;0.0765;-1.0589;
624.3000;0.0798;-1.0521;
624.6000;0.0781;-1.0634;
624.9000;0.0798;-1.0611;
625.2000;0.0765;-1.0634;
625.5000;0.0790;-1.0566;
625.8000;0.0773;-1.0475;
626.1000;0.0798;-1.0453;
626.4000;0.0830;-1.0385;
626.7000;0.0781;-1.0521;
627.0000;0.0806;-1.0475;
627.3000;0.0749;-1.0475;
627.6000;0.0741;-1.0521;
627.9000;0.0708;-1.0566;
628.2000;0.0741;-1.0475;
628.5000;0.0781;-1.0385;
628.8000;0.0757;-1.0521;
629.1000;0.0741;-1.0589;
629.4000;0.0741;-1.0566;
629.7000;0.0765;-1.0521;
630.0000;0.0700;-1.0679;
630.3000;0.0749;-1.0453;
630.6000;0.0749;-1.0385;
630.9000;0.0741;-1.0317;
631.2000;0.0757;-1.0272;
631.5000;0.0749;-1.0136;
631.8000;0.0781;-1.0113;
632.1000;0.0700;-1.0249;
632.4000;0.0757;-1.0068;
632.7000;0.0724;-1.0136;
633.0000;0.0554;-1.0589;
633.3000;0.0765;-1.0046;
633.6000;0.0733;-1.0181;
633.9000;0.0790;-0.9978;
634.2000;0.0724;-1.0159;
634.5000;0.0757;-1.0091;
634.8000;0.0757;-1.0068;
635.1000;0.0757;-1.0068;
635.4000;0.0643;-1.0272;
635.7000;0.0676;-1.0227;
636.0000;0.0765;-0.9978;
636.3000;0.0749;-1.0000;
636.6000;0.0749;-0.9932;
636.9000;0.0741;-0.9978;
637.2000;0.0765;-0.9865;
637.5000;0.0749;-0.9910;
637.8000;0.0724;-1.0068;
638.1000;0.0798;-0.9978;
638.4000;0.0773;-1.0091;
638.7000;0.0757;-1.0136;
639.0000;0.0765;-1.0091;
639.3000;0.0724;-1.0159;
639.6000;0.0741;-1.0181;
639.9000;0.0724;-1.0159;
640.2000;0.0749;-1.0181;
640.5000;0.0741;-1.0204;
640.8000;0.0749;-1.0181;
641.1000;0.0773;-1.0204;
641.4000;0.0798;-1.0046;
641.7000;0.0733;-1.0227;
642.0000;0.0741;-1.0181;
642.3000;0.0741;-1.0136;
642.6000;0.0757;-1.0023;
642.9000;0.0749;-1.0136;
643.2000;0.0741;-1.0249;
643.5000;0.0724;-1.0317;
643.8000;0.0765;-1.0227;
644.1000;0.0741;-1.0272;
644.4000;0.0733;-1.0294;
644.7000;0.0741;-1.0272;
645.0000;0.0798;-1.0113;
645.3000;0.0733;-1.0249;
645.6000;0.0765;-1.0272;
645.9000;0.0773;-1.0227;
646.2000;0.0749;-1.0068;
646.5000;0.0765;-1.0023;
646.8000;0.0773;-1.0023;
647.1000;0.0757;-0.9978;
647.4000;0.0733;-1.0113;
647.7000;0.0708;-1.0272;
648.0000;0.0765;-1.0181;
648.3000;0.0765;-1.0136;
648.6000;0.0586;-1.0589;
648.9000;0.0733;-1.0227;
649.2000;0.0765;-1.0113;
649.5000;0.0651;-1.0317;
649.8000;0.0765;-1.0046;
650.1000;0.0749;-1.0091;
650.4000;0.0733;-1.0113;
650.7000;0.0708;-1.0136;
651.0000;0.0749;-1.0046;
651.3000;0.0741;-1.0091;
651.6000;0.0806;-1.0068;
651.9000;0.0741;-1.0113;
652.2000;0.0765;-1.0046;
652.5000;0.0716;-1.0091;
652.8000;0.0724;-1.0113;
653.1000;0.0749;-1.0113;
653.4000;0.0676;-1.0294;
653.7000;0.0708;-1.0294;
654.0000;0.0749;-1.0204;
654.3000;0.0749;-1.0181;
654.6000;0.0716;-1.0317;
654.9000;0.0724;-1.0317;
655.2000;0.0741;-1.0272;
655.5000;0.0733;-1.0272;
655.8000;0.0765;-1.0068;
656.1000;0.0716;-1.0249;
656.4000;0.0814;-1.0000;
656.7000;0.0643;-1.0408;
657.0000;0.0724;-1.0159;
657.3000;0.0733;-1.0181;
657.6000;0.0757;-1.0181;
657.9000;0.0724;-1.0227;
658.2000;0.0724;-1.0294;
658.5000;0.0716;-1.0340;
658.8000;0.0749;-1.0294;
659.1000;0.0733;-1.0294;
659.4000;0.0798;-1.0181;
659.7000;0.0733;-1.0317;
660.0000;0.0749;-1.0317;
660.3000;0.0741;-1.0340;
660.6000;0.0724;-1.0362;
660.9000;0.0716;-1.0430;
661.2000;0.0741;-1.0294;
661.5000;0.0757;-1.0227;
661.8000;0.0733;-1.0249;
662.1000;0.0733;-1.0249;
662.4000;0.0790;-1.0136;
662.7000;0.0741;-1.0317;
663.0000;0.0733;-1.0362;
663.3000;0.0741;-1.0317;
663.6000;0.0724;-1.0317;
663.9000;0.0684;-1.0475;
664.2000;0.0724;-1.0385;
664.5000;0.0733;-1.0385;
664.8000;0.0708;-1.0475;
665.1000;0.0733;-1.0408;
665.4000;0.0733;-1.0408;
665.7000;0.0765;-1.0317;
666.0000;0.0741;-1.0385;
666.3000;0.0733;-1.0385;
666.6000;0.0749;-1.0272;
666.9000;0.0765;-1.0294;
667.2000;0.0733;-1.0430;
667.5000;0.0741;-1.0385;
667.8000;0.0716;-1.0453;
668.1000;0.0757;-1.0272;
668.4000;0.0741;-1.0317;
668.7000;0.0741;-1.0272;
669.0000;0.0798;-1.0249;
669.3000;0.0773;-1.0272;
669.6000;0.0765;-1.0249;
669.9000;0.0749;-1.0294;
670.2000;0.0733;-1.0272;
670.5000;0.0700;-1.0408;
670.8000;0.0741;-1.0227;
671.1000;0.0724;-1.0249;
671.4000;0.0676;-1.0294;
671.7000;0.0847;-0.9978;
672.0000;0.0692;-1.0385;
672.3000;0.0838;-1.0068;
672.6000;0.0749;-1.0340;
672.9000;0.0741;-1.0294;
673.2000;0.0773;-1.0204;
673.5000;0.0757;-1.0385;
673.8000;0.0757;-1.0362;
674.1000;0.0716;-1.0408;
674.4000;0.0700;-1.0453;
674.7000;0.0716;-1.0408;
675.0000;0.0733;-1.0362;
675.3000;0.0757;-1.0294;
675.6000;0.0749;-1.0340;
675.9000;0.0741;-1.0362;
676.2000;0.0741;-1.0317;
676.5000;0.0765;-1.0204;
676.8000;0.0716;-1.0362;
677.1000;0.0765;-1.0249;
677.4000;0.0700;-1.0385;
677.7000;0.0708;-1.0453;
678.0000;0.0741;-1.0385;
678.3000;0.0757;-1.0340;
678.6000;0.0724;-1.0340;
678.9000;0.0716;-1.0340;
679.2000;0.0676;-1.0408;
679.5000;0.0700;-1.0362;
679.8000;0.0781;-1.0136;
680.1000;0.0757;-1.0272;
680.4000;0.0667;-1.0521;
680.7000;0.0773;-1.0204;
681.0000;0.0733;-1.0249;
681.3000;0.0708;-1.0227;
681.6000;0.0724;-1.0204;
681.9000;0.0733;-1.0227;
682.2000;0.0708;-1.0317;
682.5000;0.0757;-1.0317;
682.8000;0.0724;-1.0408;
683.1000;0.0773;-1.0362;
683.4000;0.0733;-1.0385;
683.7000;0.0741;-1.0362;
684.0000;0.0733;-1.0362;
684.3000;0.0790;-1.0204;
684.6000;0.0716;-1.0249;
684.9000;0.0741;-1.0227;
685.2000;0.0676;-1.0453;
685.5000;0.0708;-1.0294;
685.8000;0.0684;-1.0385;
686.1000;0.0716;-1.0294;
686.4000;0.0733;-1.0294;
686.7000;0.0733;-1.0317;
687.0000;0.0724;-1.0249;
687.3000;0.0708;-1.0340;
687.6000;0.0724;-1.0340;
687.9000;0.0781;-1.0046;
688.2000;0.0733;-1.0136;
688.5000;0.0757;-1.0000;
688.8000;0.0724;-1.0046;
689.1000;0.0741;-1.0113;
689.4000;0.0724;-1.0136;
689.7000;0.0757;-1.0159;
690.0000;0.0814;-0.9955;
690.3000;0.0724;-1.0204;
690.6000;0.0708;-1.0159;
690.9000;0.0741;-1.0091;
691.2000;0.0822;-0.9910;
691.5000;0.0724;-1.0204;
691.8000;0.0757;-1.0091;
692.1000;0.0724;-1.0113;
692.4000;0.0757;-1.0068;
692.7000;0.0700;-1.0317;
693.0000;0.0716;-1.0227;
693.3000;0.0798;-0.9978;
693.6000;0.0724;-1.0113;
693.9000;0.0667;-1.0249;
694.2000;0.0733;-1.0249;
694.5000;0.0684;-1.0362;
694.8000;0.0733;-1.0249;
695.1000;0.0643;-1.0498;
695.4000;0.0741;-1.0181;
695.7000;0.0692;-1.0340;
696.0000;0.0716;-1.0272;
696.3000;0.0708;-1.0249;
696.6000;0.0708;-1.0294;
696.9000;0.0724;-1.0272;
697.2000;0.0716;-1.0317;
697.5000;0.0765;-1.0181;
697.8000;0.0676;-1.0475;
698.1000;0.0741;-1.0294;
698.4000;0.0708;-1.0317;
698.7000;0.0692;-1.0340;
699.0000;0.0684;-1.0385;
699.3000;0.0733;-1.0340;
699.6000;0.0724;-1.0340;
699.9000;0.0724;-1.0272;
700.2000;0.0749;-1.0091;
700.5000;0.0700;-1.0204;
700.8000;0.0716;-1.0181;
701.1000;0.0733;-1.0159;
701.4000;0.0724;-1.0272;
701.7000;0.0724;-1.0227;
702.0000;0.0724;-1.0136;
702.3000;0.0741;-1.0113;
702.6000;0.0708;-1.0136;
702.9000;0.0716;-1.0136;
703.2000;0.0724;-1.0113;
703.5000;0.0667;-1.0272;
703.8000;0.0724;-1.0181;
704.1000;0.0741;-1.0249;
704.4000;0.0716;-1.0340;
704.7000;0.0724;-1.0272;
705.0000;0.0708;-1.0317;
705.3000;0.0733;-1.0340;
705.6000;0.0741;-1.0317;
705.9000;0.0749;-1.0204;
706.2000;0.0724;-1.0272;
706.5000;0.0765;-1.0181;
706.8000;0.0757;-1.0159;
707.1000;0.0733;-1.0181;
707.4000;0.0749;-1.0091;
707.7000;0.0708;-1.0249;
708.0000;0.0733;-1.0181;
708.3000;0.0700;-1.0294;
708.6000;0.0724;-1.0249;
708.9000;0.0822;-0.9978;
709.2000;0.0651;-1.0317;
709.5000;0.0757;-1.0113;
709.8000;0.0757;-1.0159;
710.1000;0.0708;-1.0408;
710.4000;0.0700;-1.0385;
710.7000;0.0724;-1.0317;
711.0000;0.0749;-1.0272;
711.3000;0.0773;-1.0249;
711.6000;0.0724;-1.0408;
711.9000;0.0716;-1.0430;
712.2000;0.0724;-1.0408;
712.5000;0.0716;-1.0430;
712.8000;0.0749;-1.0340;
713.1000;0.0741;-1.0408;
713.4000;0.0749;-1.0430;
713.7000;0.0749;-1.0498;
714.0000;0.0733;-1.0453;
714.3000;0.0749;-1.0362;
714.6000;0.0749;-1.0453;
714.9000;0.0716;-1.0385;
715.2000;0.0749;-1.0294;
715.5000;0.0724;-1.0340;
715.8000;0.0749;-1.0249;
716.1000;0.0724;-1.0317;
716.4000;0.0741;-1.0227;
716.7000;0.0676;-1.0408;
717.0000;0.0741;-1.0159;
717.3000;0.0716;-1.0227;
717.6000;0.0724;-1.0091;
717.9000;0.0708;-1.0068;
718.2000;0.0716;-1.0091;
718.5000;0.0822;-0.9955;
718.8000;0.0741;-1.0113;
719.1000;0.0700;-1.0113;
719.4000;0.0733;-1.0046;
719.7000;0.0700;-1.0181;
720.0000;0.0790;-1.0068;
720.3000;0.0765;-1.0091;
720.6000;0.0741;-1.0204;
720.9000;0.0692;-1.0317;
721.2000;0.0741;-1.0159;
721.5000;0.0724;-1.0227;
721.8000;0.0741;-1.0181;
722.1000;0.0724;-1.0272;
722.4000;0.0749;-1.0181;
722.7000;0.0692;-1.0249;
723.0000;0.0790;-1.0046;
723.3000;0.0733;-1.0227;
723.6000;0.0724;-1.0204;
723.9000;0.0716;-1.0227;
724.2000;0.0708;-1.0249;
724.5000;0.0741;-1.0159;
724.8000;0.0749;-1.0159;
725.1000;0.0733;-1.0227;
725.4000;0.0708;-1.0204;
725.7000;0.0716;-1.0227;
726.0000;0.0733;-1.0136;
726.3000;0.0708;-1.0227;
726.6000;0.0708;-1.0159;
726.9000;0.0716;-1.0113;
727.2000;0.0643;-1.0362;
727.5000;0.0602;-1.0430;
727.8000;0.0798;-1.0000;
728.1000;0.0830;-0.9842;
728.4000;0.0733;-1.0091;
728.7000;0.0733;-1.0113;
729.0000;0.0724;-1.0159;
729.3000;0.0659;-1.0249;
729.6000;0.0724;-1.0046;
729.9000;0.0741;-0.9955;
730.2000;0.0684;-1.0136;
730.5000;0.0741;-0.9887;
730.8000;0.0741;-0.9842;
731.1000;0.0708;-0.9910;
731.4000;0.0741;-0.9819;
731.7000;0.0716;-0.9887;
732.0000;0.0749;-0.9865;
732.3000;0.0676;-1.0068;
732.6000;0.0733;-1.0000;
732.9000;0.0716;-0.9955;
733.2000;0.0724;-1.0023;
733.5000;0.0724;-1.0068;
733.8000;0.0790;-0.9978;
734.1000;0.0733;-1.0159;
734.4000;0.0814;-0.9910;
734.7000;0.0716;-1.0113;
735.0000;0.0724;-0.9978;
735.3000;0.0635;-1.0294;
735.6000;0.0773;-0.9955;
735.9000;0.0724;-1.0113;
736.2000;0.0708;-1.0113;
736.5000;0.0741;-1.0068;
736.8000;0.0733;-1.0113;
737.1000;0.0708;-1.0181;
737.4000;0.0733;-1.0159;
737.7000;0.0741;-1.0091;
738.0000;0.0724;-1.0091;
738.3000;0.0733;-1.0159;
738.6000;0.0749;-1.0159;
738.9000;0.0578;-1.0498;
739.2000;0.0733;-1.0068;
739.5000;0.0708;-1.0068;
739.8000;0.0733;-1.0046;
740.1000;0.0716;-1.0159;
740.4000;0.0733;-1.0204;
740.7000;0.0708;-1.0317;
741.0000;0.0635;-1.0566;
741.3000;0.0692;-1.0362;
741.6000;0.0733;-1.0113;
741.9000;0.0749;-1.0000;
742.2000;0.0700;-1.0068;
742.5000;0.0765;-0.9955;
742.8000;0.0708;-1.0068;
743.1000;0.0798;-0.9842;
743.4000;0.0659;-1.0227;
743.7000;0.0741;-1.0136;
744.0000;0.0741;-1.0091;
744.3000;0.0700;-1.0046;
744.6000;0.0741;-1.0000;
744.9000;0.0724;-1.0023;
745.2000;0.0741;-1.0046;
745.5000;0.0733;-1.0068;
745.8000;0.0708;-1.0113;
746.1000;0.0724;-1.0113;
746.4000;0.0724;-1.0091;
746.7000;0.0733;-1.0023;
747.0000;0.0733;-1.0023;
747.3000;0.0733;-1.0068;
747.6000;0.0708;-1.0091;
747.9000;0.0700;-1.0159;
748.2000;0.0773;-1.0046;
748.5000;0.0773;-1.0046;
748.8000;0.0716;-1.0046;
749.1000;0.0611;-1.0362;
749.4000;0.0659;-1.0227;
749.7000;0.0716;-1.0046;
750.0000;0.0781;-0.9774;
750.3000;0.0724;-0.9932;
750.6000;0.0724;-0.9932;
750.9000;0.0594;-1.0204;
751.2000;0.0733;-0.9887;
751.5000;0.0871;-0.9503;
751.8000;0.0700;-1.0000;
752.1000;0.0733;-0.9955;
752.4000;0.0716;-1.0113;
752.7000;0.0724;-1.0113;
753.0000;0.0741;-1.0113;
753.3000;0.0749;-1.0113;
753.6000;0.0708;-1.0181;
753.9000;0.0741;-1.0113;
754.2000;0.0733;-1.0091;
754.5000;0.0716;-1.0136;
754.8000;0.0733;-1.0091;
755.1000;0.0716;-1.0113;
755.4000;0.0724;-1.0000;
755.7000;0.0733;-1.0046;
756.0000;0.0741;-0.9978;
756.3000;0.0716;-1.0023;
756.6000;0.0741;-1.0091;
756.9000;0.0749;-1.0091;
757.2000;0.0757;-1.0159;
757.5000;0.0741;-1.0227;
757.8000;0.0716;-1.0204;
758.1000;0.0733;-1.0068;
758.4000;0.0676;-1.0249;
758.7000;0.0692;-1.0227;
759.0000;0.0684;-1.0136;
759.3000;0.0741;-1.0046;
759.6000;0.0724;-1.0091;
759.9000;0.0724;-1.0068;
760.2000;0.0733;-1.0046;
760.5000;0.0724;-1.0023;
760.8000;0.0724;-1.0068;
761.1000;0.0716;-1.0091;
761.4000;0.0708;-0.9978;
761.7000;0.0741;-0.9978;
762.0000;0.0708;-1.0000;
762.3000;0.0692;-1.0068;
762.6000;0.0781;-0.9887;
762.9000;0.0749;-1.0023;
763.2000;0.0733;-0.9978;
763.5000;0.0757;-0.9887;
763.8000;0.0708;-1.0023;
764.1000;0.0847;-0.9638;
764.4000;0.0749;-0.9887;
764.7000;0.0716;-0.9865;
765.0000;0.0733;-0.9910;
765.3000;0.0781;-0.9819;
765.6000;0.0586;-1.0317;
765.9000;0.0708;-1.0046;
766.2000;0.0708;-1.0000;
766.5000;0.0724;-0.9978;
766.8000;0.0741;-0.9978;
767.1000;0.0716;-1.0023;
767.4000;0.0814;-0.9865;
767.7000;0.0716;-1.0068;
768.0000;0.0684;-1.0159;
768.3000;0.0716;-1.0068;
768.6000;0.0724;-1.0091;
768.9000;0.0659;-1.0227;
769.2000;0.0692;-1.0113;
769.5000;0.0716;-1.0068;
769.8000;0.0708;-1.0068;
770.1000;0.0708;-1.0000;
770.4000;0.0757;-0.9819;
770.7000;0.0716;-1.0000;
771.0000;0.0814;-0.9842;
771.3000;0.0684;-1.0204;
771.6000;0.0757;-1.0091;
771.9000;0.0643;-1.0408;
772.2000;0.0716;-1.0181;
772.5000;0.0733;-1.0227;
772.8000;0.0716;-1.0317;
773.1000;0.0790;-1.0136;
773.4000;0.0708;-1.0227;
773.7000;0.0733;-1.0136;
774.0000;0.0700;-1.0272;
774.3000;0.0749;-1.0113;
774.6000;0.0830;-0.9955;
774.9000;0.0733;-1.0136;
775.2000;0.0733;-1.0136;
775.5000;0.0724;-1.0159;
775.8000;0.0724;-1.0249;
776.1000;0.0733;-1.0272;
776.4000;0.0741;-1.0181;
776.7000;0.0733;-1.0181;
777.0000;0.0741;-1.0068;
777.3000;0.0692;-1.0159;
777.6000;0.0765;-0.9978;
777.9000;0.0684;-1.0159;
778.2000;0.0733;-1.0091;
778.5000;0.0741;-1.0023;
778.8000;0.0716;-1.0046;
779.1000;0.0733;-1.0023;
779.4000;0.0741;-0.9978;
779.7000;0.0757;-0.9910;
780.0000;0.0733;-0.9978;
780.3000;0.0700;-1.0113;
780.6000;0.0708;-1.0159;
780.9000;0.0667;-1.0181;
781.2000;0.0749;-1.0000;
781.5000;0.0716;-1.0113;
781.8000;0.0724;-1.0113;
782.1000;0.0757;-0.9955;
782.4000;0.0830;-0.9842;
782.7000;0.0741;-1.0091;
783.0000;0.0733;-1.0046;
783.3000;0.0757;-0.9978;
783.6000;0.0749;-1.0046;
783.9000;0.0741;-1.0113;
784.2000;0.0749;-1.0159;
784.5000;0.0708;-1.0204;
784.8000;0.0716;-1.0204;
785.1000;0.0700;-1.0272;
785.4000;0.0667;-1.0317;
785.7000;0.0733;-1.0181;
786.0000;0.0692;-1.0272;
786.3000;0.0741;-1.0113;
786.6000;0.0733;-1.0204;
786.9000;0.0765;-1.0204;
787.2000;0.0733;-1.0294;
787.5000;0.0724;-1.0227;
787.8000;0.0724;-1.0227;
788.1000;0.0749;-1.0181;
788.4000;0.0667;-1.0430;
788.7000;0.0765;-1.0113;
789.0000;0.0724;-1.0159;
789.3000;0.0814;-0.9910;
789.6000;0.0716;-1.0091;
789.9000;0.0757;-0.9978;
790.2000;0.0806;-0.9842;
790.5000;0.0692;-1.0159;
790.8000;0.0716;-1.0113;
791.1000;0.0716;-1.0113;
791.4000;0.0700;-1.0181;
791.7000;0.0651;-1.0362;
792.0000;0.0781;-0.9819;
792.3000;0.0700;-1.0091;
792.6000;0.0749;-1.0068;
792.9000;0.0708;-1.0113;
793.2000;0.0733;-1.0000;
793.5000;0.0741;-1.0068;
793.8000;0.0724;-1.0046;
794.1000;0.0724;-1.0091;
794.4000;0.0733;-1.0023;
794.7000;0.0724;-1.0113;
795.0000;0.0798;-0.9932;
795.3000;0.0757;-1.0046;
795.6000;0.0733;-1.0046;
795.9000;0.0684;-1.0227;
796.2000;0.0749;-1.0023;
796.5000;0.0733;-1.0046;
796.8000;0.0708;-1.0113;
797.1000;0.0749;-1.0046;
797.4000;0.0757;-1.0000;
797.7000;0.0700;-1.0136;
798.0000;0.0733;-1.0023;
798.3000;0.0757;-1.0000;
798.6000;0.0733;-1.0113;
798.9000;0.0716;-1.0204;
799.2000;0.0749;-1.0136;
799.5000;0.0667;-1.0340;
799.8000;0.0733;-1.0113;
800.1000;0.0733;-1.0136;
800.4000;0.0757;-1.0068;
800.7000;0.0700;-1.0136;
801.0000;0.0684;-1.0181;
801.3000;0.0773;-0.9887;
801.6000;0.0619;-1.0227;
801.9000;0.0700;-1.0046;
802.2000;0.0578;-1.0408;
802.5000;0.0749;-0.9978;
802.8000;0.0716;-1.0068;
803.1000;0.0716;-1.0046;
803.4000;0.0708;-1.0023;
803.7000;0.0724;-1.0000;
804.0000;0.0741;-0.9932;
804.3000;0.0716;-0.9955;
804.6000;0.0724;-1.0000;
804.9000;0.0716;-1.0091;
805.2000;0.0716;-1.0091;
805.5000;0.0716;-1.0091;
805.8000;0.0790;-1.0023;
806.1000;0.0708;-1.0204;
806.4000;0.0733;-1.0068;
806.7000;0.0684;-1.0159;
807.0000;0.0667;-1.0181;
807.3000;0.0700;-1.0113;
807.6000;0.0724;-1.0023;
807.9000;0.0798;-0.9819;
808.2000;0.0700;-1.0068;
808.5000;0.0716;-1.0091;
808.8000;0.0749;-1.0023;
809.1000;0.0724;-1.0046;
809.4000;0.0863;-0.9684;
809.7000;0.0757;-1.0091;
810.0000;0.0724;-1.0068;
810.3000;0.0700;-1.0136;
810.6000;0.0716;-1.0091;
810.9000;0.0692;-1.0159;
811.2000;0.0724;-1.0113;
811.5000;0.0716;-1.0159;
811.8000;0.0716;-1.0091;
812.1000;0.0724;-1.0068;
812.4000;0.0757;-0.9955;
812.7000;0.0814;-0.9842;
813.0000;0.0741;-0.9955;
813.3000;0.0798;-0.9797;
813.6000;0.0749;-0.9842;
813.9000;0.0741;-0.9842;
814.2000;0.0806;-0.9751;
814.5000;0.0741;-0.9978;
814.8000;0.0716;-1.0023;
815.1000;0.0684;-1.0159;
815.4000;0.0708;-1.0091;
815.7000;0.0741;-1.0091;
816.0000;0.0733;-1.0113;
816.3000;0.0733;-1.0159;
816.6000;0.0733;-1.0204;
816.9000;0.0733;-1.0068;
817.2000;0.0749;-1.0113;
817.5000;0.0708;-1.0113;
817.8000;0.0773;-1.0023;
818.1000;0.0716;-1.0046;
818.4000;0.0700;-1.0136;
818.7000;0.0716;-1.0046;
819.0000;0.0724;-1.0113;
819.3000;0.0724;-1.0113;
819.6000;0.0659;-1.0091;
819.9000;0.0716;-0.9865;
820.2000;0.0708;-0.9910;
820.5000;0.0733;-0.9932;
820.8000;0.0733;-1.0023;
821.1000;0.0708;-1.0113;
821.4000;0.0741;-1.0046;
821.7000;0.0733;-1.0091;
822.0000;0.0741;-1.0091;
822.3000;0.0627;-1.0362;
822.6000;0.0733;-1.0113;
822.9000;0.0741;-1.0136;
823.2000;0.0700;-1.0362;
823.5000;0.0659;-1.0475;
823.8000;0.0716;-1.0294;
824.1000;0.0716;-1.0249;
824.4000;0.0716;-1.0362;
824.7000;0.0700;-1.0408;
825.0000;0.0708;-1.0340;
825.3000;0.0651;-1.0521;
825.6000;0.0724;-1.0204;
825.9000;0.0708;-1.0227;
826.2000;0.0700;-1.0272;
826.5000;0.0700;-1.0181;
826.8000;0.0741;-1.0136;
827.1000;0.0708;-1.0204;
827.4000;0.0724;-1.0227;
827.7000;0.0700;-1.0181;
828.0000;0.0716;-1.0068;
828.3000;0.0749;-1.0023;
828.6000;0.0716;-1.0249;
828.9000;0.0716;-1.0227;
829.2000;0.0676;-1.0317;
829.5000;0.0724;-1.0159;
829.8000;0.0667;-1.0294;
830.1000;0.0716;-1.0227;
830.4000;0.0716;-1.0136;
830.7000;0.0749;-1.0113;
831.0000;0.0692;-1.0249;
831.3000;0.0765;-1.0227;
831.6000;0.0741;-1.0294;
831.9000;0.0749;-1.0294;
832.2000;0.0708;-1.0294;
832.5000;0.0724;-1.0272;
832.8000;0.0733;-1.0181;
833.1000;0.0733;-1.0159;
833.4000;0.0733;-1.0181;
833.7000;0.0716;-1.0227;
834.0000;0.0741;-1.0181;
834.3000;0.0643;-1.0498;
834.6000;0.0676;-1.0294;
834.9000;0.0741;-1.0136;
835.2000;0.0708;-1.0204;
835.5000;0.0749;-1.0136;
835.8000;0.0716;-1.0204;
836.1000;0.0716;-1.0204;
836.4000;0.0749;-1.0181;
836.7000;0.0741;-1.0227;
837.0000;0.0724;-1.0408;
837.3000;0.0741;-1.0430;
837.6000;0.0724;-1.0408;
837.9000;0.0733;-1.0408;
838.2000;0.0765;-1.0317;
838.5000;0.0749;-1.0362;
838.8000;0.0708;-1.0521;
839.1000;0.0724;-1.0453;
839.4000;0.0724;-1.0362;
839.7000;0.0757;-1.0317;
840.0000;0.0733;-1.0362;
840.3000;0.0733;-1.0136;
840.6000;0.0692;-1.0046;
840.9000;0.0708;-1.0000;
841.2000;0.0700;-1.0068;
841.5000;0.0855;-0.9684;
841.8000;0.0708;-1.0046;
842.1000;0.0700;-1.0091;
842.4000;0.0676;-1.0046;
842.7000;0.0724;-1.0091;
843.0000;0.0741;-1.0091;
843.3000;0.0724;-1.0227;
843.6000;0.0676;-1.0408;
843.9000;0.0635;-1.0498;
844.2000;0.0716;-1.0362;
844.5000;0.0733;-1.0272;
844.8000;0.0692;-1.0272;
845.1000;0.0757;-1.0068;
845.4000;0.0757;-1.0113;
845.7000;0.0700;-1.0272;
846.0000;0.0659;-1.0430;
846.3000;0.0692;-1.0385;
846.6000;0.0749;-1.0159;
846.9000;0.0790;-0.9978;
847.2000;0.0724;-1.0181;
847.5000;0.0830;-0.9932;
847.8000;0.0741;-1.0204;
848.1000;0.0749;-1.0272;
848.4000;0.0708;-1.0362;
848.7000;0.0724;-1.0317;
849.0000;0.0724;-1.0294;
849.3000;0.0733;-1.0317;
849.6000;0.0749;-1.0294;
849.9000;0.0692;-1.0385;
850.2000;0.0741;-1.0272;
850.5000;0.0700;-1.0362;
850.8000;0.0651;-1.0566;
851.1000;0.0749;-1.0362;
851.4000;0.0708;-1.0385;
851.7000;0.0733;-1.0272;
852.0000;0.0733;-1.0294;
852.3000;0.0741;-1.0294;
852.6000;0.0724;-1.0340;
852.9000;0.0716;-1.0385;
853.2000;0.0708;-1.0340;
853.5000;0.0733;-1.0272;
853.8000;0.0724;-1.0294;
854.1000;0.0716;-1.0272;
854.4000;0.0724;-1.0340;
854.7000;0.0724;-1.0317;
855.0000;0.0635;-1.0634;
855.3000;0.0708;-1.0317;
855.6000;0.0700;-1.0317;
855.9000;0.0733;-1.0136;
856.2000;0.0684;-1.0227;
856.5000;0.0822;-0.9932;
856.8000;0.0700;-1.0227;
857.1000;0.0700;-1.0294;
857.4000;0.0741;-1.0204;
857.7000;0.0733;-1.0068;
858.0000;0.0692;-1.0204;
858.3000;0.0733;-1.0113;
858.6000;0.0814;-0.9932;
858.9000;0.0676;-1.0227;
859.2000;0.0692;-1.0227;
859.5000;0.0716;-1.0249;
859.8000;0.0667;-1.0294;
860.1000;0.0708;-1.0113;
860.4000;0.0659;-1.0249;
860.7000;0.0700;-1.0181;
861.0000;0.0757;-1.0046;
861.3000;0.0716;-1.0181;
861.6000;0.0733;-1.0181;
861.9000;0.0733;-1.0159;
862.2000;0.0716;-1.0136;
862.5000;0.0749;-1.0000;
862.8000;0.0741;-0.9932;
863.1000;0.0716;-0.9932;
863.4000;0.0716;-1.0023;
863.7000;0.0733;-0.9932;
864.0000;0.0724;-0.9910;
864.3000;0.0708;-0.9978;
864.6000;0.0741;-0.9955;
864.9000;0.0741;-0.9932;
865.2000;0.0724;-1.0046;
865.5000;0.0790;-0.9932;
865.8000;0.0708;-1.0113;
866.1000;0.0716;-1.0068;
866.4000;0.0667;-1.0136;
866.7000;0.0708;-1.0091;
867.0000;0.0716;-1.0091;
867.3000;0.0790;-0.9910;
867.6000;0.0716;-1.0023;
867.9000;0.0716;-1.0000;
868.2000;0.0724;-1.0046;
868.5000;0.0733;-1.0000;
868.8000;0.0684;-1.0159;
869.1000;0.0684;-1.0113;
869.4000;0.0724;-1.0000;
869.7000;0.0716;-1.0046;
870.0000;0.0700;-1.0046;
870.3000;0.0838;-0.9729;
870.6000;0.0692;-1.0046;
870.9000;0.0708;-1.0000;
871.2000;0.0708;-1.0068;
871.5000;0.0708;-1.0113;
871.8000;0.0724;-1.0000;
872.1000;0.0781;-0.9865;
872.4000;0.0741;-0.9955;
872.7000;0.0708;-1.0023;
873.0000;0.0724;-0.9978;
873.3000;0.0773;-0.9865;
873.6000;0.0741;-0.9887;
873.9000;0.0814;-0.9729;
874.2000;0.0757;-0.9797;
874.5000;0.0700;-0.9865;
874.8000;0.0733;-0.9819;
875.1000;0.0741;-0.9797;
875.4000;0.0741;-0.9910;
875.7000;0.0741;-0.9978;
876.0000;0.0749;-0.9955;
876.3000;0.0749;-0.9910;
876.6000;0.0700;-0.9955;
876.9000;0.0643;-1.0113;
877.2000;0.0716;-0.9865;
877.5000;0.0716;-0.9865;
877.8000;0.0716;-0.9842;
878.1000;0.0733;-0.9797;
878.4000;0.0684;-0.9955;
878.7000;0.0716;-0.9932;
879.0000;0.0724;-0.9932;
879.3000;0.0724;-0.9910;
879.6000;0.0733;-0.9932;
879.9000;0.0773;-0.9819;
880.2000;0.0716;-0.9932;
880.5000;0.0855;-0.9593;
880.8000;0.0733;-0.9887;
881.1000;0.0708;-0.9865;
881.4000;0.0651;-1.0091;
881.7000;0.0741;-0.9932;
882.0000;0.0790;-0.9865;
882.3000;0.0659;-1.0249;
882.6000;0.0847;-0.9751;
882.9000;0.0733;-1.0023;
883.2000;0.0724;-1.0046;
883.5000;0.0814;-0.9819;
883.8000;0.0741;-1.0000;
884.1000;0.0635;-1.0227;
884.4000;0.0741;-0.9978;
884.7000;0.0700;-1.0046;
885.0000;0.0724;-0.9932;
885.3000;0.0716;-0.9955;
885.6000;0.0733;-0.9865;
885.9000;0.0716;-0.9887;
886.2000;0.0733;-0.9887;
886.5000;0.0708;-0.9955;
886.8000;0.0700;-1.0046;
887.1000;0.0733;-0.9932;
887.4000;0.0716;-0.9910;
887.7000;0.0814;-0.9729;
888.0000;0.0757;-0.9910;
888.3000;0.0757;-0.9887;
888.6000;0.0724;-0.9955;
888.9000;0.0741;-0.9910;
889.2000;0.0716;-0.9865;
889.5000;0.0700;-0.9932;
889.8000;0.0716;-0.9865;
890.1000;0.0716;-0.9887;
890.4000;0.0757;-0.9865;
890.7000;0.0733;-0.9978;
891.0000;0.0724;-0.9910;
891.3000;0.0651;-1.0068;
891.6000;0.0716;-0.9819;
891.9000;0.0700;-0.9819;
892.2000;0.0773;-0.9616;
892.5000;0.0708;-0.9774;
892.8000;0.0733;-0.9774;
893.1000;0.0724;-0.9797;
893.4000;0.0700;-0.9774;
893.7000;0.0741;-0.9684;
894.0000;0.0724;-0.9729;
894.3000;0.0676;-0.9819;
894.6000;0.0757;-0.9684;
894.9000;0.0741;-0.9842;
895.2000;0.0741;-0.9819;
895.5000;0.0700;-0.9865;
895.8000;0.0724;-0.9729;
896.1000;0.0716;-0.9797;
896.4000;0.0716;-0.9797;
896.7000;0.0716;-0.9751;
897.0000;0.0724;-0.9729;
897.3000;0.0708;-0.9842;
897.6000;0.0716;-0.9842;
897.9000;0.0741;-0.9910;
898.2000;0.0667;-1.0068;
898.5000;0.0724;-0.9955;
898.8000;0.0733;-1.0000;
899.1000;0.0741;-0.9910;
899.4000;0.0749;-0.9910;
899.7000;0.0716;-1.0000;
900.0000;0.0676;-1.0159;
900.3000;0.0741;-1.0068;
900.6000;0.0684;-1.0181;
900.9000;0.0643;-1.0294;
901.2000;0.0724;-1.0136;
901.5000;0.0700;-1.0204;
901.8000;0.0724;-1.0113;
902.1000;0.0724;-1.0000;
902.4000;0.0733;-0.9955;
902.7000;0.0716;-0.9955;
903.0000;0.0692;-1.0023;
903.3000;0.0724;-0.9978;
903.6000;0.0741;-0.9978;
903.9000;0.0708;-1.0023;
904.2000;0.0724;-0.9865;
904.5000;0.0602;-1.0091;
904.8000;0.0708;-0.9751;
905.1000;0.0708;-0.9819;
905.4000;0.0733;-0.9751;
905.7000;0.0733;-0.9819;
906.0000;0.0781;-0.9684;
906.3000;0.0733;-0.9819;
906.6000;0.0724;-0.9819;
906.9000;0.0716;-0.9819;
907.2000;0.0724;-0.9797;
907.5000;0.0700;-0.9955;
907.8000;0.0749;-0.9842;
908.1000;0.0716;-0.9819;
908.4000;0.0716;-0.9819;
908.7000;0.0676;-0.9955;
909.0000;0.0733;-0.9932;
909.3000;0.0749;-0.9865;
909.6000;0.0724;-0.9910;
909.9000;0.0733;-0.9842;
910.2000;0.0716;-0.9887;
910.5000;0.0733;-0.9865;
910.8000;0.0733;-0.9819;
911.1000;0.0700;-0.9955;
911.4000;0.0733;-0.9932;
911.7000;0.0716;-0.9910;
912.0000;0.0838;-0.9616;
912.3000;0.0716;-0.9865;
912.6000;0.0724;-0.9910;
912.9000;0.0749;-0.9819;
913.2000;0.0749;-0.9819;
913.5000;0.0708;-0.9842;
913.8000;0.0692;-0.9797;
914.1000;0.0724;-0.9774;
914.4000;0.0741;-0.9797;
914.7000;0.0741;-0.9865;
915.0000;0.0700;-0.9955;
915.3000;0.0716;-0.9887;
915.6000;0.0733;-0.9865;
915.9000;0.0716;-0.9842;
916.2000;0.0700;-0.9865;
916.5000;0.0724;-0.9887;
916.8000;0.0741;-0.9910;
917.1000;0.0749;-0.9774;
917.4000;0.0692;-0.9978;
917.7000;0.0708;-1.0068;
918.0000;0.0733;-0.9955;
918.3000;0.0798;-0.9819;
918.6000;0.0716;-0.9955;
918.9000;0.0716;-0.9955;
919.2000;0.0724;-0.9932;
919.5000;0.0733;-0.9910;
919.8000;0.0700;-0.9978;
920.1000;0.0716;-0.9932;
920.4000;0.0716;-1.0023;
920.7000;0.0733;-1.0023;
921.0000;0.0733;-1.0023;
921.3000;0.0659;-1.0159;
921.6000;0.0733;-0.9955;
921.9000;0.0733;-0.9932;
922.2000;0.0733;-0.9887;
922.5000;0.0716;-0.9865;
922.8000;0.0708;-0.9842;
923.1000;0.0700;-0.9842;
923.4000;0.0773;-0.9638;
923.7000;0.0733;-0.9751;
924.0000;0.0676;-0.9865;
924.3000;0.0741;-0.9684;
924.6000;0.0724;-0.9751;
924.9000;0.0692;-0.9887;
925.2000;0.0724;-0.9842;
925.5000;0.0716;-0.9955;
925.8000;0.0684;-1.0023;
926.1000;0.0741;-0.9842;
926.4000;0.0749;-0.9729;
926.7000;0.0871;-0.9367;
927.0000;0.0724;-0.9684;
927.3000;0.0741;-0.9548;
927.6000;0.0733;-0.9616;
927.9000;0.0773;-0.9593;
928.2000;0.0733;-0.9729;
928.5000;0.0733;-0.9751;
928.8000;0.0741;-0.9706;
929.1000;0.0667;-0.9910;
929.4000;0.0749;-0.9616;
929.7000;0.0667;-0.9910;
930.0000;0.0741;-0.9819;
930.3000;0.0708;-0.9910;
930.6000;0.0733;-0.9819;
930.9000;0.0708;-0.9910;
931.2000;0.0724;-0.9819;
931.5000;0.0716;-0.9706;
931.8000;0.0757;-0.9570;
932.1000;0.0733;-0.9661;
932.4000;0.0741;-0.9729;
932.7000;0.0716;-0.9887;
933.0000;0.0716;-0.9887;
933.3000;0.0724;-0.9910;
933.6000;0.0716;-0.9797;
933.9000;0.0724;-0.9819;
934.2000;0.0708;-0.9842;
934.5000;0.0716;-0.9842;
934.8000;0.0765;-0.9706;
935.1000;0.0724;-0.9932;
935.4000;0.0733;-0.9932;
935.7000;0.0708;-0.9955;
936.0000;0.0765;-0.9797;
936.3000;0.0757;-0.9842;
936.6000;0.0708;-0.9932;
936.9000;0.0700;-1.0000;
937.2000;0.0741;-0.9955;
937.5000;0.0708;-1.0046;
937.8000;0.0724;-0.9932;
938.1000;0.0676;-0.9955;
938.4000;0.0724;-0.9706;
938.7000;0.0749;-0.9729;
939.0000;0.0733;-0.9865;
939.3000;0.0716;-0.9887;
939.6000;0.0724;-0.9865;
939.9000;0.0716;-0.9887;
940.2000;0.0798;-0.9593;
940.5000;0.0749;-0.9729;
940.8000;0.0733;-0.9842;
941.1000;0.0749;-0.9751;
941.4000;0.0635;-1.0000;
941.7000;0.0716;-0.9729;
942.0000;0.0741;-0.9616;
942.3000;0.0724;-0.9684;
942.6000;0.0733;-0.9684;
942.9000;0.0741;-0.9616;
943.2000;0.0716;-0.9729;
943.5000;0.0733;-0.9661;
943.8000;0.0733;-0.9638;
944.1000;0.0757;-0.9661;
944.4000;0.0692;-0.9932;
944.7000;0.0724;-0.9842;
945.0000;0.0716;-0.9865;
945.3000;0.0838;-0.9593;
945.6000;0.0692;-0.9978;
945.9000;0.0700;-1.0000;
946.2000;0.0700;-1.0000;
946.5000;0.0749;-0.9842;
946.8000;0.0708;-0.9819;
947.1000;0.0716;-0.9774;
947.4000;0.0733;-0.9706;
947.7000;0.0716;-0.9797;
948.0000;0.0708;-0.9819;
948.3000;0.0741;-0.9797;
948.6000;0.0708;-0.9842;
948.9000;0.0724;-0.9819;
949.2000;0.0741;-0.9774;
949.5000;0.0724;-0.9797;
949.8000;0.0708;-0.9887;
950.1000;0.0643;-1.0000;
950.4000;0.0724;-0.9955;
950.7000;0.0692;-0.9955;
951.0000;0.0724;-0.9932;
951.3000;0.0684;-1.0000;
951.6000;0.0765;-0.9819;
951.9000;0.0708;-0.9955;
952.2000;0.0733;-0.9887;
952.5000;0.0676;-1.0068;
952.8000;0.0724;-0.9910;
953.1000;0.0733;-0.9842;
953.4000;0.0855;-0.9593;
953.7000;0.0724;-0.9797;
954.0000;0.0838;-0.9503;
954.3000;0.0733;-0.9706;
954.6000;0.0733;-0.9684;
954.9000;0.0716;-0.9729;
955.2000;0.0708;-0.9684;
955.5000;0.0724;-0.9593;
955.8000;0.0716;-0.9661;
956.1000;0.0708;-0.9706;
956.4000;0.0741;-0.9661;
956.7000;0.0724;-0.9706;
957.0000;0.0700;-0.9797;
957.3000;0.0733;-0.9751;
957.6000;0.0716;-0.9729;
957.9000;0.0733;-0.9638;
958.2000;0.0741;-0.9525;
958.5000;0.0741;-0.9457;
958.8000;0.0692;-0.9570;
959.1000;0.0733;-0.9525;
959.4000;0.0684;-0.9570;
959.7000;0.0716;-0.9525;
960.0000;0.0708;-0.9503;
960.3000;0.0733;-0.9367;
960.6000;0.0708;-0.9480;
960.9000;0.0749;-0.9435;
961.2000;0.0716;-0.9503;
961.5000;0.0749;-0.9525;
961.8000;0.0716;-0.9729;
962.1000;0.0708;-0.9706;
962.4000;0.0724;-0.9548;
962.7000;0.0757;-0.9503;
963.0000;0.0733;-0.9503;
963.3000;0.0741;-0.9480;
963.6000;0.0733;-0.9503;
963.9000;0.0741;-0.9480;
964.2000;0.0611;-0.9819;
964.5000;0.0773;-0.9480;
964.8000;0.0749;-0.9480;
965.1000;0.0773;-0.9344;
965.4000;0.0781;-0.9344;
965.7000;0.0741;-0.9503;
966.0000;0.0700;-0.9661;
966.3000;0.0692;-0.9684;
966.6000;0.0643;-0.9751;
966.9000;0.0733;-0.9503;
967.2000;0.0724;-0.9570;
967.5000;0.0724;-0.9638;
967.8000;0.0692;-0.9751;
968.1000;0.0724;-0.9638;
968.4000;0.0822;-0.9322;
968.7000;0.0708;-0.9616;
969.0000;0.0724;-0.9616;
969.3000;0.0708;-0.9548;
969.6000;0.0716;-0.9616;
969.9000;0.0659;-0.9774;
970.2000;0.0741;-0.9570;
970.5000;0.0749;-0.9570;
970.8000;0.0643;-0.9751;
971.1000;0.0700;-0.9661;
971.4000;0.0822;-0.9367;
971.7000;0.0708;-0.9503;
972.0000;0.0733;-0.9525;
972.3000;0.0765;-0.9525;
972.6000;0.0733;-0.9570;
972.9000;0.0733;-0.9570;
973.2000;0.0692;-0.9638;
973.5000;0.0798;-0.9525;
973.8000;0.0700;-0.9751;
974.1000;0.0814;-0.9570;
974.4000;0.0741;-0.9797;
974.7000;0.0724;-0.9887;
975.0000;0.0716;-0.9865;
975.3000;0.0757;-0.9842;
975.6000;0.0741;-0.9842;
975.9000;0.0724;-0.9819;
976.2000;0.0765;-0.9661;
976.5000;0.0716;-0.9774;
976.8000;0.0749;-0.9638;
977.1000;0.0724;-0.9616;
977.4000;0.0741;-0.9616;
977.7000;0.0708;-0.9774;
978.0000;0.0716;-0.9684;
978.3000;0.0724;-0.9751;
978.6000;0.0749;-0.9751;
978.9000;0.0741;-0.9751;
979.2000;0.0700;-0.9774;
979.5000;0.0676;-0.9887;
979.8000;0.0716;-0.9797;
980.1000;0.0724;-0.9751;
980.4000;0.0716;-0.9751;
980.7000;0.0733;-0.9797;
981.0000;0.0716;-0.9774;
981.3000;0.0684;-0.9819;
981.6000;0.0733;-0.9729;
981.9000;0.0724;-0.9797;
982.2000;0.0733;-0.9751;
982.5000;0.0708;-0.9729;
982.8000;0.0708;-0.9684;
983.1000;0.0741;-0.9661;
983.4000;0.0733;-0.9774;
983.7000;0.0741;-0.9751;
984.0000;0.0741;-0.9729;
984.3000;0.0741;-0.9729;
984.6000;0.0716;-0.9751;
984.9000;0.0627;-0.9910;
985.2000;0.0708;-0.9593;
985.5000;0.0724;-0.9548;
985.8000;0.0716;-0.9570;
986.1000;0.0716;-0.9661;
986.4000;0.0741;-0.9706;
986.7000;0.0741;-0.9661;
987.0000;0.0741;-0.9684;
987.3000;0.0684;-0.9797;
987.6000;0.0724;-0.9706;
987.9000;0.0724;-0.9797;
988.2000;0.0733;-0.9729;
988.5000;0.0773;-0.9661;
988.8000;0.0716;-0.9751;
989.1000;0.0716;-0.9774;
989.4000;0.0822;-0.9548;
989.7000;0.0724;-0.9819;
990.0000;0.0716;-0.9887;
990.3000;0.0659;-0.9955;
990.6000;0.0733;-0.9661;
990.9000;0.0724;-0.9729;
991.2000;0.0741;-0.9706;
991.5000;0.0708;-0.9774;
991.8000;0.0724;-0.9751;
992.1000;0.0724;-0.9751;
992.4000;0.0700;-0.9842;
992.7000;0.0684;-0.9774;
993.0000;0.0708;-0.9751;
993.3000;0.0724;-0.9706;
993.6000;0.0741;-0.9570;
993.9000;0.0847;-0.9299;
994.2000;0.0733;-0.9548;
994.5000;0.0749;-0.9570;
994.8000;0.0692;-0.9661;
995.1000;0.0724;-0.9525;
995.4000;0.0798;-0.9344;
995.7000;0.0667;-0.9706;
996.0000;0.0733;-0.9638;
996.3000;0.0692;-0.9751;
996.6000;0.0716;-0.9593;
996.9000;0.0749;-0.9616;
997.2000;0.0643;-0.9910;
997.5000;0.0733;-0.9638;
997.8000;0.0716;-0.9638;
998.1000;0.0676;-0.9774;
998.4000;0.0667;-0.9819;
998.7000;0.0586;-1.0046;
999.0000;0.0708;-0.9706;
999.3000;0.0781;-0.9570;
999.6000;0.0700;-0.9751;
999.9000;0.0733;-0.9661;
1000.2000;0.0765;-0.9616;
1000.5000;0.0814;-0.9503;
1000.8000;0.0708;-0.9751;
1001.1000;0.0733;-0.9684;
1001.4000;0.0757;-0.9729;
1001.7000;0.0733;-0.9842;
1002.0000;0.0676;-0.9910;
1002.3000;0.0692;-0.9797;
1002.6000;0.0733;-0.9593;
1002.9000;0.0733;-0.9616;
1003.2000;0.0724;-0.9729;
1003.5000;0.0676;-0.9865;
1003.8000;0.0741;-0.9729;
1004.1000;0.0716;-0.9819;
1004.4000;0.0724;-0.9774;
1004.7000;0.0790;-0.9638;
1005.0000;0.0716;-0.9865;
1005.3000;0.0708;-0.9842;
1005.6000;0.0733;-0.9774;
1005.9000;0.0733;-0.9638;
1006.2000;0.0716;-0.9548;
1006.5000;0.0700;-0.9661;
1006.8000;0.0733;-0.9525;
1007.1000;0.0724;-0.9570;
1007.4000;0.0741;-0.9616;
1007.7000;0.0716;-0.9638;
1008.0000;0.0716;-0.9616;
1008.3000;0.0716;-0.9616;
1008.6000;0.0724;-0.9593;
1008.9000;0.0798;-0.9389;
1009.2000;0.0724;-0.9616;
1009.5000;0.0749;-0.9525;
1009.8000;0.0806;-0.9435;
1010.1000;0.0659;-0.9774;
1010.4000;0.0716;-0.9616;
1010.7000;0.0741;-0.9616;
1011.0000;0.0692;-0.9751;
1011.3000;0.0765;-0.9684;
1011.6000;0.0733;-0.9751;
1011.9000;0.0733;-0.9729;
1012.2000;0.0741;-0.9729;
1012.5000;0.0765;-0.9661;
1012.8000;0.0708;-0.9661;
1013.1000;0.0733;-0.9570;
1013.4000;0.0692;-0.9684;
1013.7000;0.0733;-0.9525;
1014.0000;0.0700;-0.9570;
1014.3000;0.0814;-0.9322;
1014.6000;0.0627;-0.9797;
1014.9000;0.0708;-0.9525;
1015.2000;0.0741;-0.9525;
1015.5000;0.0822;-0.9367;
1015.8000;0.0749;-0.9616;
1016.1000;0.0724;-0.9638;
1016.4000;0.0724;-0.9616;
1016.7000;0.0708;-0.9751;
1017.0000;0.0733;-0.9729;
1017.3000;0.0733;-0.9751;
1017.6000;0.0724;-0.9797;
1017.9000;0.0749;-0.9751;
1018.2000;0.0733;-0.9797;
1018.5000;0.0741;-0.9774;
1018.8000;0.0724;-0.9797;
1019.1000;0.0741;-0.9729;
1019.4000;0.0806;-0.9480;
1019.7000;0.0716;-0.9729;
1020.0000;0.0741;-0.9593;
1020.3000;0.0724;-0.9616;
1020.6000;0.0757;-0.9525;
1020.9000;0.0765;-0.9593;
1021.2000;0.0716;-0.9751;
1021.5000;0.0676;-0.9797;
1021.8000;0.0733;-0.9684;
1022.1000;0.0635;-0.9842;
1022.4000;0.0765;-0.9570;
1022.7000;0.0733;-0.9684;
1023.0000;0.0781;-0.9548;
1023.3000;0.0749;-0.9684;
1023.6000;0.0708;-0.9774;
1023.9000;0.0724;-0.9684;
1024.2000;0.0798;-0.9548;
1024.5000;0.0749;-0.9797;
1024.8000;0.0871;-0.9480;
1025.1000;0.0733;-0.9751;
1025.4000;0.0757;-0.9638;
1025.7000;0.0635;-0.9978;
1026.0000;0.0724;-0.9684;
1026.3000;0.0749;-0.9684;
1026.6000;0.0724;-0.9729;
1026.9000;0.0716;-0.9774;
1027.2000;0.0806;-0.9570;
1027.5000;0.0716;-0.9797;
1027.8000;0.0716;-0.9887;
1028.1000;0.0716;-0.9842;
1028.4000;0.0700;-0.9706;
1028.7000;0.0716;-0.9774;
1029.0000;0.0733;-0.9751;
1029.3000;0.0716;-0.9842;
1029.6000;0.0741;-0.9887;
1029.9000;0.0733;-0.9842;
1030.2000;0.0741;-0.9842;
1030.5000;0.0733;-0.9887;
1030.8000;0.0724;-0.9932;
1031.1000;0.0716;-0.9842;
1031.4000;0.0741;-0.9842;
1031.7000;0.0651;-1.0046;
1032.0000;0.0741;-0.9819;
1032.3000;0.0676;-1.0091;
1032.6000;0.0749;-0.9842;
1032.9000;0.0757;-0.9797;
1033.2000;0.0733;-0.9751;
1033.5000;0.0708;-0.9706;
1033.8000;0.0749;-0.9661;
1034.1000;0.0635;-0.9910;
1034.4000;0.0700;-0.9751;
1034.7000;0.0741;-0.9684;
1035.0000;0.0733;-0.9751;
1035.3000;0.0708;-0.9842;
1035.6000;0.0741;-0.9661;
1035.9000;0.0724;-0.9706;
1036.2000;0.0749;-0.9638;
1036.5000;0.0724;-0.9593;
1036.8000;0.0724;-0.9638;
1037.1000;0.0733;-0.9570;
1037.4000;0.0611;-0.9955;
1037.7000;0.0594;-0.9955;
1038.0000;0.0741;-0.9503;
1038.3000;0.0757;-0.9457;
1038.6000;0.0684;-0.9706;
1038.9000;0.0733;-0.9570;
1039.2000;0.0733;-0.9548;
1039.5000;0.0716;-0.9616;
1039.8000;0.0757;-0.9525;
1040.1000;0.0733;-0.9616;
1040.4000;0.0733;-0.9616;
1040.7000;0.0708;-0.9661;
1041.0000;0.0700;-0.9570;
1041.3000;0.0733;-0.9616;
1041.6000;0.0757;-0.9570;
1041.9000;0.0741;-0.9525;
1042.2000;0.0724;-0.9548;
1042.5000;0.0716;-0.9593;
1042.8000;0.0708;-0.9593;
1043.1000;0.0692;-0.9616;
1043.4000;0.0741;-0.9525;
1043.7000;0.0700;-0.9638;
1044.0000;0.0741;-0.9593;
1044.3000;0.0716;-0.9729;
1044.6000;0.0741;-0.9774;
1044.9000;0.0790;-0.9661;
1045.2000;0.0741;-0.9819;
1045.5000;0.0749;-0.9774;
1045.8000;0.0790;-0.9751;
1046.1000;0.0724;-0.9842;
1046.4000;0.0749;-0.9729;
1046.7000;0.0757;-0.9638;
1047.0000;0.0749;-0.9548;
1047.3000;0.0733;-0.9661;
1047.6000;0.0741;-0.9751;
1047.9000;0.0733;-0.9774;
1048.2000;0.0757;-0.9661;
1048.5000;0.0733;-0.9751;
1048.8000;0.0733;-0.9729;
1049.1000;0.0749;-0.9729;
1049.4000;0.0716;-0.9751;
1049.7000;0.0724;-0.9729;
1050.0000;0.0724;-0.9661;
1050.3000;0.0724;-0.9774;
1050.6000;0.0733;-0.9751;
1050.9000;0.0733;-0.9751;
1051.2000;0.0667;-0.9887;
1051.5000;0.0708;-0.9774;
1051.8000;0.0724;-0.9684;
1052.1000;0.0741;-0.9638;
1052.4000;0.0741;-0.9661;
1052.7000;0.0724;-0.9661;
1053.0000;0.0733;-0.9548;
1053.3000;0.0716;-0.9570;
1053.6000;0.0765;-0.9503;
1053.9000;0.0781;-0.9435;
1054.2000;0.0716;-0.9570;
1054.5000;0.0724;-0.9525;
1054.8000;0.0643;-0.9706;
1055.1000;0.0724;-0.9548;
1055.4000;0.0724;-0.9548;
1055.7000;0.0887;-0.9050;
1056.0000;0.0684;-0.9548;
1056.3000;0.0733;-0.9412;
1056.6000;0.0708;-0.9525;
1056.9000;0.0676;-0.9661;
1057.2000;0.0667;-0.9638;
1057.5000;0.0684;-0.9684;
1057.8000;0.0708;-0.9525;
1058.1000;0.0684;-0.9661;
1058.4000;0.0757;-0.9525;
1058.7000;0.0724;-0.9638;
1059.0000;0.0733;-0.9548;
1059.3000;0.0700;-0.9706;
1059.6000;0.0708;-0.9774;
1059.9000;0.0716;-0.9729;
1060.2000;0.0733;-0.9729;
1060.5000;0.0708;-0.9865;
1060.8000;0.0724;-0.9819;
1061.1000;0.0716;-0.9865;
1061.4000;0.0708;-0.9910;
1061.7000;0.0733;-0.9842;
1062.0000;0.0741;-0.9865;
1062.3000;0.0659;-1.0113;
1062.6000;0.0708;-1.0000;
1062.9000;0.0741;-0.9978;
1063.2000;0.0716;-1.0023;
1063.5000;0.0822;-0.9797;
1063.8000;0.0741;-0.9932;
1064.1000;0.0724;-0.9910;
1064.4000;0.0733;-0.9910;
1064.7000;0.0708;-0.9910;
1065.0000;0.0724;-0.9797;
1065.3000;0.0724;-0.9774;
1065.6000;0.0749;-0.9638;
1065.9000;0.0733;-0.9616;
1066.2000;0.0733;-0.9548;
1066.5000;0.0724;-0.9593;
1066.8000;0.0708;-0.9729;
1067.1000;0.0724;-0.9684;
1067.4000;0.0716;-0.9684;
1067.7000;0.0814;-0.9412;
1068.0000;0.0724;-0.9593;
1068.3000;0.0765;-0.9503;
1068.6000;0.0749;-0.9503;
1068.9000;0.0684;-0.9593;
1069.2000;0.0708;-0.9548;
1069.5000;0.0708;-0.9616;
1069.8000;0.0708;-0.9593;
1070.1000;0.0716;-0.9548;
1070.4000;0.0724;-0.9548;
1070.7000;0.0765;-0.9412;
1071.0000;0.0733;-0.9616;
1071.3000;0.0700;-0.9684;
1071.6000;0.0692;-0.9661;
1071.9000;0.0716;-0.9593;
1072.2000;0.0741;-0.9480;
1072.5000;0.0741;-0.9503;
1072.8000;0.0741;-0.9548;
1073.1000;0.0724;-0.9593;
1073.4000;0.0708;-0.9638;
1073.7000;0.0692;-0.9684;
1074.0000;0.0716;-0.9729;
1074.3000;0.0708;-0.9706;
1074.6000;0.0773;-0.9570;
1074.9000;0.0724;-0.9684;
1075.2000;0.0708;-0.9638;
1075.5000;0.0765;-0.9525;
1075.8000;0.0692;-0.9751;
1076.1000;0.0716;-0.9638;
1076.4000;0.0716;-0.9684;
1076.7000;0.0724;-0.9661;
1077.0000;0.0724;-0.9706;
1077.3000;0.0716;-0.9684;
1077.6000;0.0733;-0.9593;
1077.9000;0.0822;-0.9322;
1078.2000;0.0741;-0.9503;
1078.5000;0.0692;-0.9570;
1078.8000;0.0733;-0.9480;
1079.1000;0.0733;-0.9548;
1079.4000;0.0741;-0.9616;
1079.7000;0.0716;-0.9684;
1080.0000;0.0749;-0.9593;
1080.3000;0.0700;-0.9842;
1080.6000;0.0708;-0.9706;
1080.9000;0.0684;-0.9751;
1081.2000;0.0741;-0.9661;
1081.5000;0.0643;-0.9842;
1081.8000;0.0684;-0.9729;
1082.1000;0.0724;-0.9684;
1082.4000;0.0716;-0.9729;
1082.7000;0.0676;-0.9797;
1083.0000;0.0733;-0.9661;
1083.3000;0.0724;-0.9616;
1083.6000;0.0798;-0.9412;
1083.9000;0.0700;-0.9638;
1084.2000;0.0749;-0.9593;
1084.5000;0.0659;-0.9797;
1084.8000;0.0733;-0.9661;
1085.1000;0.0757;-0.9751;
1085.4000;0.0724;-0.9729;
1085.7000;0.0733;-0.9638;
1086.0000;0.0716;-0.9729;
1086.3000;0.0700;-0.9887;
1086.6000;0.0716;-0.9819;
1086.9000;0.0847;-0.9525;
1087.2000;0.0724;-0.9706;
1087.5000;0.0716;-0.9638;
1087.8000;0.0790;-0.9525;
1088.1000;0.0733;-0.9774;
1088.4000;0.0724;-0.9819;
1088.7000;0.0716;-0.9751;
1089.0000;0.0724;-0.9729;
1089.3000;0.0643;-0.9797;
1089.6000;0.0692;-0.9684;
1089.9000;0.0749;-0.9503;
1090.2000;0.0716;-0.9593;
1090.5000;0.0830;-0.9299;
1090.8000;0.0798;-0.9412;
1091.1000;0.0708;-0.9480;
1091.4000;0.0741;-0.9435;
1091.7000;0.0676;-0.9706;
1092.0000;0.0733;-0.9638;
1092.3000;0.0684;-0.9751;
1092.6000;0.0716;-0.9661;
1092.9000;0.0700;-0.9751;
1093.2000;0.0724;-0.9751;
1093.5000;0.0814;-0.9412;
1093.8000;0.0684;-0.9706;
1094.1000;0.0651;-0.9797;
1094.4000;0.0724;-0.9616;
1094.7000;0.0724;-0.9616;
1095.0000;0.0757;-0.9548;
1095.3000;0.0749;-0.9638;
1095.6000;0.0700;-0.9751;
1095.9000;0.0733;-0.9661;
1096.2000;0.0733;-0.9616;
1096.5000;0.0700;-0.9684;
1096.8000;0.0700;-0.9616;
1097.1000;0.0716;-0.9638;
1097.4000;0.0684;-0.9774;
1097.7000;0.0676;-0.9661;
1098.0000;0.0716;-0.9593;
1098.3000;0.0741;-0.9548;
1098.6000;0.0733;-0.9503;
1098.9000;0.0757;-0.9344;
1099.2000;0.0733;-0.9457;
1099.5000;0.0716;-0.9503;
1099.8000;0.0651;-0.9684;
1100.1000;0.0757;-0.9503;
1100.4000;0.0716;-0.9503;
1100.7000;0.0716;-0.9548;
1101.0000;0.0716;-0.9548;
1101.3000;0.0757;-0.9570;
1101.6000;0.0733;-0.9616;
1101.9000;0.0724;-0.9593;
1102.2000;0.0724;-0.9570;
1102.5000;0.0733;-0.9661;
1102.8000;0.0724;-0.9729;
1103.1000;0.0716;-0.9751;
1103.4000;0.0708;-0.9751;
1103.7000;0.0741;-0.9616;
1104.0000;0.0733;-0.9684;
1104.3000;0.0749;-0.9616;
1104.6000;0.0724;-0.9661;
1104.9000;0.0814;-0.9412;
1105.2000;0.0611;-0.9819;
1105.5000;0.0741;-0.9525;
1105.8000;0.0708;-0.9706;
1106.1000;0.0741;-0.9729;
1106.4000;0.0724;-0.9638;
1106.7000;0.0708;-0.9638;
1107.0000;0.0724;-0.9570;
1107.3000;0.0724;-0.9593;
1107.6000;0.0716;-0.9616;
1107.9000;0.0716;-0.9684;
1108.2000;0.0822;-0.9389;
1108.5000;0.0724;-0.9638;
1108.8000;0.0733;-0.9638;
1109.1000;0.0741;-0.9661;
1109.4000;0.0749;-0.9593;
1109.7000;0.0684;-0.9865;
1110.0000;0.0741;-0.9751;
1110.3000;0.0790;-0.9706;
1110.6000;0.0773;-0.9774;
1110.9000;0.0773;-0.9729;
1111.2000;0.0667;-0.9932;
1111.5000;0.0708;-0.9842;
1111.8000;0.0651;-1.0023;
1112.1000;0.0733;-0.9797;
1112.4000;0.0708;-0.9842;
1112.7000;0.0733;-0.9751;
1113.0000;0.0716;-0.9729;
1113.3000;0.0733;-0.9706;
1113.6000;0.0716;-0.9842;
1113.9000;0.0700;-0.9955;
1114.2000;0.0847;-0.9616;
1114.5000;0.0692;-0.9955;
1114.8000;0.0781;-0.9684;
1115.1000;0.0724;-0.9887;
1115.4000;0.0781;-0.9751;
1115.7000;0.0724;-0.9865;
1116.0000;0.0724;-0.9865;
1116.3000;0.0798;-0.9661;
1116.6000;0.0708;-0.9865;
1116.9000;0.0733;-0.9842;
1117.2000;0.0708;-1.0000;
1117.5000;0.0765;-0.9774;
1117.8000;0.0733;-0.9842;
1118.1000;0.0741;-0.9751;
1118.4000;0.0733;-0.9684;
1118.7000;0.0757;-0.9616;
1119.0000;0.0667;-0.9819;
1119.3000;0.0733;-0.9706;
1119.6000;0.0700;-0.9797;
1119.9000;0.0741;-0.9661;
1120.2000;0.0741;-0.9684;
1120.5000;0.0724;-0.9774;
1120.8000;0.0724;-0.9797;
1121.1000;0.0741;-0.9751;
1121.4000;0.0708;-0.9774;
1121.7000;0.0724;-0.9706;
1122.0000;0.0733;-0.9729;
1122.3000;0.0716;-0.9616;
1122.6000;0.0659;-0.9797;
1122.9000;0.0700;-0.9684;
1123.2000;0.0692;-0.9638;
1123.5000;0.0708;-0.9616;
1123.8000;0.0733;-0.9570;
1124.1000;0.0749;-0.9570;
1124.4000;0.0757;-0.9525;
1124.7000;0.0724;-0.9661;
1125.0000;0.0749;-0.9616;
1125.3000;0.0733;-0.9729;
1125.6000;0.0716;-0.9751;
1125.9000;0.0708;-0.9774;
1126.2000;0.0619;-1.0023;
1126.5000;0.0733;-0.9842;
1126.8000;0.0733;-0.9842;
1127.1000;0.0659;-1.0091;
1127.4000;0.0724;-0.9932;
1127.7000;0.0749;-0.9797;
1128.0000;0.0741;-0.9842;
1128.3000;0.0708;-0.9955;
1128.6000;0.0749;-0.9819;
1128.9000;0.0749;-0.9865;
1129.2000;0.0667;-0.9887;
1129.5000;0.0651;-0.9932;
1129.8000;0.0700;-0.9887;
1130.1000;0.0773;-0.9684;
1130.4000;0.0684;-0.9819;
1130.7000;0.0724;-0.9729;
1131.0000;0.0724;-0.9774;
1131.3000;0.0733;-0.9865;
1131.6000;0.0708;-0.9932;
1131.9000;0.0667;-0.9955;
1132.2000;0.0733;-0.9684;
1132.5000;0.0676;-0.9774;
1132.8000;0.0741;-0.9548;
1133.1000;0.0765;-0.9503;
1133.4000;0.0733;-0.9593;
1133.7000;0.0838;-0.9367;
1134.0000;0.0733;-0.9525;
1134.3000;0.0724;-0.9570;
1134.6000;0.0676;-0.9706;
1134.9000;0.0708;-0.9797;
1135.2000;0.0822;-0.9435;
1135.5000;0.0676;-0.9865;
1135.8000;0.0716;-0.9638;
1136.1000;0.0757;-0.9525;
1136.4000;0.0716;-0.9638;
1136.7000;0.0562;-0.9978;
1137.0000;0.0716;-0.9706;
1137.3000;0.0741;-0.9684;
1137.6000;0.0692;-0.9706;
1137.9000;0.0733;-0.9570;
1138.2000;0.0667;-0.9729;
1138.5000;0.0741;-0.9525;
1138.8000;0.0602;-0.9932;
1139.1000;0.0757;-0.9503;
1139.4000;0.0733;-0.9525;
1139.7000;0.0724;-0.9570;
1140.0000;0.0724;-0.9503;
1140.3000;0.0724;-0.9525;
1140.6000;0.0749;-0.9548;
1140.9000;0.0724;-0.9593;
1141.2000;0.0830;-0.9299;
1141.5000;0.0716;-0.9593;
1141.8000;0.0733;-0.9593;
1142.1000;0.0708;-0.9661;
1142.4000;0.0741;-0.9525;
1142.7000;0.0708;-0.9638;
1143.0000;0.0724;-0.9616;
1143.3000;0.0708;-0.9684;
1143.6000;0.0733;-0.9684;
1143.9000;0.0724;-0.9729;
1144.2000;0.0716;-0.9729;
1144.5000;0.0757;-0.9661;
1144.8000;0.0733;-0.9706;
1145.1000;0.0716;-0.9684;
1145.4000;0.0741;-0.9638;
1145.7000;0.0724;-0.9729;
1146.0000;0.0716;-0.9819;
1146.3000;0.0724;-0.9797;
1146.6000;0.0724;-0.9842;
1146.9000;0.0724;-0.9638;
1147.2000;0.0757;-0.9412;
1147.5000;0.0708;-0.9570;
1147.8000;0.0716;-0.9548;
1148.1000;0.0757;-0.9480;
1148.4000;0.0749;-0.9525;
1148.7000;0.0708;-0.9661;
1149.0000;0.0716;-0.9684;
1149.3000;0.0708;-0.9729;
1149.6000;0.0749;-0.9638;
1149.9000;0.0733;-0.9661;
1150.2000;0.0806;-0.9570;
1150.5000;0.0790;-0.9593;
1150.8000;0.0716;-0.9797;
1151.1000;0.0716;-0.9751;
1151.4000;0.0716;-0.9819;
1151.7000;0.0716;-0.9842;
1152.0000;0.0741;-0.9797;
1152.3000;0.0822;-0.9616;
1152.6000;0.0773;-0.9706;
1152.9000;0.0733;-0.9797;
1153.2000;0.0716;-0.9865;
1153.5000;0.0684;-1.0000;
1153.8000;0.0773;-0.9751;
1154.1000;0.0733;-0.9887;
1154.4000;0.0724;-0.9932;
1154.7000;0.0692;-1.0023;
1155.0000;0.0716;-0.9865;
1155.3000;0.0716;-0.9819;
1155.6000;0.0716;-0.9797;
1155.9000;0.0724;-0.9819;
1156.2000;0.0708;-0.9819;
1156.5000;0.0733;-0.9797;
1156.8000;0.0659;-0.9910;
1157.1000;0.0716;-0.9819;
1157.4000;0.0741;-0.9774;
1157.7000;0.0716;-0.9887;
1158.0000;0.0700;-0.9910;
1158.3000;0.0724;-0.9865;
1158.6000;0.0733;-0.9865;
1158.9000;0.0659;-1.0023;
1159.2000;0.0651;-1.0023;
1159.5000;0.0749;-0.9774;
1159.8000;0.0733;-0.9774;
1160.1000;0.0749;-0.9774;
1160.4000;0.0708;-0.9774;
1160.7000;0.0733;-0.9706;
1161.0000;0.0724;-0.9684;
1161.3000;0.0724;-0.9638;
1161.6000;0.0708;-0.9661;
1161.9000;0.0716;-0.9661;
1162.2000;0.0700;-0.9751;
1162.5000;0.0708;-0.9706;
1162.8000;0.0700;-0.9751;
1163.1000;0.0733;-0.9638;
1163.4000;0.0814;-0.9480;
1163.7000;0.0619;-0.9865;
1164.0000;0.0700;-0.9661;
1164.3000;0.0733;-0.9525;
1164.6000;0.0741;-0.9435;
1164.9000;0.0724;-0.9457;
1165.2000;0.0724;-0.9412;
1165.5000;0.0724;-0.9389;
1165.8000;0.0741;-0.9299;
1166.1000;0.0692;-0.9389;
1166.4000;0.0741;-0.9367;
1166.7000;0.0733;-0.9503;
1167.0000;0.0741;-0.9525;
1167.3000;0.0724;-0.9525;
1167.6000;0.0749;-0.9412;
1167.9000;0.0724;-0.9638;
1168.2000;0.0716;-0.9661;
1168.5000;0.0733;-0.9661;
1168.8000;0.0741;-0.9616;
1169.1000;0.0724;-0.9684;
1169.4000;0.0716;-0.9706;
1169.7000;0.0724;-0.9729;
1170.0000;0.0773;-0.9503;
1170.3000;0.0741;-0.9638;
1170.6000;0.0708;-0.9797;
1170.9000;0.0700;-0.9865;
1171.2000;0.0741;-0.9842;
1171.5000;0.0724;-0.9887;
1171.8000;0.0765;-0.9819;
1172.1000;0.0700;-0.9910;
1172.4000;0.0708;-0.9774;
1172.7000;0.0798;-0.9412;
1173.0000;0.0562;-1.0000;
1173.3000;0.0724;-0.9706;
1173.6000;0.0749;-0.9661;
1173.9000;0.0684;-0.9910;
1174.2000;0.0724;-0.9797;
1174.5000;0.0724;-0.9774;
1174.8000;0.0724;-0.9819;
1175.1000;0.0708;-0.9819;
1175.4000;0.0741;-0.9774;
1175.7000;0.0708;-0.9955;
1176.0000;0.0724;-0.9932;
1176.3000;0.0724;-0.9910;
1176.6000;0.0741;-0.9797;
1176.9000;0.0716;-0.9797;
1177.2000;0.0741;-0.9729;
1177.5000;0.0643;-0.9955;
1177.8000;0.0716;-0.9751;
1178.1000;0.0724;-0.9819;
1178.4000;0.0700;-0.9865;
1178.7000;0.0716;-0.9978;
1179.0000;0.0708;-0.9910;
1179.3000;0.0733;-0.9819;
1179.6000;0.0733;-0.9774;
1179.9000;0.0700;-0.9932;
1180.2000;0.0708;-0.9865;
1180.5000;0.0700;-0.9932;
1180.8000;0.0741;-0.9842;
1181.1000;0.0716;-0.9955;
1181.4000;0.0716;-0.9955;
1181.7000;0.0708;-0.9955;
1182.0000;0.0700;-0.9887;
1182.3000;0.0659;-1.0000;
1182.6000;0.0724;-0.9978;
1182.9000;0.0724;-1.0000;
1183.2000;0.0716;-0.9932;
1183.5000;0.0749;-0.9887;
1183.8000;0.0749;-0.9887;
1184.1000;0.0708;-1.0000;
1184.4000;0.0790;-0.9774;
1184.7000;0.0692;-0.9887;
1185.0000;0.0708;-0.9932;
1185.3000;0.0790;-0.9729;
1185.6000;0.0692;-0.9955;
1185.9000;0.0692;-0.9910;
1186.2000;0.0716;-0.9887;
1186.5000;0.0594;-1.0136;
1186.8000;0.0692;-0.9842;
1187.1000;0.0724;-0.9819;
1187.4000;0.0733;-0.9774;
1187.7000;0.0708;-0.9842;
1188.0000;0.0724;-0.9729;
1188.3000;0.0708;-0.9797;
1188.6000;0.0708;-0.9819;
1188.9000;0.0700;-0.9819;
1189.2000;0.0741;-0.9774;
1189.5000;0.0724;-0.9842;
1189.8000;0.0749;-0.9842;
1190.1000;0.0741;-0.9932;
1190.4000;0.0733;-0.9932;
1190.7000;0.0708;-0.9910;
1191.0000;0.0708;-0.9978;
1191.3000;0.0749;-0.9819;
1191.6000;0.0724;-0.9932;
1191.9000;0.0724;-0.9910;
1192.2000;0.0733;-0.9842;
1192.5000;0.0733;-0.9797;
1192.8000;0.0716;-0.9774;
1193.1000;0.0716;-0.9706;
1193.4000;0.0724;-0.9751;
1193.7000;0.0733;-0.9774;
1194.0000;0.0790;-0.9751;
1194.3000;0.0724;-0.9932;
1194.6000;0.0724;-0.9910;
1194.9000;0.0724;-0.9865;
1195.2000;0.0635;-1.0136;
1195.5000;0.0724;-1.0068;
1195.8000;0.0765;-0.9910;
1196.1000;0.0692;-1.0000;
1196.4000;0.0708;-0.9978;
1196.7000;0.0708;-0.9978;
1197.0000;0.0700;-1.0023;
1197.3000;0.0708;-1.0023;
1197.6000;0.0708;-0.9978;
1197.9000;0.0733;-0.9955;
1198.2000;0.0830;-0.9729;
1198.5000;0.0716;-0.9978;
1198.8000;0.0724;-0.9910;
1199.1000;0.0716;-1.0000;
1199.4000;0.0700;-1.0023;
1199.7000;0.0700;-1.0023;
1200.0000;0.0741;-0.9910;
1200.3000;0.0838;-0.9684;
1200.6000;0.0651;-1.0068;
1200.9000;0.0733;-0.9887;
1201.2000;0.0700;-0.9955;
1201.5000;0.0716;-0.9978;
1201.8000;0.0708;-1.0023;
1202.1000;0.0692;-1.0091;
1202.4000;0.0586;-1.0385;
1202.7000;0.0716;-1.0023;
1203.0000;0.0724;-1.0000;
1203.3000;0.0741;-0.9910;
1203.6000;0.0651;-1.0159;
1203.9000;0.0749;-0.9932;
1204.2000;0.0757;-0.9887;
1204.5000;0.0724;-0.9910;
1204.8000;0.0700;-1.0000;
1205.1000;0.0733;-0.9932;
1205.4000;0.0724;-0.9932;
1205.7000;0.0741;-0.9955;
1206.0000;0.0716;-0.9978;
1206.3000;0.0700;-0.9887;
1206.6000;0.0716;-0.9887;
1206.9000;0.0724;-0.9978;
1207.2000;0.0716;-0.9978;
1207.5000;0.0757;-0.9887;
1207.8000;0.0757;-1.0000;
1208.1000;0.0700;-1.0294;
1208.4000;0.0822;-0.9978;
1208.7000;0.0716;-1.0204;
1209.0000;0.0757;-1.0046;
1209.3000;0.0741;-1.0113;
1209.6000;0.0724;-1.0159;
1209.9000;0.0708;-1.0249;
1210.2000;0.0741;-1.0023;
1210.5000;0.0667;-1.0204;
1210.8000;0.0733;-1.0000;
1211.1000;0.0733;-1.0046;
1211.4000;0.0741;-0.9932;
1211.7000;0.0724;-0.9910;
1212.0000;0.0708;-0.9887;
1212.3000;0.0700;-0.9819;
1212.6000;0.0724;-0.9729;
1212.9000;0.0724;-0.9819;
1213.2000;0.0741;-0.9774;
1213.5000;0.0733;-0.9751;
1213.8000;0.0724;-0.9887;
1214.1000;0.0724;-0.9932;
1214.4000;0.0716;-0.9978;
1214.7000;0.0700;-1.0023;
1215.0000;0.0716;-0.9955;
1215.3000;0.0733;-0.9955;
1215.6000;0.0716;-0.9932;
1215.9000;0.0708;-0.9910;
1216.2000;0.0700;-0.9955;
1216.5000;0.0716;-1.0023;
1216.8000;0.0724;-1.0000;
1217.1000;0.0741;-0.9955;
1217.4000;0.0749;-0.9955;
1217.7000;0.0716;-0.9978;
1218.0000;0.0733;-0.9887;
1218.3000;0.0708;-0.9955;
1218.6000;0.0757;-0.9865;
1218.9000;0.0724;-0.9955;
1219.2000;0.0822;-0.9729;
1219.5000;0.0773;-0.9842;
1219.8000;0.0724;-0.9955;
1220.1000;0.0733;-0.9932;
1220.4000;0.0724;-1.0000;
1220.7000;0.0749;-0.9865;
1221.0000;0.0773;-0.9819;
1221.3000;0.0781;-0.9819;
1221.6000;0.0733;-0.9932;
1221.9000;0.0708;-0.9842;
1222.2000;0.0692;-0.9955;
1222.5000;0.0749;-0.9751;
1222.8000;0.0716;-0.9865;
1223.1000;0.0716;-0.9955;
1223.4000;0.0733;-0.9910;
1223.7000;0.0757;-0.9729;
1224.0000;0.0733;-0.9819;
1224.3000;0.0830;-0.9616;
1224.6000;0.0798;-0.9706;
1224.9000;0.0716;-0.9910;
1225.2000;0.0643;-1.0091;
1225.5000;0.0716;-0.9887;
1225.8000;0.0733;-0.9865;
1226.1000;0.0724;-0.9865;
1226.4000;0.0700;-0.9751;
1226.7000;0.0708;-0.9729;
1227.0000;0.0708;-0.9751;
1227.3000;0.0798;-0.9548;
1227.6000;0.0578;-1.0159;
1227.9000;0.0716;-1.0000;
1228.2000;0.0757;-0.9910;
1228.5000;0.0692;-1.0068;
1228.8000;0.0708;-0.9955;
1229.1000;0.0733;-0.9865;
1229.4000;0.0716;-0.9797;
1229.7000;0.0749;-0.9706;
1230.0000;0.0733;-0.9774;
1230.3000;0.0741;-0.9797;
1230.6000;0.0716;-0.9887;
1230.9000;0.0716;-0.9887;
1231.2000;0.0749;-0.9774;
1231.5000;0.0724;-0.9751;
1231.8000;0.0651;-0.9978;
1232.1000;0.0651;-1.0091;
1232.4000;0.0708;-0.9865;
1232.7000;0.0659;-0.9978;
1233.0000;0.0700;-0.9910;
1233.3000;0.0733;-0.9774;
1233.6000;0.0708;-0.9842;
1233.9000;0.0733;-0.9842;
1234.2000;0.0716;-0.9887;
1234.5000;0.0733;-0.9819;
1234.8000;0.0724;-0.9865;
1235.1000;0.0724;-0.9910;
1235.4000;0.0708;-0.9865;
1235.7000;0.0724;-0.9842;
1236.0000;0.0708;-0.9887;
1236.3000;0.0716;-0.9910;
1236.6000;0.0757;-0.9729;
1236.9000;0.0716;-0.9774;
1237.2000;0.0708;-0.9842;
1237.5000;0.0749;-0.9729;
1237.8000;0.0700;-0.9797;
1238.1000;0.0700;-0.9797;
1238.4000;0.0733;-0.9751;
1238.7000;0.0692;-0.9887;
1239.0000;0.0724;-0.9887;
1239.3000;0.0749;-0.9774;
1239.6000;0.0733;-0.9842;
1239.9000;0.0724;-0.9797;
1240.2000;0.0757;-0.9684;
1240.5000;0.0724;-0.9797;
1240.8000;0.0708;-0.9842;
1241.1000;0.0733;-0.9797;
1241.4000;0.0741;-0.9842;
1241.7000;0.0716;-0.9819;
1242.0000;0.0733;-0.9819;
1242.3000;0.0635;-1.0023;
1242.6000;0.0716;-0.9774;
1242.9000;0.0716;-0.9797;
1243.2000;0.0765;-0.9729;
1243.5000;0.0733;-0.9842;
1243.8000;0.0700;-0.9819;
1244.1000;0.0716;-0.9887;
1244.4000;0.0708;-0.9955;
1244.7000;0.0692;-1.0046;
1245.0000;0.0708;-1.0000;
1245.3000;0.0667;-1.0136;
1245.6000;0.0855;-0.9593;
1245.9000;0.0733;-0.9910;
1246.2000;0.0741;-0.9819;
1246.5000;0.0798;-0.9706;
1246.8000;0.0733;-0.9887;
1247.1000;0.0741;-0.9842;
1247.4000;0.0708;-0.9887;
1247.7000;0.0724;-0.9774;
1248.0000;0.0716;-0.9819;
1248.3000;0.0602;-1.0046;
1248.6000;0.0716;-0.9774;
1248.9000;0.0724;-0.9774;
1249.2000;0.0667;-0.9910;
1249.5000;0.0749;-0.9638;
1249.8000;0.0733;-0.9638;
1250.1000;0.0716;-0.9684;
1250.4000;0.0733;-0.9729;
1250.7000;0.0716;-0.9684;
1251.0000;0.0716;-0.9706;
1251.3000;0.0724;-0.9729;
1251.6000;0.0692;-0.9910;
1251.9000;0.0757;-0.9684;
1252.2000;0.0741;-0.9616;
1252.5000;0.0733;-0.9729;
1252.8000;0.0676;-0.9910;
1253.1000;0.0716;-0.9684;
1253.4000;0.0724;-0.9525;
1253.7000;0.0700;-0.9661;
1254.0000;0.0692;-0.9751;
1254.3000;0.0757;-0.9638;
1254.6000;0.0716;-0.9819;
1254.9000;0.0733;-0.9842;
1255.2000;0.0716;-0.9865;
1255.5000;0.0708;-0.9842;
1255.8000;0.0708;-0.9751;
1256.1000;0.0724;-0.9638;
1256.4000;0.0692;-0.9774;
1256.7000;0.0724;-0.9706;
1257.0000;0.0700;-0.9774;
1257.3000;0.0724;-0.9797;
1257.6000;0.0716;-0.9865;
1257.9000;0.0716;-0.9910;
1258.2000;0.0659;-1.0046;
1258.5000;0.0733;-0.9887;
1258.8000;0.0716;-0.9955;
1259.1000;0.0724;-0.9865;
1259.4000;0.0700;-0.9865;
1259.7000;0.0700;-0.9910;
1260.0000;0.0724;-0.9887;
1260.3000;0.0700;-0.9887;
1260.6000;0.0700;-0.9955;
1260.9000;0.0716;-1.0023;
1261.2000;0.0733;-1.0000;
1261.5000;0.0716;-1.0046;
1261.8000;0.0700;-0.9932;
1262.1000;0.0716;-0.9910;
1262.4000;0.0724;-0.9910;
1262.7000;0.0692;-1.0068;
1263.0000;0.0716;-0.9955;
1263.3000;0.0741;-0.9932;
1263.6000;0.0716;-1.0046;
1263.9000;0.0708;-1.0068;
1264.2000;0.0733;-0.9932;
1264.5000;0.0708;-0.9978;
1264.8000;0.0724;-0.9932;
1265.1000;0.0741;-0.9797;
1265.4000;0.0733;-0.9751;
1265.7000;0.0635;-1.0046;
1266.0000;0.0716;-0.9819;
1266.3000;0.0676;-0.9887;
1266.6000;0.0733;-0.9751;
1266.9000;0.0716;-0.9729;
1267.2000;0.0733;-0.9616;
1267.5000;0.0700;-0.9684;
1267.8000;0.0741;-0.9570;
1268.1000;0.0676;-0.9819;
1268.4000;0.0741;-0.9729;
1268.7000;0.0708;-0.9819;
1269.0000;0.0724;-0.9797;
1269.3000;0.0684;-0.9910;
1269.6000;0.0822;-0.9661;
1269.9000;0.0724;-0.9842;
1270.2000;0.0765;-0.9729;
1270.5000;0.0724;-0.9797;
1270.8000;0.0765;-0.9684;
1271.1000;0.0757;-0.9706;
1271.4000;0.0724;-0.9797;
1271.7000;0.0733;-0.9706;
1272.0000;0.0741;-0.9684;
1272.3000;0.0749;-0.9638;
1272.6000;0.0716;-0.9638;
1272.9000;0.0741;-0.9593;
1273.2000;0.0724;-0.9638;
1273.5000;0.0724;-0.9661;
1273.8000;0.0741;-0.9706;
1274.1000;0.0708;-0.9774;
1274.4000;0.0765;-0.9684;
1274.7000;0.0741;-0.9729;
1275.0000;0.0757;-0.9706;
1275.3000;0.0733;-0.9819;
1275.6000;0.0716;-0.9887;
1275.9000;0.0708;-1.0046;
1276.2000;0.0741;-0.9910;
1276.5000;0.0724;-0.9865;
1276.8000;0.0667;-1.0023;
1277.1000;0.0716;-0.9887;
1277.4000;0.0757;-0.9842;
1277.7000;0.0733;-0.9910;
1278.0000;0.0716;-0.9842;
1278.3000;0.0700;-0.9932;
1278.6000;0.0822;-0.9616;
1278.9000;0.0724;-0.9865;
1279.2000;0.0733;-0.9842;
1279.5000;0.0733;-0.9932;
1279.8000;0.0741;-1.0000;
1280.1000;0.0659;-1.0091;
1280.4000;0.0708;-0.9887;
1280.7000;0.0700;-0.9842;
1281.0000;0.0716;-0.9729;
1281.3000;0.0724;-0.9774;
1281.6000;0.0724;-0.9774;
1281.9000;0.0716;-0.9774;
1282.2000;0.0651;-0.9887;
1282.5000;0.0708;-0.9797;
1282.8000;0.0676;-0.9865;
1283.1000;0.0724;-0.9774;
1283.4000;0.0716;-0.9797;
1283.7000;0.0724;-0.9865;
1284.0000;0.0749;-0.9819;
1284.3000;0.0724;-0.9865;
1284.6000;0.0684;-0.9955;
1284.9000;0.0708;-0.9865;
1285.2000;0.0724;-0.9819;
1285.5000;0.0716;-0.9819;
1285.8000;0.0716;-0.9819;
1286.1000;0.0724;-0.9865;
1286.4000;0.0765;-0.9819;
1286.7000;0.0741;-0.9932;
1287.0000;0.0708;-0.9955;
1287.3000;0.0733;-0.9910;
1287.6000;0.0708;-0.9932;
1287.9000;0.0724;-0.9932;
1288.2000;0.0708;-1.0023;
1288.5000;0.0741;-0.9932;
1288.8000;0.0733;-1.0068;
1289.1000;0.0724;-1.0113;
1289.4000;0.0716;-1.0181;
1289.7000;0.0716;-1.0181;
1290.0000;0.0733;-1.0249;
1290.3000;0.0651;-1.0408;
1290.6000;0.0733;-1.0249;
1290.9000;0.0724;-1.0294;
1291.2000;0.0724;-1.0249;
1291.5000;0.0716;-1.0272;
1291.8000;0.0716;-1.0159;
1292.1000;0.0643;-1.0340;
1292.4000;0.0716;-1.0136;
1292.7000;0.0733;-0.9978;
1293.0000;0.0724;-0.9819;
1293.3000;0.0733;-0.9887;
1293.6000;0.0724;-0.9887;
1293.9000;0.0724;-0.9932;
1294.2000;0.0733;-0.9978;
1294.5000;0.0716;-0.9955;
1294.8000;0.0724;-0.9887;
1295.1000;0.0733;-0.9819;
1295.4000;0.0700;-0.9865;
1295.7000;0.0684;-0.9955;
1296.0000;0.0716;-0.9932;
1296.3000;0.0741;-0.9797;
1296.6000;0.0733;-0.9774;
1296.9000;0.0741;-0.9729;
1297.2000;0.0716;-0.9729;
1297.5000;0.0708;-0.9865;
1297.8000;0.0716;-0.9887;
1298.1000;0.0757;-0.9865;
1298.4000;0.0716;-0.9955;
1298.7000;0.0716;-1.0023;
1299.0000;0.0741;-0.9910;
1299.3000;0.0757;-0.9751;
1299.6000;0.0716;-0.9865;
1299.9000;0.0724;-0.9819;
1300.2000;0.0708;-0.9865;
1300.5000;0.0733;-0.9819;
1300.8000;0.0733;-0.9865;
1301.1000;0.0716;-0.9978;
1301.4000;0.0724;-0.9978;
1301.7000;0.0700;-1.0023;
1302.0000;0.0700;-1.0000;
1302.3000;0.0724;-0.9797;
1302.6000;0.0741;-0.9797;
1302.9000;0.0708;-0.9910;
1303.2000;0.0733;-0.9887;
1303.5000;0.0716;-0.9887;
1303.8000;0.0733;-0.9865;
1304.1000;0.0716;-0.9887;
1304.4000;0.0741;-0.9797;
1304.7000;0.0716;-0.9842;
1305.0000;0.0724;-0.9842;
1305.3000;0.0724;-0.9865;
1305.6000;0.0741;-0.9819;
1305.9000;0.0733;-0.9774;
1306.2000;0.0700;-0.9797;
1306.5000;0.0749;-0.9797;
1306.8000;0.0741;-0.9978;
1307.1000;0.0733;-1.0046;
1307.4000;0.0708;-1.0068;
1307.7000;0.0692;-1.0159;
1308.0000;0.0733;-0.9955;
1308.3000;0.0708;-0.9978;
1308.6000;0.0781;-0.9797;
1308.9000;0.0708;-1.0068;
1309.2000;0.0724;-1.0068;
1309.5000;0.0847;-0.9706;
1309.8000;0.0724;-1.0068;
1310.1000;0.0724;-1.0091;
1310.4000;0.0716;-1.0113;
1310.7000;0.0692;-1.0113;
1311.0000;0.0724;-1.0023;
1311.3000;0.0684;-1.0113;
1311.6000;0.0659;-1.0159;
1311.9000;0.0716;-1.0046;
1312.2000;0.0708;-1.0091;
1312.5000;0.0724;-1.0000;
1312.8000;0.0700;-1.0068;
1313.1000;0.0716;-1.0068;
1313.4000;0.0724;-0.9955;
1313.7000;0.0733;-0.9955;
1314.0000;0.0733;-0.9932;
1314.3000;0.0733;-0.9842;
1314.6000;0.0724;-0.9751;
1314.9000;0.0684;-0.9819;
1315.2000;0.0741;-0.9819;
1315.5000;0.0733;-0.9842;
1315.8000;0.0684;-0.9887;
1316.1000;0.0708;-0.9774;
1316.4000;0.0716;-0.9774;
1316.7000;0.0700;-0.9774;
1317.0000;0.0700;-0.9842;
1317.3000;0.0708;-0.9887;
1317.6000;0.0749;-0.9819;
1317.9000;0.0578;-1.0181;
1318.2000;0.0814;-0.9570;
1318.5000;0.0733;-0.9706;
1318.8000;0.0741;-0.9684;
1319.1000;0.0733;-0.9706;
1319.4000;0.0830;-0.9457;
1319.7000;0.0733;-0.9774;
1320.0000;0.0724;-0.9887;
1320.3000;0.0716;-1.0000;
1320.6000;0.0708;-1.0091;
1320.9000;0.0724;-1.0068;
1321.2000;0.0716;-1.0159;
1321.5000;0.0765;-1.0000;
1321.8000;0.0781;-0.9978;
1322.1000;0.0724;-1.0068;
1322.4000;0.0733;-1.0046;
1322.7000;0.0773;-0.9932;
1323.0000;0.0724;-1.0091;
1323.3000;0.0724;-1.0091;
1323.6000;0.0716;-1.0136;
1323.9000;0.0708;-1.0113;
1324.2000;0.0765;-1.0000;
1324.5000;0.0733;-0.9978;
1324.8000;0.0765;-0.9819;
1325.1000;0.0716;-0.9910;
1325.4000;0.0733;-0.9932;
1325.7000;0.0733;-0.9978;
1326.0000;0.0724;-0.9955;
1326.3000;0.0724;-1.0046;
1326.6000;0.0716;-1.0091;
1326.9000;0.0716;-1.0000;
1327.2000;0.0724;-1.0046;
1327.5000;0.0708;-1.0068;
1327.8000;0.0708;-1.0113;
1328.1000;0.0716;-1.0046;
1328.4000;0.0724;-1.0091;
1328.7000;0.0749;-1.0000;
1329.0000;0.0724;-1.0023;
1329.3000;0.0749;-0.9978;
1329.6000;0.0749;-1.0023;
1329.9000;0.0676;-1.0204;
1330.2000;0.0700;-0.9955;
1330.5000;0.0716;-0.9819;
1330.8000;0.0594;-1.0181;
1331.1000;0.0749;-0.9842;
1331.4000;0.0757;-0.9887;
1331.7000;0.0724;-1.0023;
1332.0000;0.0708;-1.0181;
1332.3000;0.0741;-1.0113;
1332.6000;0.0700;-1.0113;
1332.9000;0.0806;-0.9887;
1333.2000;0.0708;-1.0023;
1333.5000;0.0741;-0.9955;
1333.8000;0.0741;-0.9865;
1334.1000;0.0741;-0.9774;
1334.4000;0.0708;-0.9865;
1334.7000;0.0716;-0.9865;
1335.0000;0.0814;-0.9638;
1335.3000;0.0733;-0.9729;
1335.6000;0.0733;-0.9774;
1335.9000;0.0684;-0.9887;
1336.2000;0.0684;-0.9932;
1336.5000;0.0708;-0.9865;
1336.8000;0.0724;-0.9865;
1337.1000;0.0667;-1.0023;
1337.4000;0.0724;-0.9797;
1337.7000;0.0684;-0.9797;
1338.0000;0.0749;-0.9616;
1338.3000;0.0708;-0.9638;
1338.6000;0.0781;-0.9570;
1338.9000;0.0676;-0.9729;
1339.2000;0.0724;-0.9684;
1339.5000;0.0724;-0.9797;
1339.8000;0.0733;-0.9751;
1340.1000;0.0741;-0.9797;
1340.4000;0.0676;-0.9910;
1340.7000;0.0676;-1.0046;
1341.0000;0.0724;-0.9955;
1341.3000;0.0692;-1.0023;
1341.6000;0.0733;-0.9819;
1341.9000;0.0700;-0.9865;
1342.2000;0.0790;-0.9684;
1342.5000;0.0733;-0.9797;
1342.8000;0.0667;-0.9932;
1343.1000;0.0708;-0.9729;
1343.4000;0.0708;-0.9751;
1343.7000;0.0806;-0.9503;
1344.0000;0.0724;-0.9774;
1344.3000;0.0716;-0.9751;
1344.6000;0.0700;-0.9819;
1344.9000;0.0741;-0.9751;
1345.2000;0.0765;-0.9774;
1345.5000;0.0733;-0.9865;
1345.8000;0.0733;-0.9887;
1346.1000;0.0733;-0.9887;
1346.4000;0.0708;-0.9932;
1346.7000;0.0733;-0.9865;
1347.0000;0.0757;-0.9842;
1347.3000;0.0741;-0.9865;
1347.6000;0.0733;-0.9842;
1347.9000;0.0724;-0.9887;
1348.2000;0.0733;-0.9842;
1348.5000;0.0757;-0.9842;
1348.8000;0.0733;-0.9865;
1349.1000;0.0716;-0.9842;
1349.4000;0.0716;-0.9797;
1349.7000;0.0749;-0.9661;
1350.0000;0.0724;-0.9706;
1350.3000;0.0765;-0.9616;
1350.6000;0.0765;-0.9525;
1350.9000;0.0724;-0.9593;
1351.2000;0.0708;-0.9661;
1351.5000;0.0733;-0.9570;
1351.8000;0.0708;-0.9638;
1352.1000;0.0741;-0.9661;
1352.4000;0.0716;-0.9729;
1352.7000;0.0741;-0.9638;
1353.0000;0.0724;-0.9684;
1353.3000;0.0733;-0.9661;
1353.6000;0.0724;-0.9638;
1353.9000;0.0716;-0.9616;
1354.2000;0.0733;-0.9638;
1354.5000;0.0700;-0.9638;
1354.8000;0.0716;-0.9706;
1355.1000;0.0741;-0.9661;
1355.4000;0.0733;-0.9593;
1355.7000;0.0700;-0.9684;
1356.0000;0.0781;-0.9480;
1356.3000;0.0708;-0.9616;
1356.6000;0.0741;-0.9593;
1356.9000;0.0716;-0.9706;
1357.2000;0.0741;-0.9661;
1357.5000;0.0733;-0.9684;
1357.8000;0.0749;-0.9684;
1358.1000;0.0749;-0.9616;
1358.4000;0.0773;-0.9503;
1358.7000;0.0700;-0.9638;
1359.0000;0.0724;-0.9706;
1359.3000;0.0684;-0.9819;
1359.6000;0.0716;-0.9774;
1359.9000;0.0724;-0.9774;
1360.2000;0.0790;-0.9729;
1360.5000;0.0749;-0.9865;
1360.8000;0.0724;-0.9910;
1361.1000;0.0667;-1.0046;
1361.4000;0.0700;-1.0000;
1361.7000;0.0708;-0.9955;
1362.0000;0.0741;-0.9910;
1362.3000;0.0684;-0.9955;
1362.6000;0.0733;-0.9932;
1362.9000;0.0724;-0.9910;
1363.2000;0.0716;-0.9842;
1363.5000;0.0586;-1.0068;
1363.8000;0.0716;-0.9774;
1364.1000;0.0741;-0.9729;
1364.4000;0.0741;-0.9684;
1364.7000;0.0716;-0.9819;
1365.0000;0.0724;-0.9797;
1365.3000;0.0708;-0.9819;
1365.6000;0.0773;-0.9638;
1365.9000;0.0724;-0.9819;
1366.2000;0.0716;-0.9910;
1366.5000;0.0667;-0.9932;
1366.8000;0.0684;-0.9932;
1367.1000;0.0733;-0.9865;
1367.4000;0.0733;-0.9842;
1367.7000;0.0757;-0.9751;
1368.0000;0.0741;-0.9819;
1368.3000;0.0724;-0.9932;
1368.6000;0.0611;-1.0272;
1368.9000;0.0733;-1.0000;
1369.2000;0.0733;-0.9910;
1369.5000;0.0724;-0.9955;
1369.8000;0.0708;-1.0023;
1370.1000;0.0733;-0.9932;
1370.4000;0.0733;-1.0000;
1370.7000;0.0716;-0.9932;
1371.0000;0.0708;-0.9955;
1371.3000;0.0724;-0.9932;
1371.6000;0.0749;-0.9819;
1371.9000;0.0724;-0.9774;
1372.2000;0.0733;-0.9751;
1372.5000;0.0724;-0.9819;
1372.8000;0.0716;-0.9842;
1373.1000;0.0724;-0.9842;
1373.4000;0.0798;-0.9661;
1373.7000;0.0724;-0.9819;
1374.0000;0.0716;-0.9774;
1374.3000;0.0724;-0.9797;
1374.6000;0.0733;-0.9751;
1374.9000;0.0716;-0.9729;
1375.2000;0.0708;-0.9706;
1375.5000;0.0708;-0.9774;
1375.8000;0.0781;-0.9638;
1376.1000;0.0716;-0.9797;
1376.4000;0.0700;-0.9842;
1376.7000;0.0716;-0.9865;
1377.0000;0.0733;-0.9887;
1377.3000;0.0790;-0.9684;
1377.6000;0.0586;-1.0068;
1377.9000;0.0700;-0.9887;
1378.2000;0.0700;-0.9842;
1378.5000;0.0773;-0.9706;
1378.8000;0.0651;-1.0000;
1379.1000;0.0716;-0.9706;
1379.4000;0.0676;-0.9751;
1379.7000;0.0741;-0.9593;
1380.0000;0.0724;-0.9616;
1380.3000;0.0659;-0.9751;
1380.6000;0.0627;-0.9910;
1380.9000;0.0716;-0.9729;
1381.2000;0.0749;-0.9706;
1381.5000;0.0708;-0.9797;
1381.8000;0.0806;-0.9570;
1382.1000;0.0757;-0.9661;
1382.4000;0.0700;-0.9797;
1382.7000;0.0716;-0.9774;
1383.0000;0.0716;-0.9751;
1383.3000;0.0757;-0.9729;
1383.6000;0.0724;-0.9774;
1383.9000;0.0733;-0.9684;
1384.2000;0.0724;-0.9751;
1384.5000;0.0757;-0.9751;
1384.8000;0.0757;-0.9774;
1385.1000;0.0651;-1.0000;
1385.4000;0.0741;-0.9819;
1385.7000;0.0741;-0.9774;
1386.0000;0.0724;-0.9865;
1386.3000;0.0708;-0.9865;
1386.6000;0.0724;-0.9797;
1386.9000;0.0724;-0.9819;
1387.2000;0.0741;-0.9751;
1387.5000;0.0716;-0.9729;
1387.8000;0.0700;-0.9774;
1388.1000;0.0733;-0.9729;
1388.4000;0.0724;-0.9706;
1388.7000;0.0708;-0.9774;
1389.0000;0.0724;-0.9684;
1389.3000;0.0733;-0.9593;
1389.6000;0.0757;-0.9593;
1389.9000;0.0724;-0.9729;
1390.2000;0.0716;-0.9729;
1390.5000;0.0708;-0.9751;
1390.8000;0.0765;-0.9593;
1391.1000;0.0749;-0.9638;
1391.4000;0.0716;-0.9774;
1391.7000;0.0741;-0.9661;
1392.0000;0.0724;-0.9661;
1392.3000;0.0741;-0.9638;
1392.6000;0.0684;-0.9797;
1392.9000;0.0700;-0.9661;
1393.2000;0.0733;-0.9638;
1393.5000;0.0716;-0.9729;
1393.8000;0.0757;-0.9593;
1394.1000;0.0798;-0.9480;
1394.4000;0.0781;-0.9503;
1394.7000;0.0806;-0.9389;
1395.0000;0.0733;-0.9593;
1395.3000;0.0741;-0.9480;
1395.6000;0.0611;-0.9819;
1395.9000;0.0724;-0.9616;
1396.2000;0.0667;-0.9910;
1396.5000;0.0716;-0.9751;
1396.8000;0.0667;-0.9865;
1397.1000;0.0716;-0.9774;
1397.4000;0.0741;-0.9684;
1397.7000;0.0814;-0.9548;
1398.0000;0.0700;-0.9887;
1398.3000;0.0692;-0.9932;
1398.6000;0.0684;-0.9978;
1398.9000;0.0708;-0.9932;
1399.2000;0.0708;-0.9865;
1399.5000;0.0651;-1.0046;
1399.8000;0.0741;-0.9887;
