time/ms;Fluo/V;P700 deltaI/I x10³;
-199.8000;0.0773;-0.8121;
-199.5000;0.0781;-0.8143;
-199.2000;0.0790;-0.8099;
-198.9000;0.0895;-0.7900;
-198.6000;0.0790;-0.8143;
-198.3000;0.0790;-0.8055;
-198.0000;0.0781;-0.8143;
-197.7000;0.0667;-0.8320;
-197.4000;0.0773;-0.8121;
-197.1000;0.0773;-0.8210;
-196.8000;0.0773;-0.8276;
-196.5000;0.0773;-0.8210;
-196.2000;0.0773;-0.8121;
-195.9000;0.0773;-0.8165;
-195.6000;0.0773;-0.8165;
-195.3000;0.0781;-0.8210;
-195.0000;0.0773;-0.8210;
-194.7000;0.0904;-0.7922;
-194.4000;0.0781;-0.8187;
-194.1000;0.0798;-0.8165;
-193.8000;0.0733;-0.8276;
-193.5000;0.0773;-0.8187;
-193.2000;0.0806;-0.8055;
-192.9000;0.0757;-0.8187;
-192.6000;0.0790;-0.8099;
-192.3000;0.0798;-0.8077;
-192.0000;0.0781;-0.8143;
-191.7000;0.0765;-0.8099;
-191.4000;0.0765;-0.8187;
-191.1000;0.0773;-0.8187;
-190.8000;0.0773;-0.8210;
-190.5000;0.0773;-0.8254;
-190.2000;0.0773;-0.8165;
-189.9000;0.0790;-0.8143;
-189.6000;0.0765;-0.8254;
-189.3000;0.0773;-0.8210;
-189.0000;0.0798;-0.8121;
-188.7000;0.0806;-0.8099;
-188.4000;0.0781;-0.8099;
-188.1000;0.0765;-0.8121;
-187.8000;0.0781;-0.8143;
-187.5000;0.0790;-0.8165;
-187.2000;0.0700;-0.8431;
-186.9000;0.0773;-0.8232;
-186.6000;0.0871;-0.7900;
-186.3000;0.0790;-0.8099;
-186.0000;0.0855;-0.7988;
-185.7000;0.0781;-0.8033;
-185.4000;0.0830;-0.7878;
-185.1000;0.0798;-0.7988;
-184.8000;0.0879;-0.7833;
-184.5000;0.0806;-0.8010;
-184.2000;0.0830;-0.7944;
-183.9000;0.0773;-0.8099;
-183.6000;0.0773;-0.8077;
-183.3000;0.0773;-0.8165;
-183.0000;0.0798;-0.8121;
-182.7000;0.0773;-0.8143;
-182.4000;0.0790;-0.8099;
-182.1000;0.0790;-0.8099;
-181.8000;0.0798;-0.8121;
-181.5000;0.0757;-0.8210;
-181.2000;0.0773;-0.8165;
-180.9000;0.0781;-0.8165;
-180.6000;0.0790;-0.8165;
-180.3000;0.0773;-0.8143;
-180.0000;0.0765;-0.8210;
-179.7000;0.0781;-0.8232;
-179.4000;0.0781;-0.8187;
-179.1000;0.0773;-0.8165;
-178.8000;0.0781;-0.8099;
-178.5000;0.0773;-0.8055;
-178.2000;0.0781;-0.8077;
-177.9000;0.0781;-0.8143;
-177.6000;0.0798;-0.8187;
-177.3000;0.0716;-0.8387;
-177.0000;0.0773;-0.8232;
-176.7000;0.0733;-0.8320;
-176.4000;0.0757;-0.8254;
-176.1000;0.0847;-0.8077;
-175.8000;0.0692;-0.8431;
-175.5000;0.0781;-0.8143;
-175.2000;0.0773;-0.8143;
-174.9000;0.0798;-0.8055;
-174.6000;0.0781;-0.8099;
-174.3000;0.0790;-0.8099;
-174.0000;0.0773;-0.8077;
-173.7000;0.0773;-0.8055;
-173.4000;0.0790;-0.7988;
-173.1000;0.0781;-0.8121;
-172.8000;0.0692;-0.8254;
-172.5000;0.0781;-0.8143;
-172.2000;0.0773;-0.8121;
-171.9000;0.0781;-0.8121;
-171.6000;0.0790;-0.8143;
-171.3000;0.0781;-0.8121;
-171.0000;0.0781;-0.8210;
-170.7000;0.0781;-0.8298;
-170.4000;0.0781;-0.8320;
-170.1000;0.0757;-0.8387;
-169.8000;0.0773;-0.8320;
-169.5000;0.0757;-0.8320;
-169.2000;0.0798;-0.8254;
-168.9000;0.0790;-0.8210;
-168.6000;0.0700;-0.8431;
-168.3000;0.0781;-0.8165;
-168.0000;0.0757;-0.8232;
-167.7000;0.0741;-0.8298;
-167.4000;0.0773;-0.8276;
-167.1000;0.0708;-0.8387;
-166.8000;0.0838;-0.8033;
-166.5000;0.0765;-0.8210;
-166.2000;0.0798;-0.8033;
-165.9000;0.0773;-0.8143;
-165.6000;0.0781;-0.8165;
-165.3000;0.0651;-0.8475;
-165.0000;0.0765;-0.8121;
-164.7000;0.0773;-0.8077;
-164.4000;0.0814;-0.8077;
-164.1000;0.0806;-0.8099;
-163.8000;0.0781;-0.8187;
-163.5000;0.0855;-0.7922;
-163.2000;0.0773;-0.8077;
-162.9000;0.0733;-0.8254;
-162.6000;0.0781;-0.8143;
-162.3000;0.0765;-0.8121;
-162.0000;0.0814;-0.8010;
-161.7000;0.0895;-0.7855;
-161.4000;0.0781;-0.8121;
-161.1000;0.0708;-0.8320;
-160.8000;0.0798;-0.8143;
-160.5000;0.0773;-0.8121;
-160.2000;0.0855;-0.7922;
-159.9000;0.0798;-0.7966;
-159.6000;0.0676;-0.8298;
-159.3000;0.0790;-0.8033;
-159.0000;0.0749;-0.8187;
-158.7000;0.0773;-0.8033;
-158.4000;0.0757;-0.8143;
-158.1000;0.0798;-0.8077;
-157.8000;0.0814;-0.8055;
-157.5000;0.0749;-0.8254;
-157.2000;0.0773;-0.8232;
-156.9000;0.0781;-0.8254;
-156.6000;0.0773;-0.8210;
-156.3000;0.0781;-0.8165;
-156.0000;0.0773;-0.8210;
-155.7000;0.0773;-0.8254;
-155.4000;0.0781;-0.8254;
-155.1000;0.0781;-0.8187;
-154.8000;0.0765;-0.8232;
-154.5000;0.0798;-0.8143;
-154.2000;0.0806;-0.8055;
-153.9000;0.0781;-0.8143;
-153.6000;0.0790;-0.8010;
-153.3000;0.0798;-0.7944;
-153.0000;0.0806;-0.7988;
-152.7000;0.0790;-0.8033;
-152.4000;0.0790;-0.8010;
-152.1000;0.0798;-0.8033;
-151.8000;0.0790;-0.8077;
-151.5000;0.0790;-0.8010;
-151.2000;0.0838;-0.7878;
-150.9000;0.0757;-0.8099;
-150.6000;0.0790;-0.8077;
-150.3000;0.0790;-0.8077;
-150.0000;0.0814;-0.7966;
-149.7000;0.0781;-0.8033;
-149.4000;0.0781;-0.8077;
-149.1000;0.0798;-0.8121;
-148.8000;0.0757;-0.8187;
-148.5000;0.0765;-0.8187;
-148.2000;0.0781;-0.8187;
-147.9000;0.0830;-0.8055;
-147.6000;0.0838;-0.7988;
-147.3000;0.0781;-0.8187;
-147.0000;0.0798;-0.8099;
-146.7000;0.0781;-0.8033;
-146.4000;0.0798;-0.8033;
-146.1000;0.0773;-0.8121;
-145.8000;0.0781;-0.8165;
-145.5000;0.0773;-0.8254;
-145.2000;0.0765;-0.8254;
-144.9000;0.0781;-0.8187;
-144.6000;0.0741;-0.8342;
-144.3000;0.0790;-0.8143;
-144.0000;0.0806;-0.8210;
-143.7000;0.0781;-0.8364;
-143.4000;0.0822;-0.8232;
-143.1000;0.0798;-0.8298;
-142.8000;0.0757;-0.8320;
-142.5000;0.0790;-0.8254;
-142.2000;0.0781;-0.8276;
-141.9000;0.0871;-0.8055;
-141.6000;0.0765;-0.8320;
-141.3000;0.0798;-0.8320;
-141.0000;0.0781;-0.8342;
-140.7000;0.0773;-0.8276;
-140.4000;0.0741;-0.8387;
-140.1000;0.0773;-0.8232;
-139.8000;0.0757;-0.8320;
-139.5000;0.0790;-0.8254;
-139.2000;0.0749;-0.8298;
-138.9000;0.0667;-0.8453;
-138.6000;0.0781;-0.8210;
-138.3000;0.0781;-0.8165;
-138.0000;0.0798;-0.8165;
-137.7000;0.0790;-0.8121;
-137.4000;0.0773;-0.8099;
-137.1000;0.0781;-0.8099;
-136.8000;0.0790;-0.8210;
-136.5000;0.0773;-0.8121;
-136.2000;0.0773;-0.8143;
-135.9000;0.0855;-0.7966;
-135.6000;0.0700;-0.8342;
-135.3000;0.0773;-0.8099;
-135.0000;0.0757;-0.8121;
-134.7000;0.0798;-0.8099;
-134.4000;0.0765;-0.8077;
-134.1000;0.0781;-0.8055;
-133.8000;0.0790;-0.8033;
-133.5000;0.0781;-0.7966;
-133.2000;0.0863;-0.7811;
-132.9000;0.0773;-0.8077;
-132.6000;0.0765;-0.8055;
-132.3000;0.0757;-0.8077;
-132.0000;0.0749;-0.8121;
-131.7000;0.0757;-0.8121;
-131.4000;0.0790;-0.8055;
-131.1000;0.0773;-0.8077;
-130.8000;0.0790;-0.8099;
-130.5000;0.0757;-0.8121;
-130.2000;0.0741;-0.8232;
-129.9000;0.0724;-0.8276;
-129.6000;0.0814;-0.8099;
-129.3000;0.0757;-0.8254;
-129.0000;0.0871;-0.8055;
-128.7000;0.0798;-0.8210;
-128.4000;0.0814;-0.8077;
-128.1000;0.0838;-0.7988;
-127.8000;0.0838;-0.7900;
-127.5000;0.0781;-0.8033;
-127.2000;0.0806;-0.8010;
-126.9000;0.0651;-0.8320;
-126.6000;0.0700;-0.8276;
-126.3000;0.0904;-0.7811;
-126.0000;0.0757;-0.8187;
-125.7000;0.0724;-0.8276;
-125.4000;0.0765;-0.8077;
-125.1000;0.0847;-0.7944;
-124.8000;0.0765;-0.8077;
-124.5000;0.0790;-0.8121;
-124.2000;0.0790;-0.8099;
-123.9000;0.0773;-0.8077;
-123.6000;0.0765;-0.8099;
-123.3000;0.0798;-0.8055;
-123.0000;0.0741;-0.8187;
-122.7000;0.0773;-0.8232;
-122.4000;0.0773;-0.8210;
-122.1000;0.0781;-0.8254;
-121.8000;0.0773;-0.8254;
-121.5000;0.0749;-0.8232;
-121.2000;0.0790;-0.8099;
-120.9000;0.0757;-0.8165;
-120.6000;0.0781;-0.8121;
-120.3000;0.0773;-0.8121;
-120.0000;0.0806;-0.8055;
-119.7000;0.0781;-0.8121;
-119.4000;0.0773;-0.8187;
-119.1000;0.0773;-0.8298;
-118.8000;0.0798;-0.8165;
-118.5000;0.0781;-0.8121;
-118.2000;0.0749;-0.8232;
-117.9000;0.0798;-0.8077;
-117.6000;0.0790;-0.8165;
-117.3000;0.0700;-0.8519;
-117.0000;0.0749;-0.8431;
-116.7000;0.0798;-0.8232;
-116.4000;0.0749;-0.8298;
-116.1000;0.0773;-0.8232;
-115.8000;0.0757;-0.8276;
-115.5000;0.0765;-0.8254;
-115.2000;0.0781;-0.8232;
-114.9000;0.0765;-0.8254;
-114.6000;0.0790;-0.8276;
-114.3000;0.0741;-0.8364;
-114.0000;0.0781;-0.8276;
-113.7000;0.0733;-0.8387;
-113.4000;0.0798;-0.8254;
-113.1000;0.0781;-0.8276;
-112.8000;0.0765;-0.8298;
-112.5000;0.0781;-0.8254;
-112.2000;0.0765;-0.8232;
-111.9000;0.0781;-0.8210;
-111.6000;0.0790;-0.8121;
-111.3000;0.0798;-0.8077;
-111.0000;0.0749;-0.8187;
-110.7000;0.0790;-0.8033;
-110.4000;0.0733;-0.8165;
-110.1000;0.0814;-0.7988;
-109.8000;0.0773;-0.8055;
-109.5000;0.0781;-0.7988;
-109.2000;0.0765;-0.8099;
-108.9000;0.0773;-0.8055;
-108.6000;0.0741;-0.8165;
-108.3000;0.0741;-0.8143;
-108.0000;0.0781;-0.8010;
-107.7000;0.0847;-0.7811;
-107.4000;0.0781;-0.7966;
-107.1000;0.0790;-0.8010;
-106.8000;0.0749;-0.8165;
-106.5000;0.0773;-0.8121;
-106.2000;0.0749;-0.8210;
-105.9000;0.0773;-0.8077;
-105.6000;0.0814;-0.7922;
-105.3000;0.0790;-0.7988;
-105.0000;0.0790;-0.8010;
-104.7000;0.0773;-0.8010;
-104.4000;0.0790;-0.7966;
-104.1000;0.0822;-0.7944;
-103.8000;0.0773;-0.8055;
-103.5000;0.0765;-0.8077;
-103.2000;0.0757;-0.8165;
-102.9000;0.0651;-0.8453;
-102.6000;0.0855;-0.7944;
-102.3000;0.0790;-0.8187;
-102.0000;0.0765;-0.8254;
-101.7000;0.0724;-0.8210;
-101.4000;0.0749;-0.8099;
-101.1000;0.0773;-0.8143;
-100.8000;0.0781;-0.8121;
-100.5000;0.0765;-0.8143;
-100.2000;0.0790;-0.8077;
-99.9000;0.0773;-0.8055;
-99.6000;0.0806;-0.8010;
-99.3000;0.0749;-0.8165;
-99.0000;0.0781;-0.8121;
-98.7000;0.0781;-0.8099;
-98.4000;0.0773;-0.8187;
-98.1000;0.0798;-0.8165;
-97.8000;0.0781;-0.8187;
-97.5000;0.0757;-0.8121;
-97.2000;0.0765;-0.8077;
-96.9000;0.0765;-0.8033;
-96.6000;0.0765;-0.8099;
-96.3000;0.0781;-0.8010;
-96.0000;0.0790;-0.8033;
-95.7000;0.0887;-0.7811;
-95.4000;0.0879;-0.7833;
-95.1000;0.0790;-0.7922;
-94.8000;0.0781;-0.8010;
-94.5000;0.0863;-0.7855;
-94.2000;0.0749;-0.8010;
-93.9000;0.0806;-0.7944;
-93.6000;0.0781;-0.8077;
-93.3000;0.0814;-0.8077;
-93.0000;0.0781;-0.8165;
-92.7000;0.0773;-0.8210;
-92.4000;0.0781;-0.8121;
-92.1000;0.0798;-0.8077;
-91.8000;0.0781;-0.8099;
-91.5000;0.0749;-0.8210;
-91.2000;0.0814;-0.7966;
-90.9000;0.0822;-0.7988;
-90.6000;0.0830;-0.7966;
-90.3000;0.0765;-0.8077;
-90.0000;0.0700;-0.8276;
-89.7000;0.0822;-0.8121;
-89.4000;0.0798;-0.8121;
-89.1000;0.0798;-0.8055;
-88.8000;0.0749;-0.8276;
-88.5000;0.0847;-0.8077;
-88.2000;0.0838;-0.8033;
-87.9000;0.0904;-0.7855;
-87.6000;0.0773;-0.8099;
-87.3000;0.0822;-0.7922;
-87.0000;0.0798;-0.8010;
-86.7000;0.0790;-0.8055;
-86.4000;0.0790;-0.8077;
-86.1000;0.0798;-0.8055;
-85.8000;0.0749;-0.8121;
-85.5000;0.0790;-0.7966;
-85.2000;0.0781;-0.8033;
-84.9000;0.0798;-0.7922;
-84.6000;0.0781;-0.7966;
-84.3000;0.0781;-0.7944;
-84.0000;0.0790;-0.7966;
-83.7000;0.0708;-0.8121;
-83.4000;0.0724;-0.8033;
-83.1000;0.0781;-0.7855;
-82.8000;0.0643;-0.8143;
-82.5000;0.0765;-0.7789;
-82.2000;0.0765;-0.7745;
-81.9000;0.0757;-0.7833;
-81.6000;0.0765;-0.7878;
-81.3000;0.0749;-0.8010;
-81.0000;0.0814;-0.7900;
-80.7000;0.0790;-0.7966;
-80.4000;0.0806;-0.7966;
-80.1000;0.0659;-0.8364;
-79.8000;0.0781;-0.8099;
-79.5000;0.0765;-0.8055;
-79.2000;0.0798;-0.8010;
-78.9000;0.0798;-0.8055;
-78.6000;0.0781;-0.8033;
-78.3000;0.0790;-0.8033;
-78.0000;0.0765;-0.8121;
-77.7000;0.0814;-0.8055;
-77.4000;0.0765;-0.8210;
-77.1000;0.0781;-0.8099;
-76.8000;0.0781;-0.8099;
-76.5000;0.0790;-0.8077;
-76.2000;0.0749;-0.8187;
-75.9000;0.0741;-0.8165;
-75.6000;0.0765;-0.8077;
-75.3000;0.0757;-0.8077;
-75.0000;0.0781;-0.8099;
-74.7000;0.0781;-0.8099;
-74.4000;0.0749;-0.8254;
-74.1000;0.0790;-0.8165;
-73.8000;0.0757;-0.8210;
-73.5000;0.0790;-0.8143;
-73.2000;0.0798;-0.8077;
-72.9000;0.0806;-0.8033;
-72.6000;0.0773;-0.8210;
-72.3000;0.0749;-0.8254;
-72.0000;0.0765;-0.8254;
-71.7000;0.0814;-0.8121;
-71.4000;0.0806;-0.8187;
-71.1000;0.0781;-0.8254;
-70.8000;0.0749;-0.8364;
-70.5000;0.0781;-0.8187;
-70.2000;0.0790;-0.8232;
-69.9000;0.0749;-0.8320;
-69.6000;0.0790;-0.8210;
-69.3000;0.0781;-0.8187;
-69.0000;0.0781;-0.8187;
-68.7000;0.0781;-0.8276;
-68.4000;0.0757;-0.8232;
-68.1000;0.0765;-0.8210;
-67.8000;0.0814;-0.8121;
-67.5000;0.0814;-0.8099;
-67.2000;0.0700;-0.8364;
-66.9000;0.0773;-0.8099;
-66.6000;0.0814;-0.7966;
-66.3000;0.0781;-0.8077;
-66.0000;0.0724;-0.8210;
-65.7000;0.0716;-0.8187;
-65.4000;0.0781;-0.8165;
-65.1000;0.0773;-0.8254;
-64.8000;0.0684;-0.8497;
-64.5000;0.0773;-0.8320;
-64.2000;0.0781;-0.8210;
-63.9000;0.0781;-0.8210;
-63.6000;0.0773;-0.8165;
-63.3000;0.0790;-0.8121;
-63.0000;0.0781;-0.8121;
-62.7000;0.0790;-0.8099;
-62.4000;0.0781;-0.8143;
-62.1000;0.0765;-0.8187;
-61.8000;0.0781;-0.8187;
-61.5000;0.0741;-0.8187;
-61.2000;0.0822;-0.8077;
-60.9000;0.0781;-0.8254;
-60.6000;0.0781;-0.8210;
-60.3000;0.0773;-0.8254;
-60.0000;0.0814;-0.8165;
-59.7000;0.0773;-0.8254;
-59.4000;0.0773;-0.8210;
-59.1000;0.0790;-0.8077;
-58.8000;0.0806;-0.7944;
-58.5000;0.0798;-0.8077;
-58.2000;0.0790;-0.8143;
-57.9000;0.0822;-0.8010;
-57.6000;0.0773;-0.8099;
-57.3000;0.0733;-0.8298;
-57.0000;0.0790;-0.8121;
-56.7000;0.0733;-0.8165;
-56.4000;0.0773;-0.8165;
-56.1000;0.0781;-0.8232;
-55.8000;0.0798;-0.8232;
-55.5000;0.0757;-0.8254;
-55.2000;0.0781;-0.8143;
-54.9000;0.0757;-0.8165;
-54.6000;0.0765;-0.8121;
-54.3000;0.0773;-0.8143;
-54.0000;0.0757;-0.8210;
-53.7000;0.0806;-0.8055;
-53.4000;0.0790;-0.8121;
-53.1000;0.0773;-0.8033;
-52.8000;0.0773;-0.7988;
-52.5000;0.0773;-0.8055;
-52.2000;0.0781;-0.8010;
-51.9000;0.0781;-0.8077;
-51.6000;0.0790;-0.8055;
-51.3000;0.0781;-0.8099;
-51.0000;0.0741;-0.8232;
-50.7000;0.0741;-0.8165;
-50.4000;0.0855;-0.7900;
-50.1000;0.0781;-0.8055;
-49.8000;0.0765;-0.8033;
-49.5000;0.0781;-0.7988;
-49.2000;0.0790;-0.7944;
-48.9000;0.0887;-0.7745;
-48.6000;0.0765;-0.8010;
-48.3000;0.0765;-0.8143;
-48.0000;0.0798;-0.8143;
-47.7000;0.0790;-0.8187;
-47.4000;0.0733;-0.8298;
-47.1000;0.0806;-0.7988;
-46.8000;0.0757;-0.8121;
-46.5000;0.0798;-0.8077;
-46.2000;0.0757;-0.8254;
-45.9000;0.0773;-0.8320;
-45.6000;0.0798;-0.8232;
-45.3000;0.0790;-0.8210;
-45.0000;0.0773;-0.8276;
-44.7000;0.0806;-0.8232;
-44.4000;0.0765;-0.8387;
-44.1000;0.0806;-0.8320;
-43.8000;0.0790;-0.8364;
-43.5000;0.0790;-0.8254;
-43.2000;0.0773;-0.8342;
-42.9000;0.0806;-0.8276;
-42.6000;0.0806;-0.8187;
-42.3000;0.0781;-0.8165;
-42.0000;0.0676;-0.8387;
-41.7000;0.0798;-0.8121;
-41.4000;0.0741;-0.8276;
-41.1000;0.0806;-0.8033;
-40.8000;0.0798;-0.8033;
-40.5000;0.0781;-0.8165;
-40.2000;0.0814;-0.8143;
-39.9000;0.0757;-0.8276;
-39.6000;0.0773;-0.8276;
-39.3000;0.0806;-0.8143;
-39.0000;0.0773;-0.8254;
-38.7000;0.0765;-0.8298;
-38.4000;0.0855;-0.7988;
-38.1000;0.0806;-0.8099;
-37.8000;0.0814;-0.8055;
-37.5000;0.0790;-0.8165;
-37.2000;0.0790;-0.8210;
-36.9000;0.0830;-0.8055;
-36.6000;0.0781;-0.8187;
-36.3000;0.0790;-0.8165;
-36.0000;0.0806;-0.8165;
-35.7000;0.0790;-0.8143;
-35.4000;0.0790;-0.8165;
-35.1000;0.0814;-0.8143;
-34.8000;0.0822;-0.8232;
-34.5000;0.0773;-0.8387;
-34.2000;0.0863;-0.8143;
-33.9000;0.0773;-0.8387;
-33.6000;0.0676;-0.8674;
-33.3000;0.0733;-0.8564;
-33.0000;0.0773;-0.8453;
-32.7000;0.0757;-0.8431;
-32.4000;0.0781;-0.8276;
-32.1000;0.0830;-0.8165;
-31.8000;0.0806;-0.8232;
-31.5000;0.0790;-0.8276;
-31.2000;0.0790;-0.8342;
-30.9000;0.0773;-0.8276;
-30.6000;0.0798;-0.8210;
-30.3000;0.0773;-0.8143;
-30.0000;0.0798;-0.8077;
-29.7000;0.0733;-0.8232;
-29.4000;0.0806;-0.8143;
-29.1000;0.0733;-0.8276;
-28.8000;0.0733;-0.8342;
-28.5000;0.0781;-0.8232;
-28.2000;0.0790;-0.8210;
-27.9000;0.0733;-0.8364;
-27.6000;0.0765;-0.8276;
-27.3000;0.0749;-0.8342;
-27.0000;0.0790;-0.8320;
-26.7000;0.0773;-0.8387;
-26.4000;0.0798;-0.8298;
-26.1000;0.0871;-0.8077;
-25.8000;0.0724;-0.8431;
-25.5000;0.0773;-0.8409;
-25.2000;0.0781;-0.8364;
-24.9000;0.0790;-0.8298;
-24.6000;0.0773;-0.8232;
-24.3000;0.0773;-0.8232;
-24.0000;0.0822;-0.8121;
-23.7000;0.0765;-0.8320;
-23.4000;0.0798;-0.8210;
-23.1000;0.0781;-0.8254;
-22.8000;0.0798;-0.8232;
-22.5000;0.0765;-0.8232;
-22.2000;0.0806;-0.8187;
-21.9000;0.0790;-0.8187;
-21.6000;0.0790;-0.8055;
-21.3000;0.0790;-0.8033;
-21.0000;0.0790;-0.7988;
-20.7000;0.0781;-0.8033;
-20.4000;0.0798;-0.7966;
-20.1000;0.0798;-0.8033;
-19.8000;0.0692;-0.8254;
-19.5000;0.0733;-0.8143;
-19.2000;0.0757;-0.8033;
-18.9000;0.0863;-0.7789;
-18.6000;0.0781;-0.8077;
-18.3000;0.0773;-0.8232;
-18.0000;0.0863;-0.8099;
-17.7000;0.0765;-0.8364;
-17.4000;0.0773;-0.8298;
-17.1000;0.0863;-0.8077;
-16.8000;0.0806;-0.8276;
-16.5000;0.0757;-0.8431;
-16.2000;0.0757;-0.8519;
-15.9000;0.0781;-0.8409;
-15.6000;0.0798;-0.8320;
-15.3000;0.0651;-0.8674;
-15.0000;0.0806;-0.8210;
-14.7000;0.0798;-0.8210;
-14.4000;0.0855;-0.7988;
-14.1000;0.0790;-0.8210;
-13.8000;0.0814;-0.8099;
-13.5000;0.0757;-0.8165;
-13.2000;0.0773;-0.8121;
-12.9000;0.0790;-0.8143;
-12.6000;0.0757;-0.8254;
-12.3000;0.0822;-0.8121;
-12.0000;0.0790;-0.8254;
-11.7000;0.0814;-0.8165;
-11.4000;0.0798;-0.8187;
-11.1000;0.0716;-0.8431;
-10.8000;0.0765;-0.8298;
-10.5000;0.0773;-0.8165;
-10.2000;0.0741;-0.8254;
-9.9000;0.0798;-0.8033;
-9.6000;0.0798;-0.8010;
-9.3000;0.0798;-0.7944;
-9.0000;0.0798;-0.8010;
-8.7000;0.0733;-0.8210;
-8.4000;0.0773;-0.8121;
-8.1000;0.0773;-0.8143;
-7.8000;0.0798;-0.8099;
-7.5000;0.0749;-0.8210;
-7.2000;0.0757;-0.8187;
-6.9000;0.0822;-0.8121;
-6.6000;0.0765;-0.8232;
-6.3000;0.0765;-0.8232;
-6.0000;0.0798;-0.8187;
-5.7000;0.0781;-0.8187;
-5.4000;0.0790;-0.8143;
-5.1000;0.0757;-0.8077;
-4.8000;0.0773;-0.7966;
-4.5000;0.0773;-0.7900;
-4.2000;0.0798;-0.7922;
-3.9000;0.0798;-0.7988;
-3.6000;0.0781;-0.7988;
-3.3000;0.0781;-0.7988;
-3.0000;0.0790;-0.8055;
-2.7000;0.0773;-0.8055;
-2.4000;0.0773;-0.7966;
-2.1000;0.0781;-0.7878;
-1.8000;0.0806;-0.7833;
-1.5000;0.0806;-0.7811;
-1.2000;0.0765;-0.7878;
-0.9000;0.0773;-0.7878;
-0.6000;0.0798;-0.7944;
-0.3000;0.0781;-0.7966;
0.0000;0.0781;-0.7966;
0.3000;0.0724;-0.8497;
0.6000;0.0887;-0.8077;
0.9000;0.0781;-0.8165;
1.2000;0.0806;-0.7944;
1.5000;0.0838;-0.7789;
1.8000;0.0822;-0.7789;
2.1000;0.0830;-0.7678;
2.4000;0.0838;-0.7634;
2.7000;0.0863;-0.7590;
3.0000;0.0798;-0.7590;
3.3000;0.0855;-0.7457;
3.6000;0.0855;-0.7391;
3.9000;0.0838;-0.7347;
4.2000;0.0765;-0.7413;
4.5000;0.0863;-0.7147;
4.8000;0.0847;-0.7192;
5.1000;0.0855;-0.7103;
5.4000;0.0855;-0.7103;
5.7000;0.0855;-0.7081;
6.0000;0.0847;-0.7125;
6.3000;0.0863;-0.7037;
6.6000;0.0847;-0.7170;
6.9000;0.0855;-0.7125;
7.2000;0.0847;-0.7081;
7.5000;0.0838;-0.7015;
7.8000;0.0838;-0.7081;
8.1000;0.0863;-0.7125;
8.4000;0.0847;-0.7147;
8.7000;0.0871;-0.7125;
9.0000;0.0879;-0.7170;
9.3000;0.0863;-0.7236;
9.6000;0.0798;-0.7369;
9.9000;0.0847;-0.7236;
10.2000;0.0871;-0.7192;
10.5000;0.0847;-0.7302;
10.8000;0.0871;-0.7192;
11.1000;0.0871;-0.7192;
11.4000;0.0863;-0.7192;
11.7000;0.0879;-0.7103;
12.0000;0.0887;-0.7081;
12.3000;0.0871;-0.7081;
12.6000;0.0863;-0.7170;
12.9000;0.0830;-0.7324;
13.2000;0.0863;-0.7236;
13.5000;0.0871;-0.7192;
13.8000;0.0847;-0.7147;
14.1000;0.0863;-0.7125;
14.4000;0.0871;-0.7081;
14.7000;0.0871;-0.7059;
15.0000;0.0863;-0.7103;
15.3000;0.0855;-0.7125;
15.6000;0.0871;-0.7015;
15.9000;0.0887;-0.6926;
16.2000;0.0871;-0.7015;
16.5000;0.0863;-0.7015;
16.8000;0.0879;-0.6926;
17.1000;0.0887;-0.7015;
17.4000;0.0863;-0.7081;
17.7000;0.0871;-0.7081;
18.0000;0.0838;-0.7192;
18.3000;0.0863;-0.7192;
18.6000;0.0895;-0.7081;
18.9000;0.0847;-0.7125;
19.2000;0.0855;-0.7125;
19.5000;0.0871;-0.6992;
19.8000;0.0879;-0.6904;
20.1000;0.0863;-0.6992;
20.4000;0.0855;-0.7103;
20.7000;0.0838;-0.7125;
21.0000;0.0871;-0.7059;
21.3000;0.0887;-0.7037;
21.6000;0.0871;-0.7103;
21.9000;0.0855;-0.7081;
22.2000;0.0855;-0.7125;
22.5000;0.0871;-0.7081;
22.8000;0.0855;-0.7059;
23.1000;0.0871;-0.7015;
23.4000;0.0863;-0.6992;
23.7000;0.0871;-0.6948;
24.0000;0.0871;-0.7015;
24.3000;0.0855;-0.7059;
24.6000;0.0871;-0.7037;
24.9000;0.0904;-0.6904;
25.2000;0.0830;-0.7125;
25.5000;0.0863;-0.7015;
25.8000;0.0879;-0.7059;
26.1000;0.0887;-0.7037;
26.4000;0.0855;-0.7059;
26.7000;0.0879;-0.6970;
27.0000;0.0912;-0.6970;
27.3000;0.0879;-0.7103;
27.6000;0.0879;-0.7103;
27.9000;0.0855;-0.7103;
28.2000;0.0798;-0.7280;
28.5000;0.0855;-0.7147;
28.8000;0.0863;-0.7081;
29.1000;0.0936;-0.6793;
29.4000;0.0806;-0.6992;
29.7000;0.0887;-0.6771;
30.0000;0.0863;-0.6882;
30.3000;0.0790;-0.7081;
30.6000;0.0895;-0.6904;
30.9000;0.0879;-0.6948;
31.2000;0.0863;-0.6992;
31.5000;0.0879;-0.6948;
31.8000;0.0904;-0.6948;
32.1000;0.0879;-0.6904;
32.4000;0.0871;-0.6926;
32.7000;0.0887;-0.6882;
33.0000;0.0879;-0.6948;
33.3000;0.0936;-0.6793;
33.6000;0.0879;-0.6970;
33.9000;0.0879;-0.6992;
34.2000;0.0887;-0.6926;
34.5000;0.0887;-0.6970;
34.8000;0.0887;-0.6992;
35.1000;0.0863;-0.7147;
35.4000;0.0863;-0.7059;
35.7000;0.0879;-0.7037;
36.0000;0.0863;-0.7081;
36.3000;0.0855;-0.7059;
36.6000;0.0887;-0.6970;
36.9000;0.0871;-0.7059;
37.2000;0.0961;-0.6815;
37.5000;0.0855;-0.7059;
37.8000;0.0879;-0.6970;
38.1000;0.0863;-0.6970;
38.4000;0.0871;-0.6970;
38.7000;0.0855;-0.7059;
39.0000;0.0863;-0.7125;
39.3000;0.0855;-0.7059;
39.6000;0.0855;-0.7081;
39.9000;0.0871;-0.7170;
40.2000;0.0912;-0.7147;
40.5000;0.0847;-0.7214;
40.8000;0.0855;-0.7147;
41.1000;0.0912;-0.6992;
41.4000;0.0871;-0.7059;
41.7000;0.0855;-0.6992;
42.0000;0.0879;-0.6992;
42.3000;0.0895;-0.6970;
42.6000;0.0879;-0.6948;
42.9000;0.0871;-0.6970;
43.2000;0.0855;-0.6992;
43.5000;0.0920;-0.6882;
43.8000;0.0855;-0.7170;
44.1000;0.0863;-0.7147;
44.4000;0.0879;-0.7015;
44.7000;0.0863;-0.7059;
45.0000;0.0855;-0.7059;
45.3000;0.0904;-0.6992;
45.6000;0.0863;-0.7103;
45.9000;0.0855;-0.7059;
46.2000;0.0895;-0.6992;
46.5000;0.1001;-0.6683;
46.8000;0.0863;-0.7059;
47.1000;0.0871;-0.7125;
47.4000;0.0904;-0.7081;
47.7000;0.0871;-0.7125;
48.0000;0.0855;-0.7147;
48.3000;0.0895;-0.7015;
48.6000;0.0863;-0.7103;
48.9000;0.0871;-0.7037;
49.2000;0.0887;-0.6970;
49.5000;0.0920;-0.6882;
49.8000;0.0871;-0.7037;
50.1000;0.0879;-0.6992;
50.4000;0.0871;-0.6926;
50.7000;0.0871;-0.6970;
51.0000;0.0855;-0.7037;
51.3000;0.0895;-0.6882;
51.6000;0.0879;-0.6926;
51.9000;0.0879;-0.7015;
52.2000;0.0855;-0.7103;
52.5000;0.0830;-0.7147;
52.8000;0.0871;-0.6992;
53.1000;0.0871;-0.7037;
53.4000;0.0871;-0.6948;
53.7000;0.0871;-0.6882;
54.0000;0.0798;-0.7015;
54.3000;0.0871;-0.6838;
54.6000;0.0863;-0.6815;
54.9000;0.0871;-0.6838;
55.2000;0.0887;-0.6838;
55.5000;0.0879;-0.6904;
55.8000;0.0895;-0.6926;
56.1000;0.0773;-0.7236;
56.4000;0.0879;-0.7015;
56.7000;0.0879;-0.7037;
57.0000;0.0879;-0.7037;
57.3000;0.0871;-0.7015;
57.6000;0.0863;-0.7037;
57.9000;0.0879;-0.6948;
58.2000;0.0871;-0.6926;
58.5000;0.0863;-0.6948;
58.8000;0.0871;-0.6970;
59.1000;0.0855;-0.6970;
59.4000;0.0838;-0.7015;
59.7000;0.0838;-0.7059;
60.0000;0.0847;-0.7081;
60.3000;0.0871;-0.7059;
60.6000;0.0871;-0.7103;
60.9000;0.0871;-0.7103;
61.2000;0.0790;-0.7391;
61.5000;0.0863;-0.7236;
61.8000;0.0887;-0.7258;
62.1000;0.0847;-0.7413;
62.4000;0.0847;-0.7413;
62.7000;0.0879;-0.7324;
63.0000;0.0895;-0.7347;
63.3000;0.0871;-0.7369;
63.6000;0.0855;-0.7479;
63.9000;0.0879;-0.7369;
64.2000;0.0879;-0.7347;
64.5000;0.0863;-0.7302;
64.8000;0.0871;-0.7391;
65.1000;0.0879;-0.7457;
65.4000;0.0871;-0.7479;
65.7000;0.0879;-0.7435;
66.0000;0.0830;-0.7391;
66.3000;0.0863;-0.7280;
66.6000;0.0879;-0.7192;
66.9000;0.0879;-0.7147;
67.2000;0.0912;-0.7103;
67.5000;0.0855;-0.7258;
67.8000;0.0887;-0.7170;
68.1000;0.0863;-0.7258;
68.4000;0.0863;-0.7280;
68.7000;0.0855;-0.7347;
69.0000;0.0863;-0.7347;
69.3000;0.0879;-0.7236;
69.6000;0.0936;-0.7037;
69.9000;0.0790;-0.7347;
70.2000;0.0847;-0.7192;
70.5000;0.0838;-0.7214;
70.8000;0.0895;-0.7081;
71.1000;0.0895;-0.7037;
71.4000;0.0879;-0.7147;
71.7000;0.0895;-0.7170;
72.0000;0.0847;-0.7280;
72.3000;0.0920;-0.7192;
72.6000;0.0863;-0.7258;
72.9000;0.0928;-0.7103;
73.2000;0.0895;-0.7214;
73.5000;0.0871;-0.7302;
73.8000;0.0920;-0.7170;
74.1000;0.0855;-0.7280;
74.4000;0.0887;-0.7170;
74.7000;0.0838;-0.7302;
75.0000;0.0895;-0.7214;
75.3000;0.0814;-0.7369;
75.6000;0.0904;-0.7192;
75.9000;0.0855;-0.7369;
76.2000;0.0879;-0.7258;
76.5000;0.0895;-0.7369;
76.8000;0.0904;-0.7391;
77.1000;0.0887;-0.7413;
77.4000;0.0879;-0.7413;
77.7000;0.0887;-0.7435;
78.0000;0.0895;-0.7391;
78.3000;0.0871;-0.7347;
78.6000;0.0855;-0.7391;
78.9000;0.0879;-0.7347;
79.2000;0.0887;-0.7302;
79.5000;0.0879;-0.7324;
79.8000;0.0904;-0.7280;
80.1000;0.0887;-0.7236;
80.4000;0.0887;-0.7170;
80.7000;0.0887;-0.7081;
81.0000;0.0887;-0.7170;
81.3000;0.0863;-0.7214;
81.6000;0.0904;-0.7214;
81.9000;0.0895;-0.7258;
82.2000;0.0912;-0.7192;
82.5000;0.0863;-0.7324;
82.8000;0.0855;-0.7302;
83.1000;0.0879;-0.7280;
83.4000;0.0871;-0.7302;
83.7000;0.0863;-0.7192;
84.0000;0.0855;-0.7214;
84.3000;0.0879;-0.7170;
84.6000;0.0863;-0.7147;
84.9000;0.0847;-0.7170;
85.2000;0.0863;-0.7214;
85.5000;0.0904;-0.7147;
85.8000;0.0895;-0.7192;
86.1000;0.0887;-0.7280;
86.4000;0.0887;-0.7369;
86.7000;0.0895;-0.7324;
87.0000;0.0952;-0.7125;
87.3000;0.0904;-0.7170;
87.6000;0.0887;-0.7192;
87.9000;0.0855;-0.7214;
88.2000;0.0887;-0.7059;
88.5000;0.0904;-0.7037;
88.8000;0.0847;-0.7214;
89.1000;0.0863;-0.7170;
89.4000;0.0879;-0.7170;
89.7000;0.0871;-0.7125;
90.0000;0.0904;-0.7037;
90.3000;0.0887;-0.7081;
90.6000;0.0847;-0.7214;
90.9000;0.0871;-0.7214;
91.2000;0.0855;-0.7214;
91.5000;0.0895;-0.7192;
91.8000;0.0863;-0.7302;
92.1000;0.0871;-0.7236;
92.4000;0.0871;-0.7280;
92.7000;0.0871;-0.7302;
93.0000;0.0879;-0.7280;
93.3000;0.0912;-0.7258;
93.6000;0.0904;-0.7258;
93.9000;0.0879;-0.7324;
94.2000;0.0879;-0.7302;
94.5000;0.0887;-0.7280;
94.8000;0.0863;-0.7369;
95.1000;0.0855;-0.7369;
95.4000;0.0838;-0.7302;
95.7000;0.0895;-0.7214;
96.0000;0.0838;-0.7347;
96.3000;0.0773;-0.7524;
96.6000;0.0855;-0.7302;
96.9000;0.0952;-0.7037;
97.2000;0.0904;-0.7103;
97.5000;0.0814;-0.7413;
97.8000;0.0879;-0.7347;
98.1000;0.0879;-0.7347;
98.4000;0.0781;-0.7501;
98.7000;0.0871;-0.7302;
99.0000;0.0781;-0.7479;
99.3000;0.0863;-0.7236;
99.6000;0.0871;-0.7192;
99.9000;0.0879;-0.7103;
100.2000;0.0855;-0.7258;
100.5000;0.0879;-0.7147;
100.8000;0.0822;-0.7258;
101.1000;0.0879;-0.7081;
101.4000;0.0838;-0.7192;
101.7000;0.0895;-0.7081;
102.0000;0.0871;-0.7125;
102.3000;0.0912;-0.7147;
102.6000;0.0895;-0.7170;
102.9000;0.0855;-0.7236;
103.2000;0.0887;-0.7236;
103.5000;0.0871;-0.7236;
103.8000;0.0912;-0.7147;
104.1000;0.0863;-0.7236;
104.4000;0.0863;-0.7170;
104.7000;0.0879;-0.7125;
105.0000;0.0863;-0.7147;
105.3000;0.0887;-0.7081;
105.6000;0.0855;-0.7170;
105.9000;0.0879;-0.7103;
106.2000;0.0879;-0.7037;
106.5000;0.0855;-0.7192;
106.8000;0.0847;-0.7170;
107.1000;0.0879;-0.7081;
107.4000;0.0879;-0.7037;
107.7000;0.0871;-0.7015;
108.0000;0.0895;-0.6970;
108.3000;0.0895;-0.6992;
108.6000;0.0863;-0.7192;
108.9000;0.0895;-0.7214;
109.2000;0.0985;-0.6948;
109.5000;0.0879;-0.7214;
109.8000;0.0871;-0.7125;
110.1000;0.0871;-0.7170;
110.4000;0.0887;-0.7170;
110.7000;0.0895;-0.7192;
111.0000;0.0887;-0.7258;
111.3000;0.0952;-0.7125;
111.6000;0.0822;-0.7479;
111.9000;0.0871;-0.7347;
112.2000;0.0912;-0.7280;
112.5000;0.0912;-0.7302;
112.8000;0.0863;-0.7280;
113.1000;0.0879;-0.7192;
113.4000;0.0879;-0.7192;
113.7000;0.0887;-0.7147;
114.0000;0.0871;-0.7125;
114.3000;0.0863;-0.7125;
114.6000;0.0912;-0.7059;
114.9000;0.0904;-0.7125;
115.2000;0.0895;-0.7147;
115.5000;0.0871;-0.7236;
115.8000;0.0920;-0.7236;
116.1000;0.0879;-0.7413;
116.4000;0.0863;-0.7413;
116.7000;0.0920;-0.7302;
117.0000;0.0879;-0.7457;
117.3000;0.0879;-0.7546;
117.6000;0.0895;-0.7413;
117.9000;0.0871;-0.7413;
118.2000;0.0855;-0.7369;
118.5000;0.0855;-0.7302;
118.8000;0.0879;-0.7324;
119.1000;0.0936;-0.7147;
119.4000;0.0863;-0.7413;
119.7000;0.0887;-0.7413;
120.0000;0.0887;-0.7479;
120.3000;0.0895;-0.7435;
120.6000;0.0887;-0.7391;
120.9000;0.0765;-0.7634;
121.2000;0.0879;-0.7391;
121.5000;0.0847;-0.7457;
121.8000;0.0928;-0.7170;
122.1000;0.0871;-0.7236;
122.4000;0.0936;-0.7125;
122.7000;0.0879;-0.7324;
123.0000;0.0871;-0.7347;
123.3000;0.0863;-0.7391;
123.6000;0.0904;-0.7302;
123.9000;0.0879;-0.7324;
124.2000;0.0855;-0.7369;
124.5000;0.0863;-0.7280;
124.8000;0.0904;-0.7192;
125.1000;0.0879;-0.7236;
125.4000;0.0887;-0.7192;
125.7000;0.0822;-0.7324;
126.0000;0.0895;-0.7147;
126.3000;0.0887;-0.7147;
126.6000;0.0871;-0.7103;
126.9000;0.0855;-0.7125;
127.2000;0.0895;-0.6992;
127.5000;0.0879;-0.7081;
127.8000;0.0863;-0.7214;
128.1000;0.0749;-0.7546;
128.4000;0.0847;-0.7258;
128.7000;0.0904;-0.7192;
129.0000;0.0879;-0.7302;
129.3000;0.0855;-0.7457;
129.6000;0.0863;-0.7435;
129.9000;0.0871;-0.7347;
130.2000;0.0871;-0.7258;
130.5000;0.0887;-0.7258;
130.8000;0.0879;-0.7236;
131.1000;0.0871;-0.7192;
131.4000;0.0904;-0.7125;
131.7000;0.0871;-0.7170;
132.0000;0.0863;-0.7258;
132.3000;0.0822;-0.7369;
132.6000;0.0879;-0.7280;
132.9000;0.0904;-0.7192;
133.2000;0.0871;-0.7147;
133.5000;0.0855;-0.7147;
133.8000;0.0871;-0.7059;
134.1000;0.0879;-0.7081;
134.4000;0.0879;-0.7103;
134.7000;0.0847;-0.7192;
135.0000;0.0871;-0.7125;
135.3000;0.0879;-0.7103;
135.6000;0.0904;-0.6992;
135.9000;0.0887;-0.7081;
136.2000;0.0879;-0.7103;
136.5000;0.0993;-0.6749;
136.8000;0.0887;-0.6970;
137.1000;0.0887;-0.7015;
137.4000;0.0855;-0.7059;
137.7000;0.0879;-0.6970;
138.0000;0.0887;-0.6926;
138.3000;0.0879;-0.6926;
138.6000;0.0887;-0.7015;
138.9000;0.0871;-0.7081;
139.2000;0.0879;-0.7103;
139.5000;0.0855;-0.7236;
139.8000;0.0879;-0.7258;
140.1000;0.0863;-0.7302;
140.4000;0.0855;-0.7324;
140.7000;0.0952;-0.7125;
141.0000;0.0863;-0.7302;
141.3000;0.0879;-0.7258;
141.6000;0.0879;-0.7103;
141.9000;0.0887;-0.7081;
142.2000;0.0855;-0.7214;
142.5000;0.0847;-0.7214;
142.8000;0.0895;-0.7059;
143.1000;0.0814;-0.7347;
143.4000;0.0814;-0.7280;
143.7000;0.0871;-0.7147;
144.0000;0.0806;-0.7369;
144.3000;0.0863;-0.7236;
144.6000;0.0887;-0.7125;
144.9000;0.0871;-0.7214;
145.2000;0.0879;-0.7147;
145.5000;0.0879;-0.7081;
145.8000;0.0887;-0.7147;
146.1000;0.1050;-0.6683;
146.4000;0.0969;-0.6948;
146.7000;0.0781;-0.7324;
147.0000;0.0887;-0.7037;
147.3000;0.0871;-0.7015;
147.6000;0.0887;-0.7037;
147.9000;0.0887;-0.6992;
148.2000;0.0871;-0.7059;
148.5000;0.0871;-0.7103;
148.8000;0.0871;-0.7192;
149.1000;0.0879;-0.7103;
149.4000;0.0887;-0.7059;
149.7000;0.0887;-0.7103;
150.0000;0.0977;-0.6992;
150.3000;0.0895;-0.7192;
150.6000;0.0895;-0.7214;
150.9000;0.0871;-0.7192;
151.2000;0.0879;-0.7214;
151.5000;0.0847;-0.7302;
151.8000;0.0863;-0.7280;
152.1000;0.0879;-0.7280;
152.4000;0.0879;-0.7236;
152.7000;0.0887;-0.7170;
153.0000;0.0879;-0.7170;
153.3000;0.0822;-0.7302;
153.6000;0.0855;-0.7192;
153.9000;0.0879;-0.7147;
154.2000;0.0871;-0.7125;
154.5000;0.0863;-0.7103;
154.8000;0.0879;-0.7103;
155.1000;0.0871;-0.7125;
155.4000;0.0887;-0.7147;
155.7000;0.0871;-0.7147;
156.0000;0.0847;-0.7170;
156.3000;0.0863;-0.7147;
156.6000;0.0887;-0.7170;
156.9000;0.0887;-0.7125;
157.2000;0.0887;-0.7170;
157.5000;0.0855;-0.7236;
157.8000;0.0871;-0.7258;
158.1000;0.0928;-0.6992;
158.4000;0.0879;-0.7103;
158.7000;0.0847;-0.7236;
159.0000;0.0863;-0.7147;
159.3000;0.0879;-0.7192;
159.6000;0.0814;-0.7413;
159.9000;0.0863;-0.7302;
160.2000;0.0855;-0.7280;
160.5000;0.0871;-0.7280;
160.8000;0.0895;-0.7170;
161.1000;0.0887;-0.7214;
161.4000;0.0879;-0.7214;
161.7000;0.0887;-0.7170;
162.0000;0.0879;-0.7170;
162.3000;0.0895;-0.7236;
162.6000;0.0871;-0.7324;
162.9000;0.0847;-0.7413;
163.2000;0.0969;-0.7015;
163.5000;0.0936;-0.7059;
163.8000;0.0847;-0.7258;
164.1000;0.0863;-0.7236;
164.4000;0.0879;-0.7192;
164.7000;0.0830;-0.7347;
165.0000;0.0855;-0.7214;
165.3000;0.0871;-0.7125;
165.6000;0.0904;-0.6992;
165.9000;0.0806;-0.7170;
166.2000;0.0879;-0.7015;
166.5000;0.0855;-0.7103;
166.8000;0.0928;-0.6948;
167.1000;0.0871;-0.7037;
167.4000;0.0985;-0.6749;
167.7000;0.0879;-0.7037;
168.0000;0.0895;-0.7103;
168.3000;0.0830;-0.7170;
168.6000;0.0887;-0.7103;
168.9000;0.0855;-0.7125;
169.2000;0.0904;-0.6992;
169.5000;0.0936;-0.6970;
169.8000;0.0871;-0.7081;
170.1000;0.0855;-0.7081;
170.4000;0.0871;-0.7103;
170.7000;0.0855;-0.7147;
171.0000;0.0895;-0.7037;
171.3000;0.0944;-0.7015;
171.6000;0.0904;-0.7236;
171.9000;0.0977;-0.7103;
172.2000;0.0855;-0.7369;
172.5000;0.0871;-0.7302;
172.8000;0.0871;-0.7324;
173.1000;0.0863;-0.7369;
173.4000;0.0847;-0.7391;
173.7000;0.0904;-0.7192;
174.0000;0.0912;-0.7125;
174.3000;0.0887;-0.7302;
174.6000;0.0871;-0.7347;
174.9000;0.0887;-0.7302;
175.2000;0.0847;-0.7479;
175.5000;0.0871;-0.7435;
175.8000;0.0847;-0.7457;
176.1000;0.0814;-0.7457;
176.4000;0.0863;-0.7369;
176.7000;0.0912;-0.7280;
177.0000;0.0863;-0.7457;
177.3000;0.0887;-0.7413;
177.6000;0.0887;-0.7413;
177.9000;0.0936;-0.7302;
178.2000;0.0895;-0.7369;
178.5000;0.0879;-0.7369;
178.8000;0.0879;-0.7347;
179.1000;0.0879;-0.7347;
179.4000;0.0871;-0.7347;
179.7000;0.0871;-0.7413;
180.0000;0.0895;-0.7302;
180.3000;0.0887;-0.7324;
180.6000;0.0871;-0.7413;
180.9000;0.0855;-0.7413;
181.2000;0.0887;-0.7280;
181.5000;0.0895;-0.7170;
181.8000;0.0887;-0.7214;
182.1000;0.0814;-0.7324;
182.4000;0.0871;-0.7147;
182.7000;0.0904;-0.7037;
183.0000;0.0871;-0.7103;
183.3000;0.0879;-0.7059;
183.6000;0.0887;-0.7081;
183.9000;0.0895;-0.7015;
184.2000;0.0879;-0.6992;
184.5000;0.0871;-0.6992;
184.8000;0.0863;-0.7037;
185.1000;0.0814;-0.7147;
185.4000;0.0879;-0.7081;
185.7000;0.0871;-0.7147;
186.0000;0.0895;-0.7059;
186.3000;0.0895;-0.6992;
186.6000;0.0895;-0.7081;
186.9000;0.0887;-0.7081;
187.2000;0.0920;-0.7037;
187.5000;0.0863;-0.7125;
187.8000;0.0855;-0.7081;
188.1000;0.0904;-0.6926;
188.4000;0.0887;-0.6904;
188.7000;0.0773;-0.7170;
189.0000;0.0830;-0.7103;
189.3000;0.0871;-0.6992;
189.6000;0.0879;-0.6948;
189.9000;0.0871;-0.7081;
190.2000;0.0895;-0.7081;
190.5000;0.0887;-0.7015;
190.8000;0.0887;-0.6926;
191.1000;0.0847;-0.7015;
191.4000;0.0895;-0.6926;
191.7000;0.0895;-0.6992;
192.0000;0.0879;-0.7015;
192.3000;0.0887;-0.7147;
192.6000;0.0863;-0.7170;
192.9000;0.0847;-0.7103;
193.2000;0.1009;-0.6683;
193.5000;0.0895;-0.6904;
193.8000;0.0838;-0.6992;
194.1000;0.0895;-0.6882;
194.4000;0.0871;-0.7015;
194.7000;0.0724;-0.7302;
195.0000;0.0830;-0.7147;
195.3000;0.0952;-0.6838;
195.6000;0.0928;-0.6860;
195.9000;0.0847;-0.7059;
196.2000;0.0895;-0.6882;
196.5000;0.0904;-0.6860;
196.8000;0.0806;-0.7125;
197.1000;0.0879;-0.7059;
197.4000;0.0887;-0.7059;
197.7000;0.0822;-0.7125;
198.0000;0.0887;-0.6926;
198.3000;0.0871;-0.7037;
198.6000;0.0855;-0.7081;
198.9000;0.0879;-0.7147;
199.2000;0.0863;-0.7192;
199.5000;0.0879;-0.7170;
199.8000;0.0855;-0.7147;
200.1000;0.0887;-0.7103;
200.4000;0.0871;-0.7037;
200.7000;0.0871;-0.6970;
201.0000;0.0765;-0.7214;
201.3000;0.0887;-0.6926;
201.6000;0.0887;-0.6948;
201.9000;0.0838;-0.7059;
202.2000;0.0863;-0.7059;
202.5000;0.0887;-0.6970;
202.8000;0.0879;-0.7037;
203.1000;0.0855;-0.7236;
203.4000;0.0879;-0.7280;
203.7000;0.0855;-0.7413;
204.0000;0.0887;-0.7391;
204.3000;0.0847;-0.7501;
204.6000;0.0855;-0.7501;
204.9000;0.0904;-0.7457;
205.2000;0.0863;-0.7479;
205.5000;0.0895;-0.7369;
205.8000;0.0871;-0.7413;
206.1000;0.0895;-0.7369;
206.4000;0.0920;-0.7214;
206.7000;0.0904;-0.7258;
207.0000;0.0895;-0.7280;
207.3000;0.0895;-0.7302;
207.6000;0.0904;-0.7302;
207.9000;0.0871;-0.7391;
208.2000;0.0952;-0.7258;
208.5000;0.0871;-0.7501;
208.8000;0.0904;-0.7457;
209.1000;0.0879;-0.7524;
209.4000;0.0879;-0.7590;
209.7000;0.0773;-0.7833;
210.0000;0.0879;-0.7524;
210.3000;0.0887;-0.7479;
210.6000;0.0863;-0.7413;
210.9000;0.0863;-0.7302;
211.2000;0.0879;-0.7170;
211.5000;0.0887;-0.7125;
211.8000;0.0757;-0.7347;
212.1000;0.0887;-0.7147;
212.4000;0.0871;-0.7103;
212.7000;0.0904;-0.7037;
213.0000;0.0904;-0.7081;
213.3000;0.1050;-0.6661;
213.6000;0.0863;-0.7081;
213.9000;0.0944;-0.6970;
214.2000;0.0790;-0.7302;
214.5000;0.0952;-0.7015;
214.8000;0.0887;-0.7214;
215.1000;0.0904;-0.7103;
215.4000;0.0879;-0.7081;
215.7000;0.0887;-0.7103;
216.0000;0.0871;-0.7170;
216.3000;0.0773;-0.7479;
216.6000;0.0855;-0.7302;
216.9000;0.0871;-0.7236;
217.2000;0.0798;-0.7391;
217.5000;0.0871;-0.7280;
217.8000;0.0863;-0.7324;
218.1000;0.0863;-0.7347;
218.4000;0.0879;-0.7324;
218.7000;0.0879;-0.7302;
219.0000;0.0928;-0.7147;
219.3000;0.0871;-0.7192;
219.6000;0.0936;-0.7015;
219.9000;0.0822;-0.7280;
220.2000;0.0871;-0.7192;
220.5000;0.0879;-0.7302;
220.8000;0.0887;-0.7236;
221.1000;0.0863;-0.7369;
221.4000;0.0904;-0.7280;
221.7000;0.0928;-0.7236;
222.0000;0.0879;-0.7347;
222.3000;0.0855;-0.7369;
222.6000;0.0879;-0.7302;
222.9000;0.0871;-0.7369;
223.2000;0.0847;-0.7369;
223.5000;0.0847;-0.7302;
223.8000;0.0920;-0.7170;
224.1000;0.1042;-0.6970;
224.4000;0.0879;-0.7258;
224.7000;0.0871;-0.7280;
225.0000;0.0871;-0.7302;
225.3000;0.0879;-0.7302;
225.6000;0.0895;-0.7302;
225.9000;0.0855;-0.7435;
226.2000;0.0806;-0.7501;
226.5000;0.0879;-0.7324;
226.8000;0.0863;-0.7324;
227.1000;0.0961;-0.7015;
227.4000;0.0871;-0.7125;
227.7000;0.0920;-0.6970;
228.0000;0.0904;-0.7103;
228.3000;0.0887;-0.7214;
228.6000;0.0871;-0.7280;
228.9000;0.0830;-0.7258;
229.2000;0.0879;-0.7170;
229.5000;0.0847;-0.7302;
229.8000;0.0855;-0.7170;
230.1000;0.0871;-0.7192;
230.4000;0.0814;-0.7347;
230.7000;0.0895;-0.7125;
231.0000;0.0855;-0.7347;
231.3000;0.0912;-0.7302;
231.6000;0.0920;-0.7324;
231.9000;0.0912;-0.7324;
232.2000;0.0879;-0.7347;
232.5000;0.0879;-0.7302;
232.8000;0.0887;-0.7236;
233.1000;0.0879;-0.7324;
233.4000;0.0879;-0.7236;
233.7000;0.0961;-0.7015;
234.0000;0.0879;-0.7214;
234.3000;0.0863;-0.7258;
234.6000;0.0871;-0.7192;
234.9000;0.0879;-0.7214;
235.2000;0.0887;-0.7214;
235.5000;0.0879;-0.7170;
235.8000;0.0879;-0.7081;
236.1000;0.0895;-0.7081;
236.4000;0.0847;-0.7192;
236.7000;0.0871;-0.7192;
237.0000;0.0887;-0.7125;
237.3000;0.0838;-0.7214;
237.6000;0.0863;-0.7170;
237.9000;0.0838;-0.7214;
238.2000;0.0879;-0.7147;
238.5000;0.0887;-0.7147;
238.8000;0.0895;-0.7170;
239.1000;0.0895;-0.7125;
239.4000;0.0871;-0.7125;
239.7000;0.0863;-0.7236;
240.0000;0.0912;-0.7103;
240.3000;0.0904;-0.7081;
240.6000;0.0887;-0.7170;
240.9000;0.0887;-0.7147;
241.2000;0.0855;-0.7214;
241.5000;0.0895;-0.7170;
241.8000;0.0863;-0.7236;
242.1000;0.0871;-0.7236;
242.4000;0.0879;-0.7192;
242.7000;0.0863;-0.7302;
243.0000;0.0879;-0.7236;
243.3000;0.0887;-0.7214;
243.6000;0.0887;-0.7236;
243.9000;0.0855;-0.7258;
244.2000;0.0904;-0.7192;
244.5000;0.0863;-0.7192;
244.8000;0.0847;-0.7125;
245.1000;0.0863;-0.7170;
245.4000;0.0855;-0.7214;
245.7000;0.0879;-0.7125;
246.0000;0.0871;-0.7214;
246.3000;0.0863;-0.7258;
246.6000;0.0887;-0.7192;
246.9000;0.0895;-0.7192;
247.2000;0.0879;-0.7192;
247.5000;0.0879;-0.7236;
247.8000;0.0855;-0.7324;
248.1000;0.0879;-0.7258;
248.4000;0.0879;-0.7258;
248.7000;0.0912;-0.7280;
249.0000;0.0912;-0.7391;
249.3000;0.0887;-0.7347;
249.6000;0.0863;-0.7369;
249.9000;0.0895;-0.7258;
250.2000;0.0904;-0.7214;
250.5000;0.0879;-0.7236;
250.8000;0.0847;-0.7347;
251.1000;0.0887;-0.7236;
251.4000;0.0904;-0.7236;
251.7000;0.0863;-0.7369;
252.0000;0.0887;-0.7302;
252.3000;0.0871;-0.7391;
252.6000;0.0863;-0.7457;
252.9000;0.0895;-0.7324;
253.2000;0.0871;-0.7236;
253.5000;0.0838;-0.7324;
253.8000;0.0895;-0.7280;
254.1000;0.0871;-0.7258;
254.4000;0.0871;-0.7170;
254.7000;0.0904;-0.7015;
255.0000;0.0855;-0.7147;
255.3000;0.0863;-0.7103;
255.6000;0.0830;-0.7103;
255.9000;0.0887;-0.6882;
256.2000;0.0871;-0.6948;
256.5000;0.0887;-0.6904;
256.8000;0.0887;-0.7059;
257.1000;0.0847;-0.7147;
257.4000;0.0879;-0.7037;
257.7000;0.0961;-0.6860;
258.0000;0.0887;-0.7059;
258.3000;0.0863;-0.7059;
258.6000;0.0887;-0.7059;
258.9000;0.0879;-0.7037;
259.2000;0.0847;-0.7103;
259.5000;0.0863;-0.7103;
259.8000;0.0879;-0.7170;
260.1000;0.0879;-0.7192;
260.4000;0.0871;-0.7192;
260.7000;0.0879;-0.7147;
261.0000;0.0887;-0.7081;
261.3000;0.0887;-0.7147;
261.6000;0.0895;-0.7103;
261.9000;0.0871;-0.7170;
262.2000;0.0773;-0.7435;
262.5000;0.0887;-0.7258;
262.8000;0.0969;-0.7103;
263.1000;0.0887;-0.7236;
263.4000;0.0887;-0.7280;
263.7000;0.0904;-0.7192;
264.0000;0.0879;-0.7302;
264.3000;0.0879;-0.7103;
264.6000;0.0871;-0.7059;
264.9000;0.0863;-0.7103;
265.2000;0.0855;-0.7103;
265.5000;0.0879;-0.7147;
265.8000;0.0871;-0.7103;
266.1000;0.0887;-0.7037;
266.4000;0.0863;-0.7059;
266.7000;0.0863;-0.7192;
267.0000;0.0863;-0.7236;
267.3000;0.0871;-0.7236;
267.6000;0.0879;-0.7258;
267.9000;0.0895;-0.7192;
268.2000;0.0871;-0.7258;
268.5000;0.0895;-0.7280;
268.8000;0.0912;-0.7258;
269.1000;0.0871;-0.7347;
269.4000;0.0887;-0.7280;
269.7000;0.0879;-0.7369;
270.0000;0.0887;-0.7302;
270.3000;0.0904;-0.7258;
270.6000;0.0871;-0.7302;
270.9000;0.0871;-0.7170;
271.2000;0.0863;-0.7147;
271.5000;0.0879;-0.7103;
271.8000;0.0895;-0.7081;
272.1000;0.0847;-0.7192;
272.4000;0.0863;-0.7147;
272.7000;0.0887;-0.7125;
273.0000;0.0863;-0.7192;
273.3000;0.0879;-0.7170;
273.6000;0.0871;-0.7147;
273.9000;0.0855;-0.7302;
274.2000;0.0863;-0.7280;
274.5000;0.0863;-0.7192;
274.8000;0.0871;-0.7147;
275.1000;0.0855;-0.7192;
275.4000;0.0879;-0.7214;
275.7000;0.0863;-0.7192;
276.0000;0.0871;-0.7170;
276.3000;0.0871;-0.7236;
276.6000;0.0887;-0.7170;
276.9000;0.0871;-0.7302;
277.2000;0.1050;-0.6882;
277.5000;0.0928;-0.7170;
277.8000;0.0928;-0.7214;
278.1000;0.0814;-0.7435;
278.4000;0.0871;-0.7302;
278.7000;0.0952;-0.7103;
279.0000;0.0863;-0.7324;
279.3000;0.0855;-0.7347;
279.6000;0.0814;-0.7413;
279.9000;0.0895;-0.7280;
280.2000;0.0871;-0.7435;
280.5000;0.0879;-0.7369;
280.8000;0.0871;-0.7435;
281.1000;0.0879;-0.7413;
281.4000;0.0822;-0.7546;
281.7000;0.0887;-0.7391;
282.0000;0.0936;-0.7236;
282.3000;0.0855;-0.7479;
282.6000;0.0871;-0.7524;
282.9000;0.0871;-0.7479;
283.2000;0.0887;-0.7435;
283.5000;0.0879;-0.7479;
283.8000;0.0895;-0.7413;
284.1000;0.0887;-0.7435;
284.4000;0.0887;-0.7324;
284.7000;0.0887;-0.7302;
285.0000;0.0879;-0.7347;
285.3000;0.1001;-0.7059;
285.6000;0.0871;-0.7302;
285.9000;0.0879;-0.7280;
286.2000;0.0879;-0.7236;
286.5000;0.0895;-0.7170;
286.8000;0.0879;-0.7302;
287.1000;0.0879;-0.7369;
287.4000;0.0985;-0.7147;
287.7000;0.0838;-0.7479;
288.0000;0.0863;-0.7413;
288.3000;0.0871;-0.7347;
288.6000;0.0895;-0.7302;
288.9000;0.0887;-0.7369;
289.2000;0.0863;-0.7435;
289.5000;0.0847;-0.7524;
289.8000;0.0822;-0.7435;
290.1000;0.0871;-0.7236;
290.4000;0.0830;-0.7347;
290.7000;0.0871;-0.7258;
291.0000;0.0879;-0.7302;
291.3000;0.0879;-0.7280;
291.6000;0.0904;-0.7236;
291.9000;0.0920;-0.7236;
292.2000;0.0887;-0.7369;
292.5000;0.0895;-0.7324;
292.8000;0.0904;-0.7413;
293.1000;0.0863;-0.7457;
293.4000;0.0887;-0.7435;
293.7000;0.0863;-0.7369;
294.0000;0.0871;-0.7324;
294.3000;0.0887;-0.7214;
294.6000;0.0871;-0.7280;
294.9000;0.0855;-0.7413;
295.2000;0.0952;-0.7192;
295.5000;0.0904;-0.7280;
295.8000;0.0871;-0.7347;
296.1000;0.0855;-0.7413;
296.4000;0.0887;-0.7302;
296.7000;0.0895;-0.7192;
297.0000;0.0969;-0.6970;
297.3000;0.0847;-0.7214;
297.6000;0.0887;-0.7147;
297.9000;0.0863;-0.7236;
298.2000;0.0871;-0.7170;
298.5000;0.0847;-0.7125;
298.8000;0.0887;-0.7081;
299.1000;0.0895;-0.7059;
299.4000;0.0855;-0.7125;
299.7000;0.0855;-0.7103;
300.0000;0.0871;-0.7081;
300.3000;0.0887;-0.7081;
300.6000;0.0871;-0.7170;
300.9000;0.0863;-0.7280;
301.2000;0.0863;-0.7258;
301.5000;0.0887;-0.7258;
301.8000;0.0895;-0.7302;
302.1000;0.0855;-0.7457;
302.4000;0.0838;-0.7524;
302.7000;0.0871;-0.7568;
303.0000;0.0871;-0.7524;
303.3000;0.0944;-0.7324;
303.6000;0.0879;-0.7479;
303.9000;0.0871;-0.7413;
304.2000;0.0871;-0.7324;
304.5000;0.0871;-0.7280;
304.8000;0.0879;-0.7192;
305.1000;0.0879;-0.7147;
305.4000;0.0830;-0.7236;
305.7000;0.0814;-0.7192;
306.0000;0.0855;-0.7081;
306.3000;0.0912;-0.6948;
306.6000;0.0887;-0.7037;
306.9000;0.0904;-0.6970;
307.2000;0.0879;-0.7037;
307.5000;0.0855;-0.7103;
307.8000;0.0879;-0.6992;
308.1000;0.0920;-0.6948;
308.4000;0.0879;-0.7059;
308.7000;0.0879;-0.7037;
309.0000;0.0855;-0.7081;
309.3000;0.0790;-0.7147;
309.6000;0.0904;-0.6882;
309.9000;0.0887;-0.6860;
310.2000;0.0855;-0.6860;
310.5000;0.0879;-0.6838;
310.8000;0.0871;-0.6815;
311.1000;0.0871;-0.6771;
311.4000;0.0871;-0.6793;
311.7000;0.0928;-0.6705;
312.0000;0.0871;-0.6904;
312.3000;0.0871;-0.6882;
312.6000;0.0928;-0.6661;
312.9000;0.0904;-0.6771;
313.2000;0.0879;-0.6904;
313.5000;0.0887;-0.6882;
313.8000;0.0733;-0.7280;
314.1000;0.0904;-0.6926;
314.4000;0.0895;-0.6970;
314.7000;0.0863;-0.7081;
315.0000;0.0847;-0.7081;
315.3000;0.0879;-0.6904;
315.6000;0.0806;-0.7059;
315.9000;0.0863;-0.6926;
316.2000;0.0879;-0.6882;
316.5000;0.0879;-0.6860;
316.8000;0.0855;-0.6992;
317.1000;0.0781;-0.7170;
317.4000;0.0879;-0.6970;
317.7000;0.0855;-0.7059;
318.0000;0.0871;-0.7037;
318.3000;0.0879;-0.7015;
318.6000;0.0871;-0.7015;
318.9000;0.0838;-0.7059;
319.2000;0.0887;-0.6948;
319.5000;0.0871;-0.6992;
319.8000;0.0863;-0.6948;
320.1000;0.0871;-0.6948;
320.4000;0.0871;-0.6926;
320.7000;0.0887;-0.6860;
321.0000;0.0879;-0.6838;
321.3000;0.0887;-0.6771;
321.6000;0.0879;-0.6749;
321.9000;0.0912;-0.6638;
322.2000;0.0952;-0.6594;
322.5000;0.0871;-0.6793;
322.8000;0.0879;-0.6838;
323.1000;0.0887;-0.6815;
323.4000;0.0879;-0.6838;
323.7000;0.0912;-0.6793;
324.0000;0.0855;-0.6970;
324.3000;0.0871;-0.7015;
324.6000;0.0895;-0.6926;
324.9000;0.0855;-0.7081;
325.2000;0.0904;-0.7015;
325.5000;0.0879;-0.7081;
325.8000;0.0879;-0.7081;
326.1000;0.0887;-0.7037;
326.4000;0.0928;-0.6793;
326.7000;0.0863;-0.6904;
327.0000;0.0871;-0.6948;
327.3000;0.0895;-0.6882;
327.6000;0.0855;-0.6970;
327.9000;0.0871;-0.6948;
328.2000;0.0871;-0.6948;
328.5000;0.0871;-0.7059;
328.8000;0.0781;-0.7170;
329.1000;0.0847;-0.6948;
329.4000;0.0895;-0.6904;
329.7000;0.0904;-0.6926;
330.0000;0.0879;-0.7015;
330.3000;0.0847;-0.7059;
330.6000;0.0887;-0.6948;
330.9000;0.0904;-0.6926;
331.2000;0.0904;-0.6904;
331.5000;0.0895;-0.6992;
331.8000;0.0904;-0.6948;
332.1000;0.0887;-0.6970;
332.4000;0.0912;-0.6926;
332.7000;0.0879;-0.7037;
333.0000;0.0895;-0.7015;
333.3000;0.0928;-0.6904;
333.6000;0.0871;-0.6970;
333.9000;0.0863;-0.6948;
334.2000;0.0887;-0.6926;
334.5000;0.0904;-0.6948;
334.8000;0.0863;-0.7059;
335.1000;0.0879;-0.7015;
335.4000;0.0838;-0.7170;
335.7000;0.0871;-0.7103;
336.0000;0.0904;-0.7037;
336.3000;0.0895;-0.6948;
336.6000;0.0855;-0.6992;
336.9000;0.0879;-0.6948;
337.2000;0.0895;-0.6948;
337.5000;0.0887;-0.6904;
337.8000;0.0879;-0.6926;
338.1000;0.0879;-0.6948;
338.4000;0.0847;-0.7037;
338.7000;0.0871;-0.6970;
339.0000;0.0863;-0.7015;
339.3000;0.0863;-0.6992;
339.6000;0.0879;-0.6904;
339.9000;0.0863;-0.6948;
340.2000;0.0871;-0.6926;
340.5000;0.0879;-0.6970;
340.8000;0.0887;-0.6992;
341.1000;0.0847;-0.7081;
341.4000;0.0904;-0.6838;
341.7000;0.0863;-0.6926;
342.0000;0.0814;-0.7059;
342.3000;0.0879;-0.6904;
342.6000;0.0871;-0.6926;
342.9000;0.0944;-0.6749;
343.2000;0.0895;-0.6793;
343.5000;0.0887;-0.6860;
343.8000;0.0879;-0.6948;
344.1000;0.0879;-0.7081;
344.4000;0.0847;-0.7081;
344.7000;0.0879;-0.7103;
345.0000;0.0855;-0.7059;
345.3000;0.0871;-0.6970;
345.6000;0.0822;-0.7037;
345.9000;0.0863;-0.7037;
346.2000;0.0928;-0.6926;
346.5000;0.0879;-0.7081;
346.8000;0.0887;-0.7037;
347.1000;0.0863;-0.7103;
347.4000;0.0871;-0.7081;
347.7000;0.0920;-0.6904;
348.0000;0.0871;-0.7015;
348.3000;0.0871;-0.6992;
348.6000;0.0895;-0.6948;
348.9000;0.0847;-0.7081;
349.2000;0.0952;-0.6815;
349.5000;0.1083;-0.6439;
349.8000;0.0765;-0.7170;
350.1000;0.0904;-0.6838;
350.4000;0.0895;-0.6771;
350.7000;0.0928;-0.6727;
351.0000;0.0887;-0.6815;
351.3000;0.0944;-0.6616;
351.6000;0.0863;-0.6771;
351.9000;0.0936;-0.6638;
352.2000;0.0871;-0.6838;
352.5000;0.0936;-0.6749;
352.8000;0.0895;-0.6838;
353.1000;0.0863;-0.6948;
353.4000;0.0879;-0.6904;
353.7000;0.0936;-0.6705;
354.0000;0.0879;-0.6904;
354.3000;0.0871;-0.6992;
354.6000;0.0822;-0.7015;
354.9000;0.0855;-0.6904;
355.2000;0.0887;-0.6860;
355.5000;0.0830;-0.7037;
355.8000;0.0895;-0.6815;
356.1000;0.0855;-0.6860;
356.4000;0.0887;-0.6838;
356.7000;0.0895;-0.6882;
357.0000;0.0847;-0.6970;
357.3000;0.0879;-0.6838;
357.6000;0.0887;-0.6926;
357.9000;0.0879;-0.6948;
358.2000;0.0879;-0.7037;
358.5000;0.0863;-0.7103;
358.8000;0.0879;-0.7015;
359.1000;0.0863;-0.7081;
359.4000;0.0887;-0.6992;
359.7000;0.0863;-0.7015;
360.0000;0.0887;-0.6904;
360.3000;0.0847;-0.6992;
360.6000;0.0879;-0.6904;
360.9000;0.0895;-0.6948;
361.2000;0.0895;-0.6860;
361.5000;0.0879;-0.6815;
361.8000;0.0895;-0.6749;
362.1000;0.0847;-0.6815;
362.4000;0.0887;-0.6683;
362.7000;0.0871;-0.6661;
363.0000;0.0871;-0.6749;
363.3000;0.0855;-0.6727;
363.6000;0.0847;-0.6771;
363.9000;0.0904;-0.6661;
364.2000;0.0879;-0.6749;
364.5000;0.0895;-0.6705;
364.8000;0.0887;-0.6727;
365.1000;0.0904;-0.6638;
365.4000;0.0822;-0.6705;
365.7000;0.0887;-0.6506;
366.0000;0.0847;-0.6550;
366.3000;0.0887;-0.6484;
366.6000;0.0887;-0.6461;
366.9000;0.0871;-0.6484;
367.2000;0.0855;-0.6616;
367.5000;0.0879;-0.6528;
367.8000;0.0895;-0.6550;
368.1000;0.0887;-0.6683;
368.4000;0.0952;-0.6461;
368.7000;0.0895;-0.6594;
369.0000;0.0904;-0.6661;
369.3000;0.0895;-0.6727;
369.6000;0.0830;-0.6904;
369.9000;0.0838;-0.6860;
370.2000;0.0724;-0.7015;
370.5000;0.0863;-0.6616;
370.8000;0.0879;-0.6616;
371.1000;0.0887;-0.6594;
371.4000;0.0879;-0.6661;
371.7000;0.0879;-0.6638;
372.0000;0.0936;-0.6594;
372.3000;0.0895;-0.6683;
372.6000;0.0838;-0.6815;
372.9000;0.0863;-0.6815;
373.2000;0.0879;-0.6771;
373.5000;0.0961;-0.6616;
373.8000;0.0879;-0.6904;
374.1000;0.0879;-0.6926;
374.4000;0.0749;-0.7170;
374.7000;0.0871;-0.6882;
375.0000;0.0847;-0.6904;
375.3000;0.0895;-0.6661;
375.6000;0.0895;-0.6705;
375.9000;0.0838;-0.6882;
376.2000;0.0879;-0.6815;
376.5000;0.0895;-0.6838;
376.8000;0.0887;-0.6771;
377.1000;0.0961;-0.6550;
377.4000;0.0830;-0.6970;
377.7000;0.0879;-0.6793;
378.0000;0.0879;-0.6815;
378.3000;0.0855;-0.6882;
378.6000;0.0887;-0.6838;
378.9000;0.0895;-0.6749;
379.2000;0.0904;-0.6727;
379.5000;0.0822;-0.6992;
379.8000;0.0855;-0.6838;
380.1000;0.0798;-0.7037;
380.4000;0.0887;-0.6793;
380.7000;0.0879;-0.6838;
381.0000;0.0863;-0.6882;
381.3000;0.0887;-0.6793;
381.6000;0.0904;-0.6705;
381.9000;0.0895;-0.6616;
382.2000;0.0855;-0.6638;
382.5000;0.0879;-0.6638;
382.8000;0.0912;-0.6572;
383.1000;0.0871;-0.6727;
383.4000;0.0871;-0.6793;
383.7000;0.0879;-0.6705;
384.0000;0.0879;-0.6727;
384.3000;0.0863;-0.6749;
384.6000;0.0895;-0.6705;
384.9000;0.0952;-0.6572;
385.2000;0.0871;-0.6793;
385.5000;0.0887;-0.6727;
385.8000;0.0895;-0.6727;
386.1000;0.0887;-0.6727;
386.4000;0.0863;-0.6749;
386.7000;0.0887;-0.6749;
387.0000;0.0871;-0.6749;
387.3000;0.0847;-0.6815;
387.6000;0.0895;-0.6705;
387.9000;0.0879;-0.6727;
388.2000;0.0879;-0.6771;
388.5000;0.0871;-0.6705;
388.8000;0.0879;-0.6683;
389.1000;0.0847;-0.6705;
389.4000;0.0879;-0.6749;
389.7000;0.0879;-0.6705;
390.0000;0.0871;-0.6749;
390.3000;0.0904;-0.6661;
390.6000;0.0887;-0.6661;
390.9000;0.0887;-0.6683;
391.2000;0.0895;-0.6616;
391.5000;0.0887;-0.6572;
391.8000;0.0895;-0.6616;
392.1000;0.0961;-0.6417;
392.4000;0.0871;-0.6683;
392.7000;0.0879;-0.6815;
393.0000;0.0879;-0.6793;
393.3000;0.0879;-0.6749;
393.6000;0.0895;-0.6705;
393.9000;0.0863;-0.6749;
394.2000;0.0838;-0.6860;
394.5000;0.0838;-0.6926;
394.8000;0.0871;-0.6838;
395.1000;0.0855;-0.6904;
395.4000;0.0814;-0.6904;
395.7000;0.0887;-0.6749;
396.0000;0.0847;-0.6815;
396.3000;0.0838;-0.6860;
396.6000;0.1001;-0.6439;
396.9000;0.0749;-0.7059;
397.2000;0.0879;-0.6705;
397.5000;0.0879;-0.6705;
397.8000;0.0895;-0.6793;
398.1000;0.0904;-0.6882;
398.4000;0.0871;-0.6970;
398.7000;0.0830;-0.7037;
399.0000;0.0863;-0.6926;
399.3000;0.0879;-0.6882;
399.6000;0.0879;-0.6904;
399.9000;0.0676;-0.7391;
400.2000;0.0838;-0.6926;
400.5000;0.0887;-0.6838;
400.8000;0.0879;-0.6838;
401.1000;0.0879;-0.6838;
401.4000;0.0855;-0.6948;
401.7000;0.0887;-0.6815;
402.0000;0.0912;-0.6749;
402.3000;0.0863;-0.6904;
402.6000;0.0863;-0.6992;
402.9000;0.0895;-0.6948;
403.2000;0.0871;-0.7015;
403.5000;0.0904;-0.6882;
403.8000;0.0879;-0.6926;
404.1000;0.0871;-0.6882;
404.4000;0.0871;-0.6815;
404.7000;0.0887;-0.6882;
405.0000;0.0928;-0.6860;
405.3000;0.0871;-0.7015;
405.6000;0.0879;-0.6926;
405.9000;0.0887;-0.6926;
406.2000;0.0912;-0.6815;
406.5000;0.0871;-0.6970;
406.8000;0.0887;-0.6904;
407.1000;0.0912;-0.6882;
407.4000;0.0871;-0.6992;
407.7000;0.0871;-0.6926;
408.0000;0.0871;-0.7059;
408.3000;0.0895;-0.6992;
408.6000;0.0871;-0.7059;
408.9000;0.0895;-0.6992;
409.2000;0.0863;-0.7059;
409.5000;0.0871;-0.7147;
409.8000;0.0855;-0.7170;
410.1000;0.0871;-0.7125;
410.4000;0.0863;-0.7081;
410.7000;0.0879;-0.6992;
411.0000;0.0838;-0.7037;
411.3000;0.0895;-0.6904;
411.6000;0.0895;-0.6948;
411.9000;0.0838;-0.7037;
412.2000;0.0944;-0.6815;
412.5000;0.0855;-0.6948;
412.8000;0.0879;-0.6860;
413.1000;0.0879;-0.6815;
413.4000;0.0871;-0.6838;
413.7000;0.0887;-0.6838;
414.0000;0.0871;-0.6904;
414.3000;0.0863;-0.6970;
414.6000;0.0887;-0.6882;
414.9000;0.0887;-0.6904;
415.2000;0.0855;-0.6904;
415.5000;0.0855;-0.6882;
415.8000;0.0887;-0.6749;
416.1000;0.0863;-0.6838;
416.4000;0.0879;-0.6815;
416.7000;0.0879;-0.6948;
417.0000;0.0895;-0.6793;
417.3000;0.0879;-0.6749;
417.6000;0.0863;-0.6860;
417.9000;0.0871;-0.6882;
418.2000;0.0895;-0.6749;
418.5000;0.0887;-0.6705;
418.8000;0.0871;-0.6815;
419.1000;0.0863;-0.6815;
419.4000;0.1018;-0.6439;
419.7000;0.0822;-0.6882;
420.0000;0.0863;-0.6771;
420.3000;0.0855;-0.6749;
420.6000;0.0773;-0.6992;
420.9000;0.0936;-0.6705;
421.2000;0.0887;-0.6882;
421.5000;0.0871;-0.7015;
421.8000;0.0790;-0.7170;
422.1000;0.0879;-0.6904;
422.4000;0.0871;-0.6904;
422.7000;0.0879;-0.6838;
423.0000;0.0871;-0.6793;
423.3000;0.0904;-0.6705;
423.6000;0.0871;-0.6860;
423.9000;0.0733;-0.7125;
424.2000;0.0863;-0.6882;
424.5000;0.1001;-0.6506;
424.8000;0.0871;-0.6793;
425.1000;0.0871;-0.6793;
425.4000;0.0879;-0.6838;
425.7000;0.0871;-0.6882;
426.0000;0.0879;-0.6970;
426.3000;0.0904;-0.6926;
426.6000;0.0871;-0.7037;
426.9000;0.0887;-0.7037;
427.2000;0.0879;-0.7103;
427.5000;0.0879;-0.7037;
427.8000;0.0895;-0.7059;
428.1000;0.0855;-0.7147;
428.4000;0.0887;-0.7125;
428.7000;0.0879;-0.7103;
429.0000;0.0806;-0.7192;
429.3000;0.0871;-0.7081;
429.6000;0.0855;-0.7125;
429.9000;0.0895;-0.7037;
430.2000;0.0887;-0.6948;
430.5000;0.0887;-0.6948;
430.8000;0.0887;-0.6948;
431.1000;0.0895;-0.6926;
431.4000;0.0887;-0.6904;
431.7000;0.0879;-0.6948;
432.0000;0.0904;-0.6882;
432.3000;0.0895;-0.6904;
432.6000;0.0904;-0.6970;
432.9000;0.0863;-0.7015;
433.2000;0.0863;-0.7037;
433.5000;0.0871;-0.7103;
433.8000;0.0871;-0.7037;
434.1000;0.0879;-0.7081;
434.4000;0.0814;-0.7170;
434.7000;0.0798;-0.7280;
435.0000;0.0887;-0.7081;
435.3000;0.0814;-0.7236;
435.6000;0.0895;-0.6926;
435.9000;0.0863;-0.7015;
436.2000;0.0912;-0.6860;
436.5000;0.0879;-0.6970;
436.8000;0.0887;-0.7037;
437.1000;0.0863;-0.7147;
437.4000;0.0879;-0.7170;
437.7000;0.0895;-0.7081;
438.0000;0.0871;-0.7037;
438.3000;0.0871;-0.7037;
438.6000;0.0863;-0.7037;
438.9000;0.0871;-0.6992;
439.2000;0.0863;-0.7015;
439.5000;0.0798;-0.7125;
439.8000;0.0871;-0.6992;
440.1000;0.0871;-0.6948;
440.4000;0.0871;-0.7015;
440.7000;0.0920;-0.6860;
441.0000;0.0879;-0.6904;
441.3000;0.0985;-0.6661;
441.6000;0.0806;-0.7125;
441.9000;0.0855;-0.7037;
442.2000;0.0977;-0.6771;
442.5000;0.0879;-0.7015;
442.8000;0.0887;-0.7081;
443.1000;0.0895;-0.7059;
443.4000;0.0887;-0.7037;
443.7000;0.0912;-0.7059;
444.0000;0.0871;-0.7147;
444.3000;0.0863;-0.7214;
444.6000;0.0863;-0.7236;
444.9000;0.0904;-0.7214;
445.2000;0.0904;-0.7280;
445.5000;0.0887;-0.7391;
445.8000;0.0887;-0.7413;
446.1000;0.0895;-0.7391;
446.4000;0.0969;-0.7214;
446.7000;0.0863;-0.7369;
447.0000;0.0887;-0.7324;
447.3000;0.0887;-0.7391;
447.6000;0.0887;-0.7347;
447.9000;0.0871;-0.7435;
448.2000;0.0863;-0.7479;
448.5000;0.0855;-0.7413;
448.8000;0.0863;-0.7391;
449.1000;0.0863;-0.7435;
449.4000;0.0847;-0.7413;
449.7000;0.0863;-0.7324;
450.0000;0.1001;-0.7037;
450.3000;0.0895;-0.7258;
450.6000;0.0887;-0.7214;
450.9000;0.0887;-0.7214;
451.2000;0.0871;-0.7192;
451.5000;0.0871;-0.7302;
451.8000;0.0887;-0.7236;
452.1000;0.0863;-0.7236;
452.4000;0.0887;-0.7192;
452.7000;0.0879;-0.7214;
453.0000;0.0887;-0.7236;
453.3000;0.0871;-0.7192;
453.6000;0.0863;-0.7125;
453.9000;0.0887;-0.6992;
454.2000;0.0895;-0.7037;
454.5000;0.0879;-0.7103;
454.8000;0.0830;-0.7214;
455.1000;0.0920;-0.6926;
455.4000;0.0871;-0.7059;
455.7000;0.0895;-0.6948;
456.0000;0.0879;-0.7081;
456.3000;0.0887;-0.7015;
456.6000;0.0830;-0.7125;
456.9000;0.0904;-0.6992;
457.2000;0.0895;-0.7125;
457.5000;0.0887;-0.7125;
457.8000;0.0871;-0.7147;
458.1000;0.0855;-0.7192;
458.4000;0.0887;-0.7103;
458.7000;0.0814;-0.7214;
459.0000;0.0871;-0.7015;
459.3000;0.0887;-0.6904;
459.6000;0.0879;-0.7015;
459.9000;0.0879;-0.6970;
460.2000;0.0863;-0.7170;
460.5000;0.0879;-0.7147;
460.8000;0.0863;-0.7147;
461.1000;0.0798;-0.7302;
461.4000;0.0855;-0.7236;
461.7000;0.0904;-0.7037;
462.0000;0.0855;-0.7103;
462.3000;0.0887;-0.7059;
462.6000;0.0855;-0.7103;
462.9000;0.0847;-0.7037;
463.2000;0.0904;-0.6926;
463.5000;0.0847;-0.7037;
463.8000;0.0871;-0.6970;
464.1000;0.0895;-0.6948;
464.4000;0.0863;-0.7147;
464.7000;0.0838;-0.7192;
465.0000;0.0863;-0.7125;
465.3000;0.0838;-0.7170;
465.6000;0.0830;-0.7192;
465.9000;0.0895;-0.7081;
466.2000;0.0871;-0.7214;
466.5000;0.0977;-0.6926;
466.8000;0.0887;-0.7103;
467.1000;0.0912;-0.7015;
467.4000;0.0863;-0.7192;
467.7000;0.0961;-0.6948;
468.0000;0.0871;-0.7170;
468.3000;0.0904;-0.7125;
468.6000;0.0863;-0.7170;
468.9000;0.0879;-0.7081;
469.2000;0.0871;-0.7103;
469.5000;0.0879;-0.7125;
469.8000;0.0879;-0.7214;
470.1000;0.0847;-0.7214;
470.4000;0.0871;-0.7147;
470.7000;0.0887;-0.7059;
471.0000;0.0863;-0.7125;
471.3000;0.0912;-0.7059;
471.6000;0.0863;-0.7147;
471.9000;0.0887;-0.7015;
472.2000;0.0863;-0.7081;
472.5000;0.0879;-0.7037;
472.8000;0.0855;-0.7103;
473.1000;0.0887;-0.7081;
473.4000;0.0895;-0.7103;
473.7000;0.0863;-0.7258;
474.0000;0.0863;-0.7324;
474.3000;0.0855;-0.7413;
474.6000;0.0773;-0.7479;
474.9000;0.0855;-0.7214;
475.2000;0.0838;-0.7280;
475.5000;0.0985;-0.6926;
475.8000;0.0895;-0.7081;
476.1000;0.0879;-0.7125;
476.4000;0.0871;-0.7037;
476.7000;0.0879;-0.7037;
477.0000;0.0887;-0.7059;
477.3000;0.0863;-0.7125;
477.6000;0.0879;-0.7037;
477.9000;0.0895;-0.7015;
478.2000;0.0855;-0.7015;
478.5000;0.0961;-0.6860;
478.8000;0.0879;-0.7059;
479.1000;0.0871;-0.7081;
479.4000;0.0879;-0.7081;
479.7000;0.0822;-0.7236;
480.0000;0.0871;-0.7103;
480.3000;0.0895;-0.7037;
480.6000;0.0887;-0.7037;
480.9000;0.0855;-0.7214;
481.2000;0.0879;-0.7192;
481.5000;0.0871;-0.7192;
481.8000;0.0879;-0.7170;
482.1000;0.0887;-0.7147;
482.4000;0.0855;-0.7192;
482.7000;0.0879;-0.7103;
483.0000;0.0887;-0.7059;
483.3000;0.0855;-0.7081;
483.6000;0.0879;-0.7059;
483.9000;0.0871;-0.7103;
484.2000;0.0879;-0.7059;
484.5000;0.0863;-0.7125;
484.8000;0.0871;-0.7103;
485.1000;0.0847;-0.7170;
485.4000;0.0895;-0.7015;
485.7000;0.0879;-0.7037;
486.0000;0.0871;-0.7015;
486.3000;0.0887;-0.7015;
486.6000;0.0863;-0.7125;
486.9000;0.0871;-0.7170;
487.2000;0.0863;-0.7192;
487.5000;0.0904;-0.7125;
487.8000;0.0855;-0.7236;
488.1000;0.0887;-0.7147;
488.4000;0.0765;-0.7369;
488.7000;0.0887;-0.7103;
489.0000;0.0871;-0.7015;
489.3000;0.0887;-0.7037;
489.6000;0.0790;-0.7302;
489.9000;0.0879;-0.7037;
490.2000;0.0863;-0.7081;
490.5000;0.0863;-0.6948;
490.8000;0.0814;-0.7059;
491.1000;0.0920;-0.6771;
491.4000;0.0814;-0.6992;
491.7000;0.0895;-0.6771;
492.0000;0.0879;-0.6838;
492.3000;0.0879;-0.6749;
492.6000;0.0895;-0.6749;
492.9000;0.0814;-0.6948;
493.2000;0.0904;-0.6771;
493.5000;0.0887;-0.6860;
493.8000;0.0863;-0.6904;
494.1000;0.0871;-0.6860;
494.4000;0.0871;-0.6926;
494.7000;0.0920;-0.6904;
495.0000;0.0879;-0.7015;
495.3000;0.0969;-0.6838;
495.6000;0.0912;-0.6992;
495.9000;0.0879;-0.7103;
496.2000;0.0912;-0.7059;
496.5000;0.0887;-0.7037;
496.8000;0.0855;-0.7081;
497.1000;0.0920;-0.6904;
497.4000;0.0871;-0.7015;
497.7000;0.0830;-0.7037;
498.0000;0.0871;-0.7081;
498.3000;0.0887;-0.7081;
498.6000;0.0863;-0.7103;
498.9000;0.0887;-0.7037;
499.2000;0.0863;-0.7059;
499.5000;0.0936;-0.6882;
499.8000;0.0912;-0.6926;
500.1000;0.0863;-0.7037;
500.4000;0.0871;-0.7081;
500.7000;0.0904;-0.6948;
501.0000;0.0863;-0.6992;
501.3000;0.0879;-0.6882;
501.6000;0.0912;-0.6815;
501.9000;0.0895;-0.6838;
502.2000;0.0944;-0.6727;
502.5000;0.0847;-0.7081;
502.8000;0.0887;-0.7059;
503.1000;0.0904;-0.6992;
503.4000;0.0863;-0.7081;
503.7000;0.0847;-0.7037;
504.0000;0.0822;-0.7059;
504.3000;0.0887;-0.6838;
504.6000;0.0944;-0.6661;
504.9000;0.0863;-0.6860;
505.2000;0.0871;-0.6860;
505.5000;0.0871;-0.6860;
505.8000;0.0895;-0.6771;
506.1000;0.0847;-0.6970;
506.4000;0.0855;-0.6904;
506.7000;0.0871;-0.6838;
507.0000;0.0871;-0.6926;
507.3000;0.0855;-0.6948;
507.6000;0.0887;-0.6771;
507.9000;0.0855;-0.7037;
508.2000;0.0871;-0.7081;
508.5000;0.0863;-0.7125;
508.8000;0.0871;-0.7103;
509.1000;0.0952;-0.6815;
509.4000;0.0944;-0.6926;
509.7000;0.0879;-0.7081;
510.0000;0.0741;-0.7280;
510.3000;0.0863;-0.7037;
510.6000;0.0871;-0.6992;
510.9000;0.0912;-0.6904;
511.2000;0.0871;-0.6926;
511.5000;0.0879;-0.6970;
511.8000;0.0904;-0.7015;
512.1000;0.0904;-0.7059;
512.4000;0.0863;-0.7147;
512.7000;0.0887;-0.7147;
513.0000;0.0879;-0.7147;
513.3000;0.0855;-0.7059;
513.6000;0.0863;-0.7059;
513.9000;0.0887;-0.7015;
514.2000;0.0855;-0.7059;
514.5000;0.0847;-0.6948;
514.8000;0.0863;-0.6904;
515.1000;0.0969;-0.6683;
515.4000;0.0928;-0.6926;
515.7000;0.0879;-0.6970;
516.0000;0.0879;-0.7037;
516.3000;0.0879;-0.6992;
516.6000;0.0887;-0.6882;
516.9000;0.0879;-0.6838;
517.2000;0.0887;-0.6793;
517.5000;0.0806;-0.6970;
517.8000;0.0961;-0.6594;
518.1000;0.0863;-0.6904;
518.4000;0.0822;-0.7059;
518.7000;0.0749;-0.7236;
519.0000;0.0790;-0.7147;
519.3000;0.0871;-0.6970;
519.6000;0.0863;-0.7037;
519.9000;0.0895;-0.6815;
520.2000;0.0847;-0.6948;
520.5000;0.0863;-0.6948;
520.8000;0.0847;-0.7015;
521.1000;0.0871;-0.6815;
521.4000;0.0871;-0.6771;
521.7000;0.0887;-0.6705;
522.0000;0.0847;-0.6793;
522.3000;0.0871;-0.6771;
522.6000;0.0879;-0.6771;
522.9000;0.0912;-0.6749;
523.2000;0.0887;-0.6793;
523.5000;0.0871;-0.6882;
523.8000;0.0895;-0.6815;
524.1000;0.0952;-0.6749;
524.4000;0.0855;-0.7037;
524.7000;0.0895;-0.7081;
525.0000;0.0863;-0.7125;
525.3000;0.0895;-0.7015;
525.6000;0.0879;-0.7037;
525.9000;0.0887;-0.6948;
526.2000;0.0879;-0.7015;
526.5000;0.0879;-0.6948;
526.8000;0.0830;-0.7059;
527.1000;0.0871;-0.7059;
527.4000;0.0847;-0.7147;
527.7000;0.0895;-0.7037;
528.0000;0.0879;-0.6992;
528.3000;0.0879;-0.6948;
528.6000;0.0879;-0.6882;
528.9000;0.0912;-0.6860;
529.2000;0.0879;-0.6926;
529.5000;0.0879;-0.6904;
529.8000;0.0904;-0.6771;
530.1000;0.0879;-0.6926;
530.4000;0.0879;-0.6948;
530.7000;0.0904;-0.6815;
531.0000;0.0879;-0.6838;
531.3000;0.0863;-0.6904;
531.6000;0.0887;-0.6926;
531.9000;0.0912;-0.6860;
532.2000;0.0814;-0.7015;
532.5000;0.0887;-0.6904;
532.8000;0.0879;-0.6926;
533.1000;0.0871;-0.6926;
533.4000;0.0863;-0.6904;
533.7000;0.0871;-0.6882;
534.0000;0.0871;-0.6860;
534.3000;0.0895;-0.6860;
534.6000;0.0855;-0.6992;
534.9000;0.0879;-0.6948;
535.2000;0.0887;-0.6926;
535.5000;0.0871;-0.7037;
535.8000;0.0887;-0.7015;
536.1000;0.0790;-0.7147;
536.4000;0.0920;-0.6793;
536.7000;0.0863;-0.6970;
537.0000;0.0855;-0.6992;
537.3000;0.0871;-0.7015;
537.6000;0.0879;-0.7125;
537.9000;0.0871;-0.7170;
538.2000;0.0887;-0.7125;
538.5000;0.0838;-0.7214;
538.8000;0.0871;-0.7103;
539.1000;0.0887;-0.7081;
539.4000;0.1009;-0.6926;
539.7000;0.0879;-0.7214;
540.0000;0.0871;-0.7192;
540.3000;0.0887;-0.7192;
540.6000;0.0895;-0.7170;
540.9000;0.0904;-0.7147;
541.2000;0.0879;-0.7214;
541.5000;0.0879;-0.7170;
541.8000;0.0879;-0.7125;
542.1000;0.0863;-0.7302;
542.4000;0.0847;-0.7369;
542.7000;0.0879;-0.7236;
543.0000;0.0879;-0.7258;
543.3000;0.0871;-0.7192;
543.6000;0.0879;-0.7192;
543.9000;0.0847;-0.7236;
544.2000;0.0887;-0.7125;
544.5000;0.0847;-0.7214;
544.8000;0.0847;-0.7192;
545.1000;0.0936;-0.6970;
545.4000;0.0855;-0.7170;
545.7000;0.0863;-0.7214;
546.0000;0.0879;-0.7125;
546.3000;0.0871;-0.7236;
546.6000;0.0887;-0.7147;
546.9000;0.0895;-0.7170;
547.2000;0.0871;-0.7236;
547.5000;0.0871;-0.7258;
547.8000;0.0879;-0.7236;
548.1000;0.0871;-0.7280;
548.4000;0.0904;-0.7147;
548.7000;0.0855;-0.7280;
549.0000;0.0879;-0.7037;
549.3000;0.0895;-0.6948;
549.6000;0.0871;-0.6992;
549.9000;0.0961;-0.6771;
550.2000;0.0871;-0.6992;
550.5000;0.0863;-0.7059;
550.8000;0.0863;-0.7037;
551.1000;0.0887;-0.6992;
551.4000;0.0887;-0.7037;
551.7000;0.0920;-0.6948;
552.0000;0.0879;-0.7015;
552.3000;0.0871;-0.7015;
552.6000;0.0879;-0.7037;
552.9000;0.0863;-0.7125;
553.2000;0.0920;-0.7037;
553.5000;0.0928;-0.6926;
553.8000;0.0855;-0.7103;
554.1000;0.0863;-0.7103;
554.4000;0.0879;-0.7059;
554.7000;0.0871;-0.7125;
555.0000;0.0863;-0.7125;
555.3000;0.0847;-0.7037;
555.6000;0.0814;-0.6992;
555.9000;0.0895;-0.6904;
556.2000;0.0838;-0.7125;
556.5000;0.0830;-0.7280;
556.8000;0.0895;-0.7192;
557.1000;0.0798;-0.7369;
557.4000;0.0895;-0.7081;
557.7000;0.0969;-0.6904;
558.0000;0.0790;-0.7413;
558.3000;0.0871;-0.7280;
558.6000;0.0879;-0.7170;
558.9000;0.0904;-0.7103;
559.2000;0.0814;-0.7236;
559.5000;0.0879;-0.7125;
559.8000;0.0879;-0.7103;
560.1000;0.0879;-0.7147;
560.4000;0.0863;-0.7170;
560.7000;0.0871;-0.7081;
561.0000;0.0904;-0.6992;
561.3000;0.0838;-0.7059;
561.6000;0.0863;-0.6948;
561.9000;0.0871;-0.6926;
562.2000;0.0855;-0.6992;
562.5000;0.0847;-0.6926;
562.8000;0.0904;-0.6815;
563.1000;0.0838;-0.7015;
563.4000;0.0895;-0.6838;
563.7000;0.0855;-0.6926;
564.0000;0.0830;-0.7037;
564.3000;0.0879;-0.6882;
564.6000;0.0879;-0.6860;
564.9000;0.0855;-0.6926;
565.2000;0.0895;-0.6860;
565.5000;0.0855;-0.6970;
565.8000;0.0895;-0.6815;
566.1000;0.0879;-0.6948;
566.4000;0.0887;-0.6926;
566.7000;0.0879;-0.6882;
567.0000;0.0895;-0.6904;
567.3000;0.0765;-0.7147;
567.6000;0.0871;-0.6838;
567.9000;0.0765;-0.7081;
568.2000;0.0863;-0.6882;
568.5000;0.0887;-0.6815;
568.8000;0.0879;-0.6749;
569.1000;0.0847;-0.6793;
569.4000;0.0904;-0.6638;
569.7000;0.0871;-0.6705;
570.0000;0.0904;-0.6749;
570.3000;0.0928;-0.6749;
570.6000;0.0879;-0.6771;
570.9000;0.0879;-0.6771;
571.2000;0.0928;-0.6705;
571.5000;0.0895;-0.6793;
571.8000;0.0871;-0.6749;
572.1000;0.0895;-0.6727;
572.4000;0.0871;-0.6683;
572.7000;0.0928;-0.6616;
573.0000;0.0879;-0.6749;
573.3000;0.0863;-0.6860;
573.6000;0.0879;-0.6970;
573.9000;0.0863;-0.7147;
574.2000;0.0887;-0.7081;
574.5000;0.0904;-0.7081;
574.8000;0.0879;-0.7059;
575.1000;0.0879;-0.7037;
575.4000;0.0855;-0.7192;
575.7000;0.0887;-0.7214;
576.0000;0.0879;-0.7147;
576.3000;0.0912;-0.7059;
576.6000;0.0895;-0.7103;
576.9000;0.0879;-0.7147;
577.2000;0.0887;-0.7125;
577.5000;0.0855;-0.7147;
577.8000;0.0887;-0.7147;
578.1000;0.0855;-0.7258;
578.4000;0.0871;-0.7280;
578.7000;0.0887;-0.7258;
579.0000;0.0855;-0.7413;
579.3000;0.0895;-0.7280;
579.6000;0.0855;-0.7302;
579.9000;0.0879;-0.7236;
580.2000;0.0814;-0.7369;
580.5000;0.0871;-0.7236;
580.8000;0.0863;-0.7214;
581.1000;0.0879;-0.7081;
581.4000;0.0814;-0.7170;
581.7000;0.0887;-0.7103;
582.0000;0.0838;-0.7236;
582.3000;0.0904;-0.7170;
582.6000;0.0952;-0.7081;
582.9000;0.0863;-0.7347;
583.2000;0.0863;-0.7324;
583.5000;0.0814;-0.7413;
583.8000;0.0895;-0.7214;
584.1000;0.0863;-0.7125;
584.4000;0.0822;-0.7170;
584.7000;0.0912;-0.6948;
585.0000;0.0895;-0.6970;
585.3000;0.0871;-0.7081;
585.6000;0.0871;-0.7081;
585.9000;0.0879;-0.7059;
586.2000;0.0920;-0.7059;
586.5000;0.0920;-0.7081;
586.8000;0.0912;-0.7081;
587.1000;0.0895;-0.7214;
587.4000;0.0879;-0.7324;
587.7000;0.0879;-0.7347;
588.0000;0.0879;-0.7369;
588.3000;0.0879;-0.7302;
588.6000;0.0871;-0.7369;
588.9000;0.0887;-0.7347;
589.2000;0.0895;-0.7369;
589.5000;0.0887;-0.7479;
589.8000;0.0871;-0.7501;
590.1000;0.0855;-0.7501;
590.4000;0.0855;-0.7457;
590.7000;0.0863;-0.7479;
591.0000;0.0887;-0.7324;
591.3000;0.0871;-0.7347;
591.6000;0.0879;-0.7258;
591.9000;0.0676;-0.7678;
592.2000;0.0855;-0.7280;
592.5000;0.0887;-0.7236;
592.8000;0.0887;-0.7125;
593.1000;0.0879;-0.7081;
593.4000;0.0879;-0.7059;
593.7000;0.0863;-0.7081;
594.0000;0.0879;-0.7015;
594.3000;0.0830;-0.7147;
594.6000;0.0871;-0.7125;
594.9000;0.0855;-0.7147;
595.2000;0.0847;-0.7170;
595.5000;0.0863;-0.7103;
595.8000;0.0757;-0.7435;
596.1000;0.0879;-0.7170;
596.4000;0.0863;-0.7192;
596.7000;0.0904;-0.7059;
597.0000;0.0855;-0.7170;
597.3000;0.0887;-0.7081;
597.6000;0.0895;-0.7192;
597.9000;0.0887;-0.7214;
598.2000;0.0806;-0.7369;
598.5000;0.0855;-0.7170;
598.8000;0.0871;-0.7147;
599.1000;0.0863;-0.7258;
599.4000;0.0830;-0.7280;
599.7000;0.0961;-0.6882;
600.0000;0.0871;-0.7037;
600.3000;0.0847;-0.7236;
600.6000;0.0863;-0.7236;
600.9000;0.0855;-0.7347;
601.2000;0.0871;-0.7347;
601.5000;0.0863;-0.7413;
601.8000;0.0871;-0.7457;
602.1000;0.0855;-0.7634;
602.4000;0.0838;-0.7811;
602.7000;0.0863;-0.7855;
603.0000;0.0928;-0.7745;
603.3000;0.0830;-0.8010;
603.6000;0.0855;-0.7988;
603.9000;0.0863;-0.7922;
604.2000;0.0822;-0.8077;
604.5000;0.0838;-0.8033;
604.8000;0.0798;-0.8099;
605.1000;0.0814;-0.7988;
605.4000;0.0692;-0.8276;
605.7000;0.0830;-0.8033;
606.0000;0.0806;-0.8143;
606.3000;0.0773;-0.8276;
606.6000;0.0814;-0.8254;
606.9000;0.0936;-0.7966;
607.2000;0.0798;-0.8232;
607.5000;0.0765;-0.8320;
607.8000;0.0822;-0.8298;
608.1000;0.0790;-0.8431;
608.4000;0.0708;-0.8608;
608.7000;0.0814;-0.8387;
609.0000;0.0806;-0.8320;
609.3000;0.0790;-0.8276;
609.6000;0.0806;-0.8387;
609.9000;0.0790;-0.8387;
610.2000;0.0781;-0.8364;
610.5000;0.0781;-0.8342;
610.8000;0.0806;-0.8320;
611.1000;0.0790;-0.8453;
611.4000;0.0847;-0.8342;
611.7000;0.0765;-0.8564;
612.0000;0.0798;-0.8453;
612.3000;0.0790;-0.8431;
612.6000;0.0822;-0.8364;
612.9000;0.0790;-0.8431;
613.2000;0.0798;-0.8409;
613.5000;0.0790;-0.8431;
613.8000;0.0757;-0.8453;
614.1000;0.0773;-0.8475;
614.4000;0.0773;-0.8475;
614.7000;0.0765;-0.8475;
615.0000;0.0773;-0.8453;
615.3000;0.0798;-0.8409;
615.6000;0.0806;-0.8342;
615.9000;0.0733;-0.8364;
616.2000;0.0757;-0.8298;
616.5000;0.0773;-0.8342;
616.8000;0.0781;-0.8453;
617.1000;0.0830;-0.8276;
617.4000;0.0790;-0.8342;
617.7000;0.0798;-0.8320;
618.0000;0.0814;-0.8320;
618.3000;0.0781;-0.8409;
618.6000;0.0741;-0.8475;
618.9000;0.0765;-0.8387;
619.2000;0.0773;-0.8364;
619.5000;0.0765;-0.8409;
619.8000;0.0749;-0.8431;
620.1000;0.0765;-0.8409;
620.4000;0.0749;-0.8497;
620.7000;0.0781;-0.8453;
621.0000;0.0773;-0.8387;
621.3000;0.0757;-0.8298;
621.6000;0.0806;-0.8187;
621.9000;0.0749;-0.8409;
622.2000;0.0773;-0.8453;
622.5000;0.0757;-0.8431;
622.8000;0.0724;-0.8497;
623.1000;0.0790;-0.8342;
623.4000;0.0773;-0.8387;
623.7000;0.0790;-0.8409;
624.0000;0.0757;-0.8431;
624.3000;0.0790;-0.8342;
624.6000;0.0757;-0.8409;
624.9000;0.0749;-0.8431;
625.2000;0.0773;-0.8364;
625.5000;0.0765;-0.8298;
625.8000;0.0700;-0.8409;
626.1000;0.0749;-0.8298;
626.4000;0.0773;-0.8276;
626.7000;0.0773;-0.8254;
627.0000;0.0765;-0.8210;
627.3000;0.0749;-0.8187;
627.6000;0.0790;-0.8165;
627.9000;0.0741;-0.8099;
628.2000;0.0684;-0.8276;
628.5000;0.0757;-0.8077;
628.8000;0.0806;-0.7988;
629.1000;0.0749;-0.8187;
629.4000;0.0765;-0.8254;
629.7000;0.0716;-0.8431;
630.0000;0.0765;-0.8364;
630.3000;0.0749;-0.8254;
630.6000;0.0765;-0.8187;
630.9000;0.0798;-0.8055;
631.2000;0.0724;-0.8232;
631.5000;0.0749;-0.8187;
631.8000;0.0733;-0.8276;
632.1000;0.0757;-0.8165;
632.4000;0.0733;-0.8187;
632.7000;0.0765;-0.8121;
633.0000;0.0757;-0.8077;
633.3000;0.0749;-0.8077;
633.6000;0.0749;-0.8187;
633.9000;0.0724;-0.8210;
634.2000;0.0733;-0.8187;
634.5000;0.0773;-0.8121;
634.8000;0.0757;-0.8143;
635.1000;0.0733;-0.8254;
635.4000;0.0724;-0.8320;
635.7000;0.0757;-0.8232;
636.0000;0.0749;-0.8320;
636.3000;0.0700;-0.8497;
636.6000;0.0765;-0.8298;
636.9000;0.0684;-0.8453;
637.2000;0.0733;-0.8364;
637.5000;0.0741;-0.8298;
637.8000;0.0765;-0.8210;
638.1000;0.0741;-0.8320;
638.4000;0.0733;-0.8298;
638.7000;0.0733;-0.8342;
639.0000;0.0741;-0.8409;
639.3000;0.0733;-0.8431;
639.6000;0.0741;-0.8409;
639.9000;0.0757;-0.8364;
640.2000;0.0749;-0.8342;
640.5000;0.0773;-0.8210;
640.8000;0.0716;-0.8298;
641.1000;0.0676;-0.8453;
641.4000;0.0733;-0.8276;
641.7000;0.0724;-0.8320;
642.0000;0.0798;-0.8276;
642.3000;0.0765;-0.8320;
642.6000;0.0749;-0.8431;
642.9000;0.0790;-0.8431;
643.2000;0.0716;-0.8409;
643.5000;0.0741;-0.8431;
643.8000;0.0790;-0.8342;
644.1000;0.0830;-0.8165;
644.4000;0.0692;-0.8387;
644.7000;0.0708;-0.8431;
645.0000;0.0741;-0.8409;
645.3000;0.0724;-0.8453;
645.6000;0.0741;-0.8409;
645.9000;0.0708;-0.8364;
646.2000;0.0724;-0.8254;
646.5000;0.0765;-0.8143;
646.8000;0.0741;-0.8143;
647.1000;0.0733;-0.8143;
647.4000;0.0765;-0.8077;
647.7000;0.0733;-0.8210;
648.0000;0.0741;-0.8232;
648.3000;0.0716;-0.8254;
648.6000;0.0724;-0.8298;
648.9000;0.0765;-0.8210;
649.2000;0.0855;-0.8010;
649.5000;0.0757;-0.8210;
649.8000;0.0733;-0.8254;
650.1000;0.0733;-0.8254;
650.4000;0.0692;-0.8320;
650.7000;0.0749;-0.8143;
651.0000;0.0765;-0.8099;
651.3000;0.0741;-0.8121;
651.6000;0.0798;-0.8010;
651.9000;0.0749;-0.8254;
652.2000;0.0838;-0.8143;
652.5000;0.0749;-0.8342;
652.8000;0.0749;-0.8453;
653.1000;0.0757;-0.8431;
653.4000;0.0733;-0.8475;
653.7000;0.0749;-0.8453;
654.0000;0.0749;-0.8519;
654.3000;0.0773;-0.8453;
654.6000;0.0643;-0.8896;
654.9000;0.0676;-0.8829;
655.2000;0.0822;-0.8320;
655.5000;0.0806;-0.8364;
655.8000;0.0749;-0.8409;
656.1000;0.0708;-0.8453;
656.4000;0.0716;-0.8453;
656.7000;0.0724;-0.8475;
657.0000;0.0716;-0.8519;
657.3000;0.0724;-0.8431;
657.6000;0.0749;-0.8320;
657.9000;0.0724;-0.8387;
658.2000;0.0724;-0.8409;
658.5000;0.0733;-0.8453;
658.8000;0.0733;-0.8541;
659.1000;0.0749;-0.8541;
659.4000;0.0708;-0.8630;
659.7000;0.0741;-0.8497;
660.0000;0.0724;-0.8564;
660.3000;0.0790;-0.8409;
660.6000;0.0733;-0.8541;
660.9000;0.0741;-0.8475;
661.2000;0.0757;-0.8475;
661.5000;0.0741;-0.8586;
661.8000;0.0724;-0.8586;
662.1000;0.0724;-0.8519;
662.4000;0.0708;-0.8586;
662.7000;0.0749;-0.8387;
663.0000;0.0806;-0.8187;
663.3000;0.0716;-0.8453;
663.6000;0.0741;-0.8364;
663.9000;0.0724;-0.8320;
664.2000;0.0700;-0.8320;
664.5000;0.0716;-0.8254;
664.8000;0.0741;-0.8232;
665.1000;0.0749;-0.8210;
665.4000;0.0733;-0.8254;
665.7000;0.0822;-0.7988;
666.0000;0.0741;-0.8165;
666.3000;0.0773;-0.8010;
666.6000;0.0773;-0.8099;
666.9000;0.0733;-0.8254;
667.2000;0.0741;-0.8254;
667.5000;0.0749;-0.8298;
667.8000;0.0749;-0.8276;
668.1000;0.0765;-0.8187;
668.4000;0.0700;-0.8210;
668.7000;0.0659;-0.8364;
669.0000;0.0708;-0.8254;
669.3000;0.0724;-0.8143;
669.6000;0.0724;-0.8165;
669.9000;0.0847;-0.7922;
670.2000;0.0667;-0.8364;
670.5000;0.0765;-0.8121;
670.8000;0.0765;-0.8055;
671.1000;0.0724;-0.8121;
671.4000;0.0733;-0.8099;
671.7000;0.0724;-0.8121;
672.0000;0.0765;-0.8055;
672.3000;0.0659;-0.8298;
672.6000;0.0733;-0.8121;
672.9000;0.0586;-0.8431;
673.2000;0.0643;-0.8298;
673.5000;0.0724;-0.8055;
673.8000;0.0733;-0.8077;
674.1000;0.0773;-0.8055;
674.4000;0.0724;-0.8254;
674.7000;0.0716;-0.8276;
675.0000;0.0611;-0.8519;
675.3000;0.0708;-0.8342;
675.6000;0.0757;-0.8276;
675.9000;0.0749;-0.8298;
676.2000;0.0798;-0.8121;
676.5000;0.0749;-0.8187;
676.8000;0.0741;-0.8210;
677.1000;0.0692;-0.8431;
677.4000;0.0724;-0.8431;
677.7000;0.0749;-0.8364;
678.0000;0.0733;-0.8320;
678.3000;0.0749;-0.8320;
678.6000;0.0708;-0.8431;
678.9000;0.0765;-0.8276;
679.2000;0.0741;-0.8254;
679.5000;0.0684;-0.8364;
679.8000;0.0757;-0.8298;
680.1000;0.0741;-0.8320;
680.4000;0.0716;-0.8320;
680.7000;0.0724;-0.8320;
681.0000;0.0724;-0.8364;
681.3000;0.0659;-0.8475;
681.6000;0.0741;-0.8276;
681.9000;0.0708;-0.8276;
682.2000;0.0724;-0.8254;
682.5000;0.0749;-0.8187;
682.8000;0.0724;-0.8232;
683.1000;0.0757;-0.8187;
683.4000;0.0578;-0.8718;
683.7000;0.0741;-0.8320;
684.0000;0.0716;-0.8364;
684.3000;0.0708;-0.8254;
684.6000;0.0749;-0.8165;
684.9000;0.0708;-0.8187;
685.2000;0.0724;-0.8099;
685.5000;0.0724;-0.8143;
685.8000;0.0765;-0.8143;
686.1000;0.0700;-0.8342;
686.4000;0.0757;-0.8342;
686.7000;0.0733;-0.8364;
687.0000;0.0765;-0.8298;
687.3000;0.0741;-0.8254;
687.6000;0.0773;-0.8143;
687.9000;0.0757;-0.8210;
688.2000;0.0741;-0.8276;
688.5000;0.0733;-0.8276;
688.8000;0.0741;-0.8210;
689.1000;0.0806;-0.8099;
689.4000;0.0749;-0.8210;
689.7000;0.0627;-0.8409;
690.0000;0.0765;-0.8099;
690.3000;0.0790;-0.8121;
690.6000;0.0724;-0.8232;
690.9000;0.0643;-0.8497;
691.2000;0.0830;-0.8033;
691.5000;0.0700;-0.8453;
691.8000;0.0741;-0.8364;
692.1000;0.0765;-0.8187;
692.4000;0.0700;-0.8320;
692.7000;0.0716;-0.8187;
693.0000;0.0724;-0.8165;
693.3000;0.0757;-0.8121;
693.6000;0.0798;-0.7944;
693.9000;0.0733;-0.8121;
694.2000;0.0733;-0.8121;
694.5000;0.0733;-0.8165;
694.8000;0.0708;-0.8254;
695.1000;0.0611;-0.8586;
695.4000;0.0741;-0.8232;
695.7000;0.0724;-0.8320;
696.0000;0.0716;-0.8276;
696.3000;0.0749;-0.8232;
696.6000;0.0724;-0.8342;
696.9000;0.0733;-0.8387;
697.2000;0.0643;-0.8586;
697.5000;0.0692;-0.8497;
697.8000;0.0741;-0.8387;
698.1000;0.0749;-0.8320;
698.4000;0.0733;-0.8320;
698.7000;0.0733;-0.8298;
699.0000;0.0724;-0.8254;
699.3000;0.0724;-0.8232;
699.6000;0.0741;-0.8187;
699.9000;0.0741;-0.8143;
700.2000;0.0733;-0.8077;
700.5000;0.0806;-0.7922;
700.8000;0.0708;-0.8210;
701.1000;0.0724;-0.8143;
701.4000;0.0733;-0.8121;
701.7000;0.0733;-0.8099;
702.0000;0.0700;-0.8276;
702.3000;0.0733;-0.8210;
702.6000;0.0798;-0.8055;
702.9000;0.0749;-0.8210;
703.2000;0.0757;-0.8165;
703.5000;0.0749;-0.8232;
703.8000;0.0733;-0.8276;
704.1000;0.0700;-0.8342;
704.4000;0.0733;-0.8276;
704.7000;0.0733;-0.8298;
705.0000;0.0765;-0.8232;
705.3000;0.0798;-0.8055;
705.6000;0.0708;-0.8210;
705.9000;0.0716;-0.8210;
706.2000;0.0724;-0.8232;
706.5000;0.0757;-0.8210;
706.8000;0.0749;-0.8099;
707.1000;0.0659;-0.8254;
707.4000;0.0724;-0.8165;
707.7000;0.0708;-0.8165;
708.0000;0.0749;-0.8121;
708.3000;0.0684;-0.8342;
708.6000;0.0724;-0.8232;
708.9000;0.0741;-0.8254;
709.2000;0.0700;-0.8320;
709.5000;0.0757;-0.8210;
709.8000;0.0741;-0.8210;
710.1000;0.0724;-0.8232;
710.4000;0.0676;-0.8320;
710.7000;0.0724;-0.8210;
711.0000;0.0741;-0.8210;
711.3000;0.0757;-0.8165;
711.6000;0.0708;-0.8298;
711.9000;0.0749;-0.8165;
712.2000;0.0651;-0.8342;
712.5000;0.0716;-0.8165;
712.8000;0.0716;-0.8143;
713.1000;0.0765;-0.8010;
713.4000;0.0716;-0.8254;
713.7000;0.0741;-0.8254;
714.0000;0.0667;-0.8364;
714.3000;0.0749;-0.8165;
714.6000;0.0749;-0.8232;
714.9000;0.0708;-0.8298;
715.2000;0.0765;-0.8276;
715.5000;0.0724;-0.8387;
715.8000;0.0806;-0.8143;
716.1000;0.0733;-0.8276;
716.4000;0.0716;-0.8232;
716.7000;0.0733;-0.8165;
717.0000;0.0733;-0.8254;
717.3000;0.0733;-0.8099;
717.6000;0.0724;-0.8121;
717.9000;0.0814;-0.7966;
718.2000;0.0749;-0.8077;
718.5000;0.0741;-0.8187;
718.8000;0.0749;-0.8143;
719.1000;0.0724;-0.8187;
719.4000;0.0741;-0.8254;
719.7000;0.0716;-0.8254;
720.0000;0.0700;-0.8254;
720.3000;0.0724;-0.8165;
720.6000;0.0749;-0.8143;
720.9000;0.0733;-0.8143;
721.2000;0.0781;-0.8010;
721.5000;0.0716;-0.8077;
721.8000;0.0757;-0.7944;
722.1000;0.0724;-0.8010;
722.4000;0.0790;-0.7944;
722.7000;0.0733;-0.8143;
723.0000;0.0749;-0.8165;
723.3000;0.0692;-0.8232;
723.6000;0.0749;-0.8121;
723.9000;0.0708;-0.8254;
724.2000;0.0724;-0.8364;
724.5000;0.0733;-0.8276;
724.8000;0.0724;-0.8342;
725.1000;0.0708;-0.8387;
725.4000;0.0790;-0.8143;
725.7000;0.0700;-0.8320;
726.0000;0.0733;-0.8320;
726.3000;0.0724;-0.8232;
726.6000;0.0790;-0.8010;
726.9000;0.0724;-0.8165;
727.2000;0.0724;-0.8298;
727.5000;0.0741;-0.8298;
727.8000;0.0724;-0.8298;
728.1000;0.0741;-0.8320;
728.4000;0.0724;-0.8298;
728.7000;0.0716;-0.8342;
729.0000;0.0724;-0.8320;
729.3000;0.0708;-0.8342;
729.6000;0.0741;-0.8342;
729.9000;0.0651;-0.8564;
730.2000;0.0733;-0.8320;
730.5000;0.0733;-0.8276;
730.8000;0.0684;-0.8298;
731.1000;0.0741;-0.8165;
731.4000;0.0733;-0.8232;
731.7000;0.0724;-0.8232;
732.0000;0.0724;-0.8232;
732.3000;0.0724;-0.8232;
732.6000;0.0716;-0.8165;
732.9000;0.0724;-0.8210;
733.2000;0.0741;-0.8187;
733.5000;0.0724;-0.8298;
733.8000;0.0708;-0.8232;
734.1000;0.0700;-0.8254;
734.4000;0.0733;-0.8165;
734.7000;0.0716;-0.8210;
735.0000;0.0733;-0.8187;
735.3000;0.0684;-0.8187;
735.6000;0.0724;-0.8055;
735.9000;0.0741;-0.8055;
736.2000;0.0716;-0.8099;
736.5000;0.0741;-0.8077;
736.8000;0.0659;-0.8364;
737.1000;0.0676;-0.8320;
737.4000;0.0700;-0.8254;
737.7000;0.0830;-0.7944;
738.0000;0.0724;-0.8232;
738.3000;0.0814;-0.8033;
738.6000;0.0676;-0.8387;
738.9000;0.0716;-0.8232;
739.2000;0.0724;-0.8254;
739.5000;0.0700;-0.8364;
739.8000;0.0798;-0.8121;
740.1000;0.0716;-0.8276;
740.4000;0.0798;-0.8099;
740.7000;0.0708;-0.8232;
741.0000;0.0733;-0.8210;
741.3000;0.0708;-0.8364;
741.6000;0.0716;-0.8342;
741.9000;0.0724;-0.8298;
742.2000;0.0716;-0.8298;
742.5000;0.0733;-0.8276;
742.8000;0.0749;-0.8210;
743.1000;0.0684;-0.8409;
743.4000;0.0733;-0.8232;
743.7000;0.0733;-0.8187;
744.0000;0.0822;-0.7966;
744.3000;0.0708;-0.8121;
744.6000;0.0667;-0.8232;
744.9000;0.0716;-0.8143;
745.2000;0.0741;-0.8143;
745.5000;0.0708;-0.8210;
745.8000;0.0700;-0.8165;
746.1000;0.0749;-0.8055;
746.4000;0.0733;-0.8099;
746.7000;0.0741;-0.8143;
747.0000;0.0700;-0.8276;
747.3000;0.0716;-0.8232;
747.6000;0.0724;-0.8165;
747.9000;0.0733;-0.8187;
748.2000;0.0724;-0.8143;
748.5000;0.0586;-0.8475;
748.8000;0.0765;-0.7988;
749.1000;0.0741;-0.8165;
749.4000;0.0586;-0.8586;
749.7000;0.0684;-0.8320;
750.0000;0.0749;-0.8187;
750.3000;0.0700;-0.8276;
750.6000;0.0724;-0.8165;
750.9000;0.0724;-0.8187;
751.2000;0.0716;-0.8232;
751.5000;0.0781;-0.8077;
751.8000;0.0716;-0.8232;
752.1000;0.0741;-0.8165;
752.4000;0.0692;-0.8210;
752.7000;0.0733;-0.8121;
753.0000;0.0692;-0.8210;
753.3000;0.0741;-0.8165;
753.6000;0.0716;-0.8210;
753.9000;0.0781;-0.8077;
754.2000;0.0741;-0.8165;
754.5000;0.0716;-0.8254;
754.8000;0.0692;-0.8298;
755.1000;0.0749;-0.8187;
755.4000;0.0724;-0.8210;
755.7000;0.0765;-0.8077;
756.0000;0.0733;-0.8254;
756.3000;0.0757;-0.8187;
756.6000;0.0749;-0.8143;
756.9000;0.0716;-0.8165;
757.2000;0.0733;-0.8165;
757.5000;0.0741;-0.8165;
757.8000;0.0716;-0.8387;
758.1000;0.0676;-0.8519;
758.4000;0.0692;-0.8475;
758.7000;0.0724;-0.8409;
759.0000;0.0724;-0.8409;
759.3000;0.0741;-0.8453;
759.6000;0.0724;-0.8541;
759.9000;0.0741;-0.8453;
760.2000;0.0716;-0.8364;
760.5000;0.0741;-0.8276;
760.8000;0.0741;-0.8254;
761.1000;0.0741;-0.8165;
761.4000;0.0716;-0.8232;
761.7000;0.0765;-0.8165;
762.0000;0.0741;-0.8121;
762.3000;0.0724;-0.8165;
762.6000;0.0781;-0.8010;
762.9000;0.0708;-0.8342;
763.2000;0.0741;-0.8342;
763.5000;0.0749;-0.8298;
763.8000;0.0724;-0.8364;
764.1000;0.0724;-0.8431;
764.4000;0.0724;-0.8453;
764.7000;0.0708;-0.8497;
765.0000;0.0741;-0.8409;
765.3000;0.0773;-0.8254;
765.6000;0.0724;-0.8387;
765.9000;0.0724;-0.8409;
766.2000;0.0790;-0.8276;
766.5000;0.0741;-0.8387;
766.8000;0.0724;-0.8387;
767.1000;0.0724;-0.8387;
767.4000;0.0749;-0.8342;
767.7000;0.0749;-0.8298;
768.0000;0.0724;-0.8210;
768.3000;0.0741;-0.8143;
768.6000;0.0619;-0.8453;
768.9000;0.0708;-0.8298;
769.2000;0.0651;-0.8475;
769.5000;0.0659;-0.8475;
769.8000;0.0733;-0.8298;
770.1000;0.0724;-0.8232;
770.4000;0.0798;-0.8033;
770.7000;0.0733;-0.8143;
771.0000;0.0757;-0.8121;
771.3000;0.0733;-0.8121;
771.6000;0.0741;-0.8143;
771.9000;0.0708;-0.8165;
772.2000;0.0708;-0.8210;
772.5000;0.0781;-0.8121;
772.8000;0.0724;-0.8121;
773.1000;0.0733;-0.8187;
773.4000;0.0733;-0.8298;
773.7000;0.0716;-0.8276;
774.0000;0.0692;-0.8298;
774.3000;0.0724;-0.8210;
774.6000;0.0724;-0.8187;
774.9000;0.0724;-0.8099;
775.2000;0.0724;-0.8099;
775.5000;0.0733;-0.8099;
775.8000;0.0741;-0.8055;
776.1000;0.0724;-0.8099;
776.4000;0.0724;-0.8121;
776.7000;0.0724;-0.8099;
777.0000;0.0716;-0.8143;
777.3000;0.0724;-0.8121;
777.6000;0.0708;-0.8121;
777.9000;0.0708;-0.8165;
778.2000;0.0716;-0.8187;
778.5000;0.0733;-0.8165;
778.8000;0.0790;-0.8033;
779.1000;0.0708;-0.8143;
779.4000;0.0757;-0.8077;
779.7000;0.0684;-0.8187;
780.0000;0.0781;-0.7966;
780.3000;0.0716;-0.8099;
780.6000;0.0724;-0.8077;
780.9000;0.0659;-0.8298;
781.2000;0.0700;-0.8143;
781.5000;0.0708;-0.8077;
781.8000;0.0716;-0.8099;
782.1000;0.0627;-0.8342;
782.4000;0.0757;-0.8143;
782.7000;0.0733;-0.8232;
783.0000;0.0806;-0.8055;
783.3000;0.0659;-0.8497;
783.6000;0.0741;-0.8298;
783.9000;0.0708;-0.8387;
784.2000;0.0724;-0.8276;
784.5000;0.0741;-0.8276;
784.8000;0.0684;-0.8431;
785.1000;0.0684;-0.8453;
785.4000;0.0724;-0.8298;
785.7000;0.0741;-0.8298;
786.0000;0.0733;-0.8276;
786.3000;0.0708;-0.8342;
786.6000;0.0716;-0.8276;
786.9000;0.0708;-0.8298;
787.2000;0.0724;-0.8342;
787.5000;0.0716;-0.8298;
787.8000;0.0749;-0.8210;
788.1000;0.0733;-0.8210;
788.4000;0.0708;-0.8320;
788.7000;0.0708;-0.8387;
789.0000;0.0716;-0.8364;
789.3000;0.0749;-0.8254;
789.6000;0.0724;-0.8342;
789.9000;0.0724;-0.8276;
790.2000;0.0781;-0.8121;
790.5000;0.0724;-0.8232;
790.8000;0.0733;-0.8276;
791.1000;0.0716;-0.8254;
791.4000;0.0692;-0.8342;
791.7000;0.0733;-0.8232;
792.0000;0.0733;-0.8232;
792.3000;0.0708;-0.8320;
792.6000;0.0676;-0.8519;
792.9000;0.0716;-0.8431;
793.2000;0.0716;-0.8387;
793.5000;0.0643;-0.8519;
793.8000;0.0724;-0.8387;
794.1000;0.0733;-0.8342;
794.4000;0.0716;-0.8232;
794.7000;0.0716;-0.8210;
795.0000;0.0724;-0.8232;
795.3000;0.0733;-0.8165;
795.6000;0.0749;-0.8099;
795.9000;0.0708;-0.8232;
796.2000;0.0716;-0.8232;
796.5000;0.0724;-0.8276;
796.8000;0.0773;-0.8121;
797.1000;0.0724;-0.8320;
797.4000;0.0708;-0.8409;
797.7000;0.0733;-0.8364;
798.0000;0.0863;-0.8055;
798.3000;0.0684;-0.8409;
798.6000;0.0692;-0.8453;
798.9000;0.0635;-0.8696;
799.2000;0.0716;-0.8564;
799.5000;0.0781;-0.8387;
799.8000;0.0733;-0.8519;
800.1000;0.0716;-0.8541;
800.4000;0.0659;-0.8718;
800.7000;0.0741;-0.8497;
801.0000;0.0700;-0.8519;
801.3000;0.0716;-0.8387;
801.6000;0.0716;-0.8387;
801.9000;0.0741;-0.8276;
802.2000;0.0708;-0.8232;
802.5000;0.0733;-0.8143;
802.8000;0.0700;-0.8254;
803.1000;0.0700;-0.8187;
803.4000;0.0741;-0.8165;
803.7000;0.0692;-0.8254;
804.0000;0.0692;-0.8254;
804.3000;0.0676;-0.8298;
804.6000;0.0757;-0.8143;
804.9000;0.0700;-0.8342;
805.2000;0.0724;-0.8165;
805.5000;0.0724;-0.8232;
805.8000;0.0773;-0.8055;
806.1000;0.0676;-0.8276;
806.4000;0.0757;-0.8121;
806.7000;0.0716;-0.8232;
807.0000;0.0700;-0.8232;
807.3000;0.0700;-0.8143;
807.6000;0.0684;-0.8143;
807.9000;0.0676;-0.8232;
808.2000;0.0611;-0.8453;
808.5000;0.0741;-0.8143;
808.8000;0.0757;-0.8077;
809.1000;0.0814;-0.7944;
809.4000;0.0733;-0.8143;
809.7000;0.0733;-0.8121;
810.0000;0.0741;-0.8165;
810.3000;0.0708;-0.8143;
810.6000;0.0700;-0.8033;
810.9000;0.0733;-0.7966;
811.2000;0.0724;-0.8055;
811.5000;0.0741;-0.8033;
811.8000;0.0708;-0.8165;
812.1000;0.0692;-0.8165;
812.4000;0.0798;-0.7966;
812.7000;0.0684;-0.8210;
813.0000;0.0741;-0.8055;
813.3000;0.0724;-0.8055;
813.6000;0.0716;-0.8055;
813.9000;0.0733;-0.8010;
814.2000;0.0749;-0.7900;
814.5000;0.0765;-0.7855;
814.8000;0.0716;-0.7966;
815.1000;0.0757;-0.7811;
815.4000;0.0708;-0.8010;
815.7000;0.0733;-0.7900;
816.0000;0.0716;-0.7833;
816.3000;0.0741;-0.7767;
816.6000;0.0659;-0.8055;
816.9000;0.0724;-0.7922;
817.2000;0.0724;-0.7922;
817.5000;0.0724;-0.7966;
817.8000;0.0798;-0.7789;
818.1000;0.0716;-0.8033;
818.4000;0.0749;-0.7988;
818.7000;0.0733;-0.8055;
819.0000;0.0692;-0.8077;
819.3000;0.0708;-0.8099;
819.6000;0.0700;-0.8165;
819.9000;0.0716;-0.8143;
820.2000;0.0724;-0.8121;
820.5000;0.0724;-0.8099;
820.8000;0.0692;-0.8187;
821.1000;0.0773;-0.7988;
821.4000;0.0708;-0.8099;
821.7000;0.0716;-0.8165;
822.0000;0.0765;-0.8121;
822.3000;0.0790;-0.8010;
822.6000;0.0741;-0.8121;
822.9000;0.0708;-0.8254;
823.2000;0.0724;-0.8254;
823.5000;0.0749;-0.8210;
823.8000;0.0724;-0.8254;
824.1000;0.0724;-0.8276;
824.4000;0.0724;-0.8165;
824.7000;0.0700;-0.8210;
825.0000;0.0733;-0.8055;
825.3000;0.0684;-0.8077;
825.6000;0.0700;-0.8077;
825.9000;0.0847;-0.7811;
826.2000;0.0749;-0.8055;
826.5000;0.0692;-0.8165;
826.8000;0.0716;-0.8165;
827.1000;0.0733;-0.8187;
827.4000;0.0781;-0.7988;
827.7000;0.0716;-0.8121;
828.0000;0.0659;-0.8187;
828.3000;0.0724;-0.8099;
828.6000;0.0708;-0.8121;
828.9000;0.0741;-0.8033;
829.2000;0.0773;-0.7944;
829.5000;0.0741;-0.8033;
829.8000;0.0545;-0.8475;
830.1000;0.0830;-0.7833;
830.4000;0.0733;-0.8033;
830.7000;0.0708;-0.8033;
831.0000;0.0741;-0.7988;
831.3000;0.0838;-0.7855;
831.6000;0.0749;-0.8187;
831.9000;0.0716;-0.8298;
832.2000;0.0708;-0.8342;
832.5000;0.0741;-0.8254;
832.8000;0.0757;-0.8298;
833.1000;0.0741;-0.8298;
833.4000;0.0733;-0.8210;
833.7000;0.0716;-0.8210;
834.0000;0.0749;-0.8121;
834.3000;0.0708;-0.8165;
834.6000;0.0724;-0.8099;
834.9000;0.0724;-0.8077;
835.2000;0.0741;-0.8010;
835.5000;0.0700;-0.8121;
835.8000;0.0684;-0.8143;
836.1000;0.0716;-0.8121;
836.4000;0.0741;-0.8099;
836.7000;0.0733;-0.8210;
837.0000;0.0708;-0.8276;
837.3000;0.0733;-0.8187;
837.6000;0.0716;-0.8165;
837.9000;0.0741;-0.8099;
838.2000;0.0749;-0.8033;
838.5000;0.0700;-0.8187;
838.8000;0.0724;-0.8121;
839.1000;0.0700;-0.8010;
839.4000;0.0708;-0.7988;
839.7000;0.0822;-0.7701;
840.0000;0.0790;-0.7723;
840.3000;0.0684;-0.8010;
840.6000;0.0716;-0.7900;
840.9000;0.0716;-0.7878;
841.2000;0.0692;-0.7966;
841.5000;0.0749;-0.7900;
841.8000;0.0716;-0.7966;
842.1000;0.0700;-0.8077;
842.4000;0.0708;-0.8033;
842.7000;0.0749;-0.7966;
843.0000;0.0741;-0.8033;
843.3000;0.0708;-0.8099;
843.6000;0.0724;-0.8077;
843.9000;0.0716;-0.8143;
844.2000;0.0757;-0.7922;
844.5000;0.0627;-0.8254;
844.8000;0.0724;-0.8033;
845.1000;0.0643;-0.8232;
845.4000;0.0716;-0.8121;
845.7000;0.0716;-0.8077;
846.0000;0.0651;-0.8210;
846.3000;0.0733;-0.8143;
846.6000;0.0708;-0.8210;
846.9000;0.0716;-0.8121;
847.2000;0.0741;-0.7988;
847.5000;0.0716;-0.7944;
847.8000;0.0724;-0.7944;
848.1000;0.0708;-0.7878;
848.4000;0.0700;-0.7789;
848.7000;0.0700;-0.7878;
849.0000;0.0700;-0.7900;
849.3000;0.0700;-0.7922;
849.6000;0.0692;-0.7966;
849.9000;0.0724;-0.7922;
850.2000;0.0724;-0.7944;
850.5000;0.0700;-0.7988;
850.8000;0.0684;-0.8099;
851.1000;0.0724;-0.8121;
851.4000;0.0733;-0.8121;
851.7000;0.0741;-0.8143;
852.0000;0.0716;-0.8254;
852.3000;0.0724;-0.8187;
852.6000;0.0716;-0.8187;
852.9000;0.0749;-0.8165;
853.2000;0.0724;-0.8143;
853.5000;0.0708;-0.8165;
853.8000;0.0667;-0.8298;
854.1000;0.0684;-0.8232;
854.4000;0.0700;-0.8187;
854.7000;0.0692;-0.8210;
855.0000;0.0594;-0.8541;
855.3000;0.0855;-0.7855;
855.6000;0.0716;-0.8165;
855.9000;0.0716;-0.8121;
856.2000;0.0700;-0.8121;
856.5000;0.0716;-0.7988;
856.8000;0.0724;-0.8033;
857.1000;0.0700;-0.8210;
857.4000;0.0700;-0.8165;
857.7000;0.0708;-0.8210;
858.0000;0.0757;-0.8077;
858.3000;0.0749;-0.8055;
858.6000;0.0733;-0.8099;
858.9000;0.0716;-0.8055;
859.2000;0.0733;-0.7922;
859.5000;0.0716;-0.7922;
859.8000;0.0733;-0.7900;
860.1000;0.0724;-0.7811;
860.4000;0.0733;-0.7767;
860.7000;0.0724;-0.7789;
861.0000;0.0724;-0.7789;
861.3000;0.0749;-0.7701;
861.6000;0.0822;-0.7590;
861.9000;0.0708;-0.7833;
862.2000;0.0716;-0.7855;
862.5000;0.0708;-0.7922;
862.8000;0.0716;-0.7878;
863.1000;0.0741;-0.7900;
863.4000;0.0757;-0.7789;
863.7000;0.0724;-0.7900;
864.0000;0.0741;-0.7833;
864.3000;0.0733;-0.7944;
864.6000;0.0692;-0.8010;
864.9000;0.0724;-0.7988;
865.2000;0.0741;-0.8033;
865.5000;0.0692;-0.8165;
865.8000;0.0724;-0.8143;
866.1000;0.0716;-0.8165;
866.4000;0.0700;-0.8165;
866.7000;0.0822;-0.7833;
867.0000;0.0741;-0.7966;
867.3000;0.0757;-0.7767;
867.6000;0.0724;-0.7900;
867.9000;0.0724;-0.7922;
868.2000;0.0708;-0.8099;
868.5000;0.0716;-0.8143;
868.8000;0.0700;-0.8165;
869.1000;0.0716;-0.8232;
869.4000;0.0676;-0.8187;
869.7000;0.0692;-0.8143;
870.0000;0.0643;-0.8210;
870.3000;0.0716;-0.8033;
870.6000;0.0733;-0.7900;
870.9000;0.0692;-0.7966;
871.2000;0.0757;-0.7855;
871.5000;0.0716;-0.8010;
871.8000;0.0700;-0.8077;
872.1000;0.0716;-0.8055;
872.4000;0.0708;-0.8099;
872.7000;0.0741;-0.8055;
873.0000;0.0749;-0.8121;
873.3000;0.0716;-0.8232;
873.6000;0.0724;-0.8187;
873.9000;0.0716;-0.8165;
874.2000;0.0716;-0.8121;
874.5000;0.0708;-0.8055;
874.8000;0.0667;-0.8187;
875.1000;0.0708;-0.8165;
875.4000;0.0716;-0.8165;
875.7000;0.0659;-0.8276;
876.0000;0.0733;-0.8077;
876.3000;0.0724;-0.8077;
876.6000;0.0733;-0.8099;
876.9000;0.0741;-0.8121;
877.2000;0.0716;-0.8143;
877.5000;0.0724;-0.8143;
877.8000;0.0733;-0.8121;
878.1000;0.0798;-0.7900;
878.4000;0.0733;-0.8055;
878.7000;0.0749;-0.7922;
879.0000;0.0700;-0.8010;
879.3000;0.0749;-0.7966;
879.6000;0.0733;-0.7988;
879.9000;0.0676;-0.8143;
880.2000;0.0733;-0.8033;
880.5000;0.0733;-0.8077;
880.8000;0.0724;-0.8055;
881.1000;0.0716;-0.8121;
881.4000;0.0692;-0.8187;
881.7000;0.0724;-0.8165;
882.0000;0.0716;-0.8187;
882.3000;0.0749;-0.8099;
882.6000;0.0733;-0.8165;
882.9000;0.0708;-0.8099;
883.2000;0.0741;-0.7944;
883.5000;0.0708;-0.8099;
883.8000;0.0692;-0.8121;
884.1000;0.0749;-0.7966;
884.4000;0.0781;-0.7900;
884.7000;0.0716;-0.8077;
885.0000;0.0724;-0.8055;
885.3000;0.0692;-0.8077;
885.6000;0.0692;-0.8143;
885.9000;0.0667;-0.8298;
886.2000;0.0724;-0.8077;
886.5000;0.0822;-0.7855;
886.8000;0.0716;-0.8077;
887.1000;0.0724;-0.8143;
887.4000;0.0497;-0.8718;
887.7000;0.0708;-0.8099;
888.0000;0.0700;-0.8143;
888.3000;0.0741;-0.8010;
888.6000;0.0611;-0.8298;
888.9000;0.0741;-0.7988;
889.2000;0.0667;-0.8187;
889.5000;0.0798;-0.7922;
889.8000;0.0635;-0.8320;
890.1000;0.0716;-0.8099;
890.4000;0.0716;-0.8165;
890.7000;0.0733;-0.8143;
891.0000;0.0700;-0.8187;
891.3000;0.0708;-0.8210;
891.6000;0.0724;-0.8143;
891.9000;0.0733;-0.8099;
892.2000;0.0781;-0.8010;
892.5000;0.0716;-0.8187;
892.8000;0.0692;-0.8143;
893.1000;0.0716;-0.8121;
893.4000;0.0733;-0.8099;
893.7000;0.0684;-0.8121;
894.0000;0.0724;-0.7988;
894.3000;0.0700;-0.8077;
894.6000;0.0700;-0.8099;
894.9000;0.0749;-0.8099;
895.2000;0.0716;-0.8232;
895.5000;0.0708;-0.8276;
895.8000;0.0733;-0.8165;
896.1000;0.0724;-0.8210;
896.4000;0.0733;-0.8210;
896.7000;0.0708;-0.8298;
897.0000;0.0692;-0.8320;
897.3000;0.0773;-0.8187;
897.6000;0.0692;-0.8276;
897.9000;0.0814;-0.8033;
898.2000;0.0700;-0.8276;
898.5000;0.0716;-0.8254;
898.8000;0.0708;-0.8298;
899.1000;0.0716;-0.8409;
899.4000;0.0724;-0.8298;
899.7000;0.0741;-0.8276;
900.0000;0.0708;-0.8364;
900.3000;0.0724;-0.8276;
900.6000;0.0708;-0.8210;
900.9000;0.0781;-0.8055;
901.2000;0.0700;-0.8276;
901.5000;0.0708;-0.8254;
901.8000;0.0749;-0.8121;
902.1000;0.0781;-0.7966;
902.4000;0.0749;-0.7944;
902.7000;0.0733;-0.7966;
903.0000;0.0643;-0.8210;
903.3000;0.0635;-0.8254;
903.6000;0.0790;-0.8077;
903.9000;0.0692;-0.8232;
904.2000;0.0716;-0.8143;
904.5000;0.0724;-0.8121;
904.8000;0.0733;-0.8121;
905.1000;0.0749;-0.8121;
905.4000;0.0806;-0.8055;
905.7000;0.0724;-0.8298;
906.0000;0.0741;-0.8254;
906.3000;0.0692;-0.8342;
906.6000;0.0724;-0.8210;
906.9000;0.0741;-0.8143;
907.2000;0.0692;-0.8210;
907.5000;0.0773;-0.8033;
907.8000;0.0733;-0.8121;
908.1000;0.0692;-0.8232;
908.4000;0.0708;-0.8320;
908.7000;0.0741;-0.8364;
909.0000;0.0733;-0.8320;
909.3000;0.0716;-0.8298;
909.6000;0.0716;-0.8342;
909.9000;0.0716;-0.8342;
910.2000;0.0716;-0.8342;
910.5000;0.0716;-0.8342;
910.8000;0.0700;-0.8342;
911.1000;0.0733;-0.8187;
911.4000;0.0692;-0.8254;
911.7000;0.0708;-0.8187;
912.0000;0.0708;-0.8099;
912.3000;0.0692;-0.8099;
912.6000;0.0741;-0.8099;
912.9000;0.0741;-0.8077;
913.2000;0.0716;-0.8121;
913.5000;0.0692;-0.8187;
913.8000;0.0741;-0.8165;
914.1000;0.0733;-0.8143;
914.4000;0.0765;-0.8010;
914.7000;0.0716;-0.8210;
915.0000;0.0684;-0.8165;
915.3000;0.0806;-0.7878;
915.6000;0.0724;-0.8077;
915.9000;0.0724;-0.8010;
916.2000;0.0765;-0.7900;
916.5000;0.0724;-0.8055;
916.8000;0.0749;-0.8055;
917.1000;0.0847;-0.7811;
917.4000;0.0611;-0.8387;
917.7000;0.0773;-0.8033;
918.0000;0.0830;-0.7789;
918.3000;0.0733;-0.7966;
918.6000;0.0733;-0.7944;
918.9000;0.0790;-0.7878;
919.2000;0.0651;-0.8165;
919.5000;0.0733;-0.8055;
919.8000;0.0724;-0.8210;
920.1000;0.0741;-0.8210;
920.4000;0.0733;-0.8232;
920.7000;0.0716;-0.8165;
921.0000;0.0724;-0.8143;
921.3000;0.0684;-0.8298;
921.6000;0.0724;-0.8165;
921.9000;0.0724;-0.8165;
922.2000;0.0716;-0.8187;
922.5000;0.0700;-0.8232;
922.8000;0.0749;-0.8143;
923.1000;0.0667;-0.8276;
923.4000;0.0724;-0.8165;
923.7000;0.0708;-0.8165;
924.0000;0.0554;-0.8519;
924.3000;0.0724;-0.8077;
924.6000;0.0724;-0.8055;
924.9000;0.0806;-0.7966;
925.2000;0.0814;-0.7944;
925.5000;0.0733;-0.8187;
925.8000;0.0692;-0.8276;
926.1000;0.0716;-0.8276;
926.4000;0.0733;-0.8210;
926.7000;0.0724;-0.8276;
927.0000;0.0684;-0.8320;
927.3000;0.0716;-0.8165;
927.6000;0.0733;-0.8055;
927.9000;0.0700;-0.8055;
928.2000;0.0676;-0.8210;
928.5000;0.0708;-0.8121;
928.8000;0.0741;-0.7988;
929.1000;0.0733;-0.8099;
929.4000;0.0716;-0.8121;
929.7000;0.0716;-0.8143;
930.0000;0.0708;-0.8077;
930.3000;0.0724;-0.8033;
930.6000;0.0733;-0.7988;
930.9000;0.0765;-0.7922;
931.2000;0.0700;-0.8210;
931.5000;0.0733;-0.8143;
931.8000;0.0700;-0.8165;
932.1000;0.0724;-0.8143;
932.4000;0.0708;-0.8342;
932.7000;0.0708;-0.8320;
933.0000;0.0749;-0.8276;
933.3000;0.0700;-0.8431;
933.6000;0.0733;-0.8320;
933.9000;0.0708;-0.8320;
934.2000;0.0757;-0.8165;
934.5000;0.0716;-0.8320;
934.8000;0.0724;-0.8342;
935.1000;0.0716;-0.8431;
935.4000;0.0724;-0.8409;
935.7000;0.0700;-0.8453;
936.0000;0.0733;-0.8364;
936.3000;0.0724;-0.8320;
936.6000;0.0733;-0.8320;
936.9000;0.0733;-0.8320;
937.2000;0.0838;-0.8055;
937.5000;0.0781;-0.8121;
937.8000;0.0692;-0.8342;
938.1000;0.0659;-0.8519;
938.4000;0.0619;-0.8475;
938.7000;0.0708;-0.8232;
939.0000;0.0700;-0.8232;
939.3000;0.0716;-0.8276;
939.6000;0.0659;-0.8387;
939.9000;0.0708;-0.8276;
940.2000;0.0724;-0.8276;
940.5000;0.0667;-0.8431;
940.8000;0.0741;-0.8254;
941.1000;0.0692;-0.8276;
941.4000;0.0741;-0.8121;
941.7000;0.0741;-0.8010;
942.0000;0.0733;-0.8055;
942.3000;0.0716;-0.8010;
942.6000;0.0724;-0.8099;
942.9000;0.0733;-0.8033;
943.2000;0.0724;-0.7988;
943.5000;0.0724;-0.7944;
943.8000;0.0676;-0.8143;
944.1000;0.0724;-0.8099;
944.4000;0.0733;-0.8143;
944.7000;0.0716;-0.8165;
945.0000;0.0765;-0.7988;
945.3000;0.0724;-0.8055;
945.6000;0.0724;-0.8033;
945.9000;0.0659;-0.8121;
946.2000;0.0724;-0.7922;
946.5000;0.0741;-0.7922;
946.8000;0.0749;-0.7966;
947.1000;0.0700;-0.7966;
947.4000;0.0716;-0.7944;
947.7000;0.0733;-0.7944;
948.0000;0.0708;-0.7988;
948.3000;0.0692;-0.8033;
948.6000;0.0716;-0.8077;
948.9000;0.0692;-0.8033;
949.2000;0.0741;-0.7878;
949.5000;0.0716;-0.7944;
949.8000;0.0724;-0.7988;
950.1000;0.0733;-0.8010;
950.4000;0.0733;-0.8033;
950.7000;0.0724;-0.8077;
951.0000;0.0749;-0.7944;
951.3000;0.0700;-0.8077;
951.6000;0.0741;-0.8077;
951.9000;0.0741;-0.7988;
952.2000;0.0733;-0.8055;
952.5000;0.0741;-0.8099;
952.8000;0.0724;-0.8121;
953.1000;0.0733;-0.8143;
953.4000;0.0716;-0.8143;
953.7000;0.0708;-0.8187;
954.0000;0.0724;-0.8165;
954.3000;0.0708;-0.8121;
954.6000;0.0700;-0.8010;
954.9000;0.0716;-0.8033;
955.2000;0.0643;-0.8121;
955.5000;0.0708;-0.7922;
955.8000;0.0757;-0.7833;
956.1000;0.0716;-0.8010;
956.4000;0.0716;-0.8033;
956.7000;0.0724;-0.8055;
957.0000;0.0716;-0.8165;
957.3000;0.0733;-0.8187;
957.6000;0.0724;-0.8232;
957.9000;0.0806;-0.8121;
958.2000;0.0692;-0.8387;
958.5000;0.0733;-0.8409;
958.8000;0.0716;-0.8364;
959.1000;0.0716;-0.8364;
959.4000;0.0733;-0.8342;
959.7000;0.0667;-0.8519;
960.0000;0.0733;-0.8431;
960.3000;0.0684;-0.8497;
960.6000;0.0733;-0.8298;
960.9000;0.0716;-0.8298;
961.2000;0.0716;-0.8254;
961.5000;0.0716;-0.8298;
961.8000;0.0708;-0.8187;
962.1000;0.0724;-0.8143;
962.4000;0.0700;-0.8298;
962.7000;0.0716;-0.8232;
963.0000;0.0741;-0.8143;
963.3000;0.0708;-0.8143;
963.6000;0.0724;-0.8077;
963.9000;0.0733;-0.8010;
964.2000;0.0716;-0.8099;
964.5000;0.0700;-0.8143;
964.8000;0.0708;-0.8143;
965.1000;0.0724;-0.8121;
965.4000;0.0700;-0.8187;
965.7000;0.0749;-0.8010;
966.0000;0.0773;-0.7966;
966.3000;0.0708;-0.8055;
966.6000;0.0724;-0.8055;
966.9000;0.0733;-0.8033;
967.2000;0.0724;-0.8033;
967.5000;0.0716;-0.7966;
967.8000;0.0741;-0.7855;
968.1000;0.0724;-0.7878;
968.4000;0.0700;-0.7900;
968.7000;0.0676;-0.7988;
969.0000;0.0724;-0.7900;
969.3000;0.0684;-0.8055;
969.6000;0.0757;-0.7922;
969.9000;0.0733;-0.7944;
970.2000;0.0773;-0.7833;
970.5000;0.0724;-0.7944;
970.8000;0.0733;-0.7900;
971.1000;0.0757;-0.7789;
971.4000;0.0716;-0.7922;
971.7000;0.0733;-0.7878;
972.0000;0.0724;-0.7944;
972.3000;0.0716;-0.8055;
972.6000;0.0724;-0.8099;
972.9000;0.0643;-0.8320;
973.2000;0.0700;-0.8165;
973.5000;0.0708;-0.8165;
973.8000;0.0700;-0.8121;
974.1000;0.0716;-0.8033;
974.4000;0.0733;-0.7922;
974.7000;0.0733;-0.7900;
975.0000;0.0773;-0.7922;
975.3000;0.0716;-0.7878;
975.6000;0.0700;-0.7944;
975.9000;0.0716;-0.7900;
976.2000;0.0733;-0.7922;
976.5000;0.0749;-0.7944;
976.8000;0.0733;-0.8010;
977.1000;0.0716;-0.7966;
977.4000;0.0790;-0.7701;
977.7000;0.0741;-0.7811;
978.0000;0.0708;-0.7878;
978.3000;0.0708;-0.7944;
978.6000;0.0733;-0.7855;
978.9000;0.0700;-0.7922;
979.2000;0.0700;-0.8055;
979.5000;0.0700;-0.7966;
979.8000;0.0733;-0.7900;
980.1000;0.0708;-0.7900;
980.4000;0.0659;-0.8010;
980.7000;0.0733;-0.7900;
981.0000;0.0814;-0.7767;
981.3000;0.0724;-0.8055;
981.6000;0.0773;-0.7855;
981.9000;0.0724;-0.8033;
982.2000;0.0716;-0.8055;
982.5000;0.0733;-0.7944;
982.8000;0.0741;-0.7966;
983.1000;0.0724;-0.8010;
983.4000;0.0757;-0.7944;
983.7000;0.0749;-0.8033;
984.0000;0.0741;-0.8099;
984.3000;0.0724;-0.8143;
984.6000;0.0708;-0.8165;
984.9000;0.0724;-0.8033;
985.2000;0.0684;-0.8099;
985.5000;0.0724;-0.7988;
985.8000;0.0741;-0.7988;
986.1000;0.0643;-0.8254;
986.4000;0.0700;-0.8143;
986.7000;0.0716;-0.8143;
987.0000;0.0757;-0.8033;
987.3000;0.0659;-0.8165;
987.6000;0.0741;-0.8010;
987.9000;0.0708;-0.8077;
988.2000;0.0692;-0.8143;
988.5000;0.0716;-0.8210;
988.8000;0.0733;-0.8210;
989.1000;0.0708;-0.8232;
989.4000;0.0724;-0.8232;
989.7000;0.0716;-0.8364;
990.0000;0.0692;-0.8387;
990.3000;0.0708;-0.8320;
990.6000;0.0708;-0.8254;
990.9000;0.0716;-0.8187;
991.2000;0.0733;-0.8187;
991.5000;0.0700;-0.8210;
991.8000;0.0716;-0.8099;
992.1000;0.0798;-0.7988;
992.4000;0.0749;-0.7966;
992.7000;0.0733;-0.8055;
993.0000;0.0781;-0.8121;
993.3000;0.0724;-0.8232;
993.6000;0.0724;-0.8232;
993.9000;0.0643;-0.8409;
994.2000;0.0741;-0.8121;
994.5000;0.0700;-0.8210;
994.8000;0.0716;-0.8165;
995.1000;0.0773;-0.7988;
995.4000;0.0724;-0.8121;
995.7000;0.0708;-0.8254;
996.0000;0.0700;-0.8342;
996.3000;0.0708;-0.8210;
996.6000;0.0724;-0.8187;
996.9000;0.0741;-0.8165;
997.2000;0.0733;-0.8254;
997.5000;0.0724;-0.8276;
997.8000;0.0724;-0.8143;
998.1000;0.0700;-0.8165;
998.4000;0.0741;-0.8099;
998.7000;0.0708;-0.8121;
999.0000;0.0651;-0.8276;
999.3000;0.0684;-0.8143;
999.6000;0.0708;-0.8187;
999.9000;0.0724;-0.8099;
1000.2000;0.0643;-0.8320;
1000.5000;0.0708;-0.8143;
1000.8000;0.0733;-0.8033;
1001.1000;0.0716;-0.8010;
1001.4000;0.0757;-0.7855;
1001.7000;0.0676;-0.8033;
1002.0000;0.0773;-0.7833;
1002.3000;0.0684;-0.8033;
1002.6000;0.0724;-0.7988;
1002.9000;0.0700;-0.8010;
1003.2000;0.0733;-0.7855;
1003.5000;0.0773;-0.7789;
1003.8000;0.0651;-0.8055;
1004.1000;0.0700;-0.7988;
1004.4000;0.0765;-0.7811;
1004.7000;0.0733;-0.7966;
1005.0000;0.0708;-0.8055;
1005.3000;0.0700;-0.8121;
1005.6000;0.0708;-0.8187;
1005.9000;0.0757;-0.8165;
1006.2000;0.0773;-0.8121;
1006.5000;0.0724;-0.8210;
1006.8000;0.0733;-0.8187;
1007.1000;0.0757;-0.8099;
1007.4000;0.0692;-0.8187;
1007.7000;0.0684;-0.8187;
1008.0000;0.0749;-0.8033;
1008.3000;0.0716;-0.8099;
1008.6000;0.0667;-0.8210;
1008.9000;0.0733;-0.8099;
1009.2000;0.0716;-0.8099;
1009.5000;0.0700;-0.8143;
1009.8000;0.0708;-0.8099;
1010.1000;0.0700;-0.8165;
1010.4000;0.0716;-0.8077;
1010.7000;0.0708;-0.8099;
1011.0000;0.0708;-0.8077;
1011.3000;0.0700;-0.8099;
1011.6000;0.0716;-0.8077;
1011.9000;0.0733;-0.8099;
1012.2000;0.0724;-0.8077;
1012.5000;0.0733;-0.8121;
1012.8000;0.0716;-0.8121;
1013.1000;0.0716;-0.8121;
1013.4000;0.0733;-0.8121;
1013.7000;0.0684;-0.8342;
1014.0000;0.0700;-0.8187;
1014.3000;0.0733;-0.8121;
1014.6000;0.0708;-0.8165;
1014.9000;0.0733;-0.8077;
1015.2000;0.0692;-0.8033;
1015.5000;0.0724;-0.8055;
1015.8000;0.0708;-0.8099;
1016.1000;0.0627;-0.8276;
1016.4000;0.0700;-0.8099;
1016.7000;0.0724;-0.8010;
1017.0000;0.0667;-0.8055;
1017.3000;0.0724;-0.7878;
1017.6000;0.0716;-0.7922;
1017.9000;0.0830;-0.7656;
1018.2000;0.0773;-0.7789;
1018.5000;0.0749;-0.7878;
1018.8000;0.0724;-0.7944;
1019.1000;0.0741;-0.7966;
1019.4000;0.0716;-0.8121;
1019.7000;0.0733;-0.8121;
1020.0000;0.0692;-0.8342;
1020.3000;0.0716;-0.8232;
1020.6000;0.0724;-0.8210;
1020.9000;0.0700;-0.8276;
1021.2000;0.0724;-0.8143;
1021.5000;0.0724;-0.8055;
1021.8000;0.0724;-0.8055;
1022.1000;0.0741;-0.8099;
1022.4000;0.0708;-0.8165;
1022.7000;0.0724;-0.8143;
1023.0000;0.0708;-0.8165;
1023.3000;0.0708;-0.8143;
1023.6000;0.0724;-0.8033;
1023.9000;0.0716;-0.8033;
1024.2000;0.0716;-0.8077;
1024.5000;0.0700;-0.8232;
1024.8000;0.0700;-0.8187;
1025.1000;0.0708;-0.8232;
1025.4000;0.0733;-0.8121;
1025.7000;0.0733;-0.8210;
1026.0000;0.0700;-0.8254;
1026.3000;0.0708;-0.8210;
1026.6000;0.0708;-0.8143;
1026.9000;0.0724;-0.8077;
1027.2000;0.0790;-0.7900;
1027.5000;0.0708;-0.7988;
1027.8000;0.0724;-0.7944;
1028.1000;0.0757;-0.7833;
1028.4000;0.0716;-0.7988;
1028.7000;0.0724;-0.7922;
1029.0000;0.0741;-0.7966;
1029.3000;0.0716;-0.8143;
1029.6000;0.0724;-0.8143;
1029.9000;0.0692;-0.8210;
1030.2000;0.0619;-0.8409;
1030.5000;0.0635;-0.8320;
1030.8000;0.0716;-0.8055;
1031.1000;0.0724;-0.8099;
1031.4000;0.0700;-0.8121;
1031.7000;0.0741;-0.8010;
1032.0000;0.0741;-0.7922;
1032.3000;0.0627;-0.8254;
1032.6000;0.0724;-0.8077;
1032.9000;0.0749;-0.7988;
1033.2000;0.0847;-0.7656;
1033.5000;0.0667;-0.7988;
1033.8000;0.0716;-0.7855;
1034.1000;0.0716;-0.7878;
1034.4000;0.0724;-0.7900;
1034.7000;0.0781;-0.7789;
1035.0000;0.0716;-0.7988;
1035.3000;0.0733;-0.7966;
1035.6000;0.0757;-0.7833;
1035.9000;0.0708;-0.7944;
1036.2000;0.0749;-0.7944;
1036.5000;0.0733;-0.8033;
1036.8000;0.0733;-0.8077;
1037.1000;0.0773;-0.8033;
1037.4000;0.0684;-0.8276;
1037.7000;0.0724;-0.8165;
1038.0000;0.0733;-0.8143;
1038.3000;0.0741;-0.8187;
1038.6000;0.0724;-0.8276;
1038.9000;0.0741;-0.8143;
1039.2000;0.0716;-0.8187;
1039.5000;0.0724;-0.8099;
1039.8000;0.0700;-0.8077;
1040.1000;0.0708;-0.8099;
1040.4000;0.0733;-0.8099;
1040.7000;0.0716;-0.8077;
1041.0000;0.0716;-0.8033;
1041.3000;0.0733;-0.8033;
1041.6000;0.0716;-0.8077;
1041.9000;0.0716;-0.8077;
1042.2000;0.0643;-0.8298;
1042.5000;0.0724;-0.8033;
1042.8000;0.0790;-0.7833;
1043.1000;0.0619;-0.8187;
1043.4000;0.0716;-0.7878;
1043.7000;0.0692;-0.7966;
1044.0000;0.0692;-0.8010;
1044.3000;0.0716;-0.7966;
1044.6000;0.0781;-0.7767;
1044.9000;0.0749;-0.7789;
1045.2000;0.0724;-0.7767;
1045.5000;0.0716;-0.7745;
1045.8000;0.0765;-0.7678;
1046.1000;0.0724;-0.7833;
1046.4000;0.0643;-0.8033;
1046.7000;0.0814;-0.7634;
1047.0000;0.0733;-0.7767;
1047.3000;0.0749;-0.7767;
1047.6000;0.0798;-0.7745;
1047.9000;0.0708;-0.7944;
1048.2000;0.0716;-0.7966;
1048.5000;0.0733;-0.7900;
1048.8000;0.0708;-0.8010;
1049.1000;0.0757;-0.7988;
1049.4000;0.0830;-0.7723;
1049.7000;0.0708;-0.8033;
1050.0000;0.0716;-0.7988;
1050.3000;0.0724;-0.7966;
1050.6000;0.0733;-0.8077;
1050.9000;0.0749;-0.8055;
1051.2000;0.0716;-0.8165;
1051.5000;0.0724;-0.8121;
1051.8000;0.0733;-0.8121;
1052.1000;0.0822;-0.7878;
1052.4000;0.0733;-0.8077;
1052.7000;0.0724;-0.8121;
1053.0000;0.0708;-0.8055;
1053.3000;0.0724;-0.8033;
1053.6000;0.0733;-0.7988;
1053.9000;0.0708;-0.8055;
1054.2000;0.0724;-0.8033;
1054.5000;0.0724;-0.8143;
1054.8000;0.0741;-0.8121;
1055.1000;0.0700;-0.8187;
1055.4000;0.0708;-0.8165;
1055.7000;0.0806;-0.7966;
1056.0000;0.0733;-0.8143;
1056.3000;0.0724;-0.8077;
1056.6000;0.0741;-0.7988;
1056.9000;0.0692;-0.8121;
1057.2000;0.0708;-0.8033;
1057.5000;0.0724;-0.8099;
1057.8000;0.0757;-0.8077;
1058.1000;0.0716;-0.8165;
1058.4000;0.0765;-0.8187;
1058.7000;0.0724;-0.8298;
1059.0000;0.0659;-0.8409;
1059.3000;0.0700;-0.8364;
1059.6000;0.0716;-0.8232;
1059.9000;0.0716;-0.8232;
1060.2000;0.0700;-0.8298;
1060.5000;0.0716;-0.8187;
1060.8000;0.0716;-0.8165;
1061.1000;0.0781;-0.8010;
1061.4000;0.0708;-0.8077;
1061.7000;0.0700;-0.8121;
1062.0000;0.0733;-0.8143;
1062.3000;0.0659;-0.8342;
1062.6000;0.0724;-0.8165;
1062.9000;0.0659;-0.8276;
1063.2000;0.0700;-0.8077;
1063.5000;0.0716;-0.8077;
1063.8000;0.0684;-0.8165;
1064.1000;0.0716;-0.8143;
1064.4000;0.0708;-0.8143;
1064.7000;0.0708;-0.8099;
1065.0000;0.0716;-0.8143;
1065.3000;0.0749;-0.8077;
1065.6000;0.0708;-0.8143;
1065.9000;0.0716;-0.8187;
1066.2000;0.0692;-0.8187;
1066.5000;0.0741;-0.8033;
1066.8000;0.0716;-0.8010;
1067.1000;0.0708;-0.8033;
1067.4000;0.0692;-0.8077;
1067.7000;0.0733;-0.8121;
1068.0000;0.0741;-0.8210;
1068.3000;0.0757;-0.8121;
1068.6000;0.0724;-0.8276;
1068.9000;0.0724;-0.8276;
1069.2000;0.0741;-0.8232;
1069.5000;0.0676;-0.8276;
1069.8000;0.0716;-0.8165;
1070.1000;0.0700;-0.8254;
1070.4000;0.0765;-0.7966;
1070.7000;0.0700;-0.8143;
1071.0000;0.0708;-0.8121;
1071.3000;0.0765;-0.8099;
1071.6000;0.0724;-0.8210;
1071.9000;0.0741;-0.8143;
1072.2000;0.0830;-0.7944;
1072.5000;0.0724;-0.8165;
1072.8000;0.0716;-0.8232;
1073.1000;0.0716;-0.8232;
1073.4000;0.0724;-0.8232;
1073.7000;0.0708;-0.8254;
1074.0000;0.0741;-0.8210;
1074.3000;0.0716;-0.8320;
1074.6000;0.0724;-0.8254;
1074.9000;0.0700;-0.8254;
1075.2000;0.0716;-0.8232;
1075.5000;0.0724;-0.8254;
1075.8000;0.0724;-0.8210;
1076.1000;0.0724;-0.8187;
1076.4000;0.0749;-0.8121;
1076.7000;0.0757;-0.8121;
1077.0000;0.0708;-0.8298;
1077.3000;0.0700;-0.8320;
1077.6000;0.0733;-0.8232;
1077.9000;0.0765;-0.8099;
1078.2000;0.0627;-0.8409;
1078.5000;0.0724;-0.8232;
1078.8000;0.0708;-0.8210;
1079.1000;0.0724;-0.8187;
1079.4000;0.0741;-0.8121;
1079.7000;0.0741;-0.8121;
1080.0000;0.0749;-0.8099;
1080.3000;0.0733;-0.8143;
1080.6000;0.0716;-0.8232;
1080.9000;0.0602;-0.8409;
1081.2000;0.0619;-0.8364;
1081.5000;0.0733;-0.8187;
1081.8000;0.0708;-0.8298;
1082.1000;0.0684;-0.8364;
1082.4000;0.0708;-0.8276;
1082.7000;0.0724;-0.8298;
1083.0000;0.0708;-0.8320;
1083.3000;0.0708;-0.8276;
1083.6000;0.0724;-0.8232;
1083.9000;0.0692;-0.8276;
1084.2000;0.0733;-0.8143;
1084.5000;0.0733;-0.8143;
1084.8000;0.0724;-0.8210;
1085.1000;0.0724;-0.8210;
1085.4000;0.0724;-0.8254;
1085.7000;0.0716;-0.8320;
1086.0000;0.0716;-0.8276;
1086.3000;0.0757;-0.8165;
1086.6000;0.0708;-0.8187;
1086.9000;0.0724;-0.8187;
1087.2000;0.0635;-0.8342;
1087.5000;0.0733;-0.8210;
1087.8000;0.0724;-0.8187;
1088.1000;0.0749;-0.8143;
1088.4000;0.0700;-0.8254;
1088.7000;0.0724;-0.8276;
1089.0000;0.0749;-0.8254;
1089.3000;0.0692;-0.8320;
1089.6000;0.0708;-0.8254;
1089.9000;0.0684;-0.8320;
1090.2000;0.0757;-0.8210;
1090.5000;0.0716;-0.8276;
1090.8000;0.0700;-0.8320;
1091.1000;0.0773;-0.8232;
1091.4000;0.0716;-0.8342;
1091.7000;0.0741;-0.8342;
1092.0000;0.0692;-0.8453;
1092.3000;0.0733;-0.8453;
1092.6000;0.0716;-0.8431;
1092.9000;0.0700;-0.8453;
1093.2000;0.0822;-0.8232;
1093.5000;0.0708;-0.8475;
1093.8000;0.0716;-0.8409;
1094.1000;0.0643;-0.8541;
1094.4000;0.0627;-0.8475;
1094.7000;0.0716;-0.8121;
1095.0000;0.0708;-0.8077;
1095.3000;0.0716;-0.8121;
1095.6000;0.0708;-0.8210;
1095.9000;0.0724;-0.8121;
1096.2000;0.0724;-0.8099;
1096.5000;0.0716;-0.8143;
1096.8000;0.0716;-0.8099;
1097.1000;0.0733;-0.8055;
1097.4000;0.0692;-0.8099;
1097.7000;0.0724;-0.8033;
1098.0000;0.0806;-0.7944;
1098.3000;0.0700;-0.8254;
1098.6000;0.0700;-0.8232;
1098.9000;0.0724;-0.8165;
1099.2000;0.0716;-0.8187;
1099.5000;0.0733;-0.8254;
1099.8000;0.0716;-0.8298;
1100.1000;0.0692;-0.8320;
1100.4000;0.0716;-0.8254;
1100.7000;0.0724;-0.8276;
1101.0000;0.0757;-0.8210;
1101.3000;0.0716;-0.8276;
1101.6000;0.0716;-0.8254;
1101.9000;0.0708;-0.8320;
1102.2000;0.0692;-0.8342;
1102.5000;0.0700;-0.8342;
1102.8000;0.0716;-0.8298;
1103.1000;0.0708;-0.8342;
1103.4000;0.0643;-0.8453;
1103.7000;0.0700;-0.8320;
1104.0000;0.0716;-0.8364;
1104.3000;0.0700;-0.8364;
1104.6000;0.0700;-0.8342;
1104.9000;0.0692;-0.8276;
1105.2000;0.0708;-0.8187;
1105.5000;0.0716;-0.8121;
1105.8000;0.0716;-0.8143;
1106.1000;0.0676;-0.8254;
1106.4000;0.0724;-0.8099;
1106.7000;0.0724;-0.8099;
1107.0000;0.0651;-0.8254;
1107.3000;0.0684;-0.8232;
1107.6000;0.0708;-0.8187;
1107.9000;0.0724;-0.8320;
1108.2000;0.0724;-0.8298;
1108.5000;0.0724;-0.8276;
1108.8000;0.0700;-0.8320;
1109.1000;0.0635;-0.8431;
1109.4000;0.0716;-0.8187;
1109.7000;0.0700;-0.8276;
1110.0000;0.0700;-0.8298;
1110.3000;0.0773;-0.8121;
1110.6000;0.0733;-0.8276;
1110.9000;0.0724;-0.8232;
1111.2000;0.0700;-0.8342;
1111.5000;0.0741;-0.8254;
1111.8000;0.0790;-0.8033;
1112.1000;0.0741;-0.8121;
1112.4000;0.0724;-0.8232;
1112.7000;0.0749;-0.8254;
1113.0000;0.0708;-0.8320;
1113.3000;0.0716;-0.8210;
1113.6000;0.0708;-0.8320;
1113.9000;0.0724;-0.8232;
1114.2000;0.0716;-0.8232;
1114.5000;0.0716;-0.8276;
1114.8000;0.0700;-0.8298;
1115.1000;0.0708;-0.8276;
1115.4000;0.0692;-0.8364;
1115.7000;0.0724;-0.8276;
1116.0000;0.0741;-0.8187;
1116.3000;0.0708;-0.8298;
1116.6000;0.0773;-0.8077;
1116.9000;0.0724;-0.8187;
1117.2000;0.0700;-0.8187;
1117.5000;0.0724;-0.8187;
1117.8000;0.0708;-0.8210;
1118.1000;0.0749;-0.7966;
1118.4000;0.0716;-0.8055;
1118.7000;0.0716;-0.8033;
1119.0000;0.0684;-0.8165;
1119.3000;0.0708;-0.8121;
1119.6000;0.0716;-0.8121;
1119.9000;0.0708;-0.8121;
1120.2000;0.0692;-0.8143;
1120.5000;0.0716;-0.7988;
1120.8000;0.0733;-0.7988;
1121.1000;0.0724;-0.8010;
1121.4000;0.0757;-0.7944;
1121.7000;0.0733;-0.8055;
1122.0000;0.0733;-0.7988;
1122.3000;0.0741;-0.8010;
1122.6000;0.0733;-0.8033;
1122.9000;0.0814;-0.7900;
1123.2000;0.0708;-0.8121;
1123.5000;0.0716;-0.8033;
1123.8000;0.0708;-0.8077;
1124.1000;0.0676;-0.8165;
1124.4000;0.0716;-0.8099;
1124.7000;0.0651;-0.8232;
1125.0000;0.0716;-0.8055;
1125.3000;0.0708;-0.8055;
1125.6000;0.0692;-0.8055;
1125.9000;0.0847;-0.7678;
1126.2000;0.0716;-0.7988;
1126.5000;0.0627;-0.8099;
1126.8000;0.0716;-0.8033;
1127.1000;0.0806;-0.7767;
1127.4000;0.0765;-0.7944;
1127.7000;0.0733;-0.8033;
1128.0000;0.0757;-0.7922;
1128.3000;0.0716;-0.8010;
1128.6000;0.0708;-0.8033;
1128.9000;0.0716;-0.7966;
1129.2000;0.0716;-0.7944;
1129.5000;0.0733;-0.7966;
1129.8000;0.0716;-0.8077;
1130.1000;0.0692;-0.8077;
1130.4000;0.0708;-0.8033;
1130.7000;0.0724;-0.8055;
1131.0000;0.0635;-0.8298;
1131.3000;0.0708;-0.8254;
1131.6000;0.0716;-0.8276;
1131.9000;0.0708;-0.8320;
1132.2000;0.0635;-0.8497;
1132.5000;0.0733;-0.8254;
1132.8000;0.0716;-0.8254;
1133.1000;0.0749;-0.8187;
1133.4000;0.0724;-0.8187;
1133.7000;0.0724;-0.8143;
1134.0000;0.0684;-0.8232;
1134.3000;0.0863;-0.7878;
1134.6000;0.0716;-0.8320;
1134.9000;0.0741;-0.8298;
1135.2000;0.0708;-0.8276;
1135.5000;0.0716;-0.8298;
1135.8000;0.0724;-0.8320;
1136.1000;0.0733;-0.8232;
1136.4000;0.0700;-0.8276;
1136.7000;0.0708;-0.8121;
1137.0000;0.0741;-0.8121;
1137.3000;0.0733;-0.8055;
1137.6000;0.0757;-0.8099;
1137.9000;0.0724;-0.8320;
1138.2000;0.0708;-0.8298;
1138.5000;0.0724;-0.8187;
1138.8000;0.0643;-0.8409;
1139.1000;0.0708;-0.8232;
1139.4000;0.0716;-0.8187;
1139.7000;0.0659;-0.8320;
1140.0000;0.0733;-0.8055;
1140.3000;0.0724;-0.8077;
1140.6000;0.0773;-0.7900;
1140.9000;0.0724;-0.8033;
1141.2000;0.0692;-0.8077;
1141.5000;0.0708;-0.8055;
1141.8000;0.0708;-0.8077;
1142.1000;0.0724;-0.8033;
1142.4000;0.0741;-0.8055;
1142.7000;0.0781;-0.7966;
1143.0000;0.0667;-0.8254;
1143.3000;0.0757;-0.8099;
1143.6000;0.0895;-0.7745;
1143.9000;0.0635;-0.8320;
1144.2000;0.0708;-0.8165;
1144.5000;0.0716;-0.8143;
1144.8000;0.0716;-0.8210;
1145.1000;0.0724;-0.8165;
1145.4000;0.0741;-0.8099;
1145.7000;0.0708;-0.8165;
1146.0000;0.0733;-0.8143;
1146.3000;0.0708;-0.8121;
1146.6000;0.0708;-0.8121;
1146.9000;0.0659;-0.8165;
1147.2000;0.0716;-0.8077;
1147.5000;0.0700;-0.8055;
1147.8000;0.0733;-0.8010;
1148.1000;0.0692;-0.8055;
1148.4000;0.0635;-0.8165;
1148.7000;0.0724;-0.7966;
1149.0000;0.0700;-0.8010;
1149.3000;0.0708;-0.7988;
1149.6000;0.0773;-0.7944;
1149.9000;0.0822;-0.7833;
1150.2000;0.0716;-0.8099;
1150.5000;0.0773;-0.7833;
1150.8000;0.0749;-0.7922;
1151.1000;0.0635;-0.8320;
1151.4000;0.0708;-0.8099;
1151.7000;0.0790;-0.7944;
1152.0000;0.0708;-0.8143;
1152.3000;0.0716;-0.8210;
1152.6000;0.0741;-0.8210;
1152.9000;0.0716;-0.8210;
1153.2000;0.0700;-0.8210;
1153.5000;0.0757;-0.8033;
1153.8000;0.0692;-0.8143;
1154.1000;0.0716;-0.8033;
1154.4000;0.0676;-0.8121;
1154.7000;0.0708;-0.8033;
1155.0000;0.0716;-0.7988;
1155.3000;0.0716;-0.8055;
1155.6000;0.0692;-0.8121;
1155.9000;0.0757;-0.8099;
1156.2000;0.0724;-0.8077;
1156.5000;0.0716;-0.8077;
1156.8000;0.0708;-0.8254;
1157.1000;0.0716;-0.8143;
1157.4000;0.0676;-0.8254;
1157.7000;0.0684;-0.8342;
1158.0000;0.0708;-0.8276;
1158.3000;0.0700;-0.8342;
1158.6000;0.0716;-0.8232;
1158.9000;0.0765;-0.8121;
1159.2000;0.0724;-0.8210;
1159.5000;0.0733;-0.8165;
1159.8000;0.0643;-0.8342;
1160.1000;0.0724;-0.8121;
1160.4000;0.0692;-0.8210;
1160.7000;0.0716;-0.8121;
1161.0000;0.0708;-0.8099;
1161.3000;0.0741;-0.8077;
1161.6000;0.0700;-0.8121;
1161.9000;0.0708;-0.8121;
1162.2000;0.0667;-0.8165;
1162.5000;0.0700;-0.8077;
1162.8000;0.0659;-0.8210;
1163.1000;0.0684;-0.8165;
1163.4000;0.0700;-0.8121;
1163.7000;0.0716;-0.8121;
1164.0000;0.0684;-0.8077;
1164.3000;0.0708;-0.7966;
1164.6000;0.0627;-0.8143;
1164.9000;0.0814;-0.7723;
1165.2000;0.0570;-0.8342;
1165.5000;0.0733;-0.7944;
1165.8000;0.0692;-0.8010;
1166.1000;0.0733;-0.8033;
1166.4000;0.0692;-0.8143;
1166.7000;0.0708;-0.8121;
1167.0000;0.0700;-0.8099;
1167.3000;0.0708;-0.8165;
1167.6000;0.0716;-0.8187;
1167.9000;0.0781;-0.7900;
1168.2000;0.0700;-0.8099;
1168.5000;0.0733;-0.8077;
1168.8000;0.0724;-0.8121;
1169.1000;0.0757;-0.8055;
1169.4000;0.0716;-0.8055;
1169.7000;0.0700;-0.8055;
1170.0000;0.0708;-0.8055;
1170.3000;0.0700;-0.8055;
1170.6000;0.0716;-0.8033;
1170.9000;0.0708;-0.8055;
1171.2000;0.0708;-0.7988;
1171.5000;0.0716;-0.8077;
1171.8000;0.0741;-0.8010;
1172.1000;0.0741;-0.8055;
1172.4000;0.0708;-0.8121;
1172.7000;0.0757;-0.8033;
1173.0000;0.0635;-0.8254;
1173.3000;0.0716;-0.8033;
1173.6000;0.0708;-0.7988;
1173.9000;0.0724;-0.7900;
1174.2000;0.0749;-0.7833;
1174.5000;0.0708;-0.7966;
1174.8000;0.0733;-0.7922;
1175.1000;0.0773;-0.7878;
1175.4000;0.0716;-0.7944;
1175.7000;0.0741;-0.7833;
1176.0000;0.0708;-0.7900;
1176.3000;0.0716;-0.7988;
1176.6000;0.0716;-0.8143;
1176.9000;0.0749;-0.8077;
1177.2000;0.0741;-0.8033;
1177.5000;0.0733;-0.8187;
1177.8000;0.0798;-0.7988;
1178.1000;0.0733;-0.8099;
1178.4000;0.0716;-0.8165;
1178.7000;0.0700;-0.8254;
1179.0000;0.0741;-0.8055;
1179.3000;0.0692;-0.8165;
1179.6000;0.0684;-0.8165;
1179.9000;0.0708;-0.8099;
1180.2000;0.0676;-0.8121;
1180.5000;0.0733;-0.8010;
1180.8000;0.0700;-0.8099;
1181.1000;0.0773;-0.7988;
1181.4000;0.0700;-0.8099;
1181.7000;0.0724;-0.7988;
1182.0000;0.0716;-0.7944;
1182.3000;0.0741;-0.7878;
1182.6000;0.0708;-0.7988;
1182.9000;0.0741;-0.7944;
1183.2000;0.0733;-0.8010;
1183.5000;0.0716;-0.8099;
1183.8000;0.0692;-0.8165;
1184.1000;0.0716;-0.8165;
1184.4000;0.0708;-0.8165;
1184.7000;0.0716;-0.8099;
1185.0000;0.0692;-0.8165;
1185.3000;0.0708;-0.8210;
1185.6000;0.0594;-0.8453;
1185.9000;0.0708;-0.8143;
1186.2000;0.0749;-0.8055;
1186.5000;0.0700;-0.8210;
1186.8000;0.0741;-0.8077;
1187.1000;0.0733;-0.8077;
1187.4000;0.0708;-0.8099;
1187.7000;0.0741;-0.7966;
1188.0000;0.0741;-0.7966;
1188.3000;0.0773;-0.7833;
1188.6000;0.0716;-0.8077;
1188.9000;0.0790;-0.7900;
1189.2000;0.0684;-0.8121;
1189.5000;0.0733;-0.8055;
1189.8000;0.0716;-0.8099;
1190.1000;0.0733;-0.8143;
1190.4000;0.0716;-0.8143;
1190.7000;0.0708;-0.8121;
1191.0000;0.0716;-0.8010;
1191.3000;0.0708;-0.7966;
1191.6000;0.0700;-0.8033;
1191.9000;0.0757;-0.7966;
1192.2000;0.0708;-0.8099;
1192.5000;0.0724;-0.8055;
1192.8000;0.0724;-0.7988;
1193.1000;0.0659;-0.8165;
1193.4000;0.0716;-0.8033;
1193.7000;0.0676;-0.8077;
1194.0000;0.0716;-0.8010;
1194.3000;0.0733;-0.7988;
1194.6000;0.0708;-0.7966;
1194.9000;0.0733;-0.7966;
1195.2000;0.0733;-0.7833;
1195.5000;0.0708;-0.7878;
1195.8000;0.0676;-0.7988;
1196.1000;0.0733;-0.7878;
1196.4000;0.0733;-0.7922;
1196.7000;0.0716;-0.7944;
1197.0000;0.0716;-0.7922;
1197.3000;0.0708;-0.7878;
1197.6000;0.0749;-0.7789;
1197.9000;0.0741;-0.7767;
1198.2000;0.0708;-0.7811;
1198.5000;0.0708;-0.7767;
1198.8000;0.0708;-0.7745;
1199.1000;0.0781;-0.7612;
1199.4000;0.0708;-0.7855;
1199.7000;0.0724;-0.7855;
1200.0000;0.0708;-0.7944;
1200.3000;0.0667;-0.8055;
1200.6000;0.0733;-0.7922;
1200.9000;0.0733;-0.7988;
1201.2000;0.0700;-0.8077;
1201.5000;0.0708;-0.8099;
1201.8000;0.0708;-0.8055;
1202.1000;0.0724;-0.8010;
1202.4000;0.0733;-0.7966;
1202.7000;0.0708;-0.8010;
1203.0000;0.0757;-0.7900;
1203.3000;0.0733;-0.7966;
1203.6000;0.0724;-0.7944;
1203.9000;0.0733;-0.7988;
1204.2000;0.0749;-0.8010;
1204.5000;0.0724;-0.8055;
1204.8000;0.0724;-0.8010;
1205.1000;0.0651;-0.8165;
1205.4000;0.0708;-0.8055;
1205.7000;0.0749;-0.7988;
1206.0000;0.0733;-0.8010;
1206.3000;0.0749;-0.7855;
1206.6000;0.0700;-0.7922;
1206.9000;0.0741;-0.7900;
1207.2000;0.0724;-0.7988;
1207.5000;0.0741;-0.8010;
1207.8000;0.0676;-0.7966;
1208.1000;0.0733;-0.7900;
1208.4000;0.0708;-0.7966;
1208.7000;0.0724;-0.7878;
1209.0000;0.0667;-0.8099;
1209.3000;0.0708;-0.7944;
1209.6000;0.0838;-0.7701;
1209.9000;0.0790;-0.7833;
1210.2000;0.0700;-0.8033;
1210.5000;0.0724;-0.7944;
1210.8000;0.0708;-0.8055;
1211.1000;0.0733;-0.8055;
1211.4000;0.0765;-0.7878;
1211.7000;0.0716;-0.8010;
1212.0000;0.0716;-0.8055;
1212.3000;0.0741;-0.8077;
1212.6000;0.0716;-0.8077;
1212.9000;0.0700;-0.8165;
1213.2000;0.0676;-0.8254;
1213.5000;0.0724;-0.8099;
1213.8000;0.0684;-0.8254;
1214.1000;0.0716;-0.8165;
1214.4000;0.0700;-0.8121;
1214.7000;0.0692;-0.8187;
1215.0000;0.0757;-0.8055;
1215.3000;0.0781;-0.8033;
1215.6000;0.0863;-0.7811;
1215.9000;0.0724;-0.8143;
1216.2000;0.0724;-0.8099;
1216.5000;0.0724;-0.8121;
1216.8000;0.0716;-0.8165;
1217.1000;0.0708;-0.8187;
1217.4000;0.0724;-0.8232;
1217.7000;0.0724;-0.8276;
1218.0000;0.0667;-0.8431;
1218.3000;0.0692;-0.8364;
1218.6000;0.0700;-0.8298;
1218.9000;0.0700;-0.8232;
1219.2000;0.0700;-0.8254;
1219.5000;0.0611;-0.8519;
1219.8000;0.0716;-0.8121;
1220.1000;0.0700;-0.8143;
1220.4000;0.0765;-0.8033;
1220.7000;0.0708;-0.8187;
1221.0000;0.0724;-0.8099;
1221.3000;0.0716;-0.8033;
1221.6000;0.0716;-0.8010;
1221.9000;0.0741;-0.7944;
1222.2000;0.0733;-0.7988;
1222.5000;0.0716;-0.8055;
1222.8000;0.0684;-0.8099;
1223.1000;0.0757;-0.8010;
1223.4000;0.0733;-0.8055;
1223.7000;0.0724;-0.8055;
1224.0000;0.0692;-0.8099;
1224.3000;0.0692;-0.8033;
1224.6000;0.0708;-0.7966;
1224.9000;0.0724;-0.7900;
1225.2000;0.0724;-0.7966;
1225.5000;0.0700;-0.8010;
1225.8000;0.0700;-0.8010;
1226.1000;0.0643;-0.8165;
1226.4000;0.0757;-0.7878;
1226.7000;0.0814;-0.7701;
1227.0000;0.0741;-0.7811;
1227.3000;0.0757;-0.7767;
1227.6000;0.0716;-0.7789;
1227.9000;0.0790;-0.7678;
1228.2000;0.0847;-0.7524;
1228.5000;0.0708;-0.7878;
1228.8000;0.0716;-0.7900;
1229.1000;0.0700;-0.7966;
1229.4000;0.0724;-0.7944;
1229.7000;0.0724;-0.7878;
1230.0000;0.0716;-0.7900;
1230.3000;0.0716;-0.7855;
1230.6000;0.0700;-0.7855;
1230.9000;0.0708;-0.7878;
1231.2000;0.0692;-0.7878;
1231.5000;0.0692;-0.7878;
1231.8000;0.0733;-0.7811;
1232.1000;0.0733;-0.7789;
1232.4000;0.0733;-0.7723;
1232.7000;0.0724;-0.7855;
1233.0000;0.0708;-0.7944;
1233.3000;0.0651;-0.8077;
1233.6000;0.0806;-0.7723;
1233.9000;0.0667;-0.8055;
1234.2000;0.0716;-0.7878;
1234.5000;0.0773;-0.7789;
1234.8000;0.0724;-0.7922;
1235.1000;0.0733;-0.7900;
1235.4000;0.0659;-0.8099;
1235.7000;0.0700;-0.7944;
1236.0000;0.0749;-0.7811;
1236.3000;0.0692;-0.7966;
1236.6000;0.0708;-0.7855;
1236.9000;0.0716;-0.7878;
1237.2000;0.0733;-0.7878;
1237.5000;0.0716;-0.7811;
1237.8000;0.0749;-0.7701;
1238.1000;0.0700;-0.7922;
1238.4000;0.0643;-0.8033;
1238.7000;0.0708;-0.7878;
1239.0000;0.0781;-0.7701;
1239.3000;0.0716;-0.7878;
1239.6000;0.0692;-0.7922;
1239.9000;0.0749;-0.7855;
1240.2000;0.0757;-0.8033;
1240.5000;0.0692;-0.8077;
1240.8000;0.0741;-0.8010;
1241.1000;0.0716;-0.8099;
1241.4000;0.0781;-0.7988;
1241.7000;0.0741;-0.8077;
1242.0000;0.0716;-0.8033;
1242.3000;0.0708;-0.8033;
1242.6000;0.0716;-0.8010;
1242.9000;0.0790;-0.7767;
1243.2000;0.0716;-0.7988;
1243.5000;0.0708;-0.7944;
1243.8000;0.0733;-0.7922;
1244.1000;0.0724;-0.7789;
1244.4000;0.0635;-0.8010;
1244.7000;0.0692;-0.7833;
1245.0000;0.0708;-0.7789;
1245.3000;0.0773;-0.7568;
1245.6000;0.0700;-0.7745;
1245.9000;0.0757;-0.7612;
1246.2000;0.0724;-0.7723;
1246.5000;0.0692;-0.7855;
1246.8000;0.0733;-0.7833;
1247.1000;0.0708;-0.7900;
1247.4000;0.0724;-0.7833;
1247.7000;0.0724;-0.7944;
1248.0000;0.0733;-0.7855;
1248.3000;0.0757;-0.7789;
1248.6000;0.0716;-0.7855;
1248.9000;0.0733;-0.7855;
1249.2000;0.0716;-0.7988;
1249.5000;0.0708;-0.8033;
1249.8000;0.0741;-0.7988;
1250.1000;0.0692;-0.7966;
1250.4000;0.0741;-0.7944;
1250.7000;0.0627;-0.8210;
1251.0000;0.0733;-0.7878;
1251.3000;0.0708;-0.7966;
1251.6000;0.0741;-0.7922;
1251.9000;0.0724;-0.7922;
1252.2000;0.0733;-0.7900;
1252.5000;0.0733;-0.7922;
1252.8000;0.0716;-0.8010;
1253.1000;0.0708;-0.7944;
1253.4000;0.0716;-0.7900;
1253.7000;0.0692;-0.7878;
1254.0000;0.0716;-0.7900;
1254.3000;0.0741;-0.7878;
1254.6000;0.0708;-0.7966;
1254.9000;0.0708;-0.8010;
1255.2000;0.0749;-0.7922;
1255.5000;0.0716;-0.7944;
1255.8000;0.0724;-0.7900;
1256.1000;0.0708;-0.7900;
1256.4000;0.0855;-0.7612;
1256.7000;0.0700;-0.7944;
1257.0000;0.0749;-0.7878;
1257.3000;0.0619;-0.8210;
1257.6000;0.0781;-0.7767;
1257.9000;0.0676;-0.8033;
1258.2000;0.0684;-0.7966;
1258.5000;0.0724;-0.7789;
1258.8000;0.0700;-0.7988;
1259.1000;0.0700;-0.8010;
1259.4000;0.0676;-0.8010;
1259.7000;0.0716;-0.7966;
1260.0000;0.0692;-0.8010;
1260.3000;0.0692;-0.7966;
1260.6000;0.0692;-0.7944;
1260.9000;0.0700;-0.7900;
1261.2000;0.0733;-0.7922;
1261.5000;0.0692;-0.8055;
1261.8000;0.0749;-0.7833;
1262.1000;0.0724;-0.7878;
1262.4000;0.0749;-0.7811;
1262.7000;0.0700;-0.7944;
1263.0000;0.0684;-0.8033;
1263.3000;0.0724;-0.7855;
1263.6000;0.0708;-0.7900;
1263.9000;0.0733;-0.7878;
1264.2000;0.0724;-0.7878;
1264.5000;0.0643;-0.8055;
1264.8000;0.0635;-0.8099;
1265.1000;0.0708;-0.7988;
1265.4000;0.0667;-0.8187;
1265.7000;0.0692;-0.8187;
1266.0000;0.0692;-0.8254;
1266.3000;0.0659;-0.8276;
1266.6000;0.0692;-0.8121;
1266.9000;0.0724;-0.8055;
1267.2000;0.0741;-0.8077;
1267.5000;0.0724;-0.8033;
1267.8000;0.0716;-0.8077;
1268.1000;0.0733;-0.7966;
1268.4000;0.0733;-0.7966;
1268.7000;0.0676;-0.8143;
1269.0000;0.0724;-0.7988;
1269.3000;0.0733;-0.8055;
1269.6000;0.0692;-0.8121;
1269.9000;0.0716;-0.8077;
1270.2000;0.0700;-0.8099;
1270.5000;0.0741;-0.8033;
1270.8000;0.0724;-0.8055;
1271.1000;0.0700;-0.8099;
1271.4000;0.0676;-0.8165;
1271.7000;0.0716;-0.8121;
1272.0000;0.0741;-0.8077;
1272.3000;0.0700;-0.8232;
1272.6000;0.0708;-0.8298;
1272.9000;0.0724;-0.8276;
1273.2000;0.0724;-0.8254;
1273.5000;0.0724;-0.8254;
1273.8000;0.0741;-0.8187;
1274.1000;0.0724;-0.8232;
1274.4000;0.0676;-0.8298;
1274.7000;0.0700;-0.8320;
1275.0000;0.0708;-0.8254;
1275.3000;0.0757;-0.8165;
1275.6000;0.0724;-0.8320;
1275.9000;0.0724;-0.8320;
1276.2000;0.0692;-0.8409;
1276.5000;0.0684;-0.8298;
1276.8000;0.0724;-0.8165;
1277.1000;0.0724;-0.8143;
1277.4000;0.0741;-0.8010;
1277.7000;0.0733;-0.7966;
1278.0000;0.0659;-0.8165;
1278.3000;0.0700;-0.8099;
1278.6000;0.0708;-0.8010;
1278.9000;0.0733;-0.8010;
1279.2000;0.0724;-0.8055;
1279.5000;0.0692;-0.8187;
1279.8000;0.0749;-0.8033;
1280.1000;0.0724;-0.8121;
1280.4000;0.0611;-0.8431;
1280.7000;0.0724;-0.8143;
1281.0000;0.0757;-0.8010;
1281.3000;0.0806;-0.7855;
1281.6000;0.0562;-0.8431;
1281.9000;0.0676;-0.8254;
1282.2000;0.0733;-0.8121;
1282.5000;0.0741;-0.8077;
1282.8000;0.0700;-0.8210;
1283.1000;0.0724;-0.8099;
1283.4000;0.0741;-0.8099;
1283.7000;0.0733;-0.8165;
1284.0000;0.0733;-0.8187;
1284.3000;0.0708;-0.8276;
1284.6000;0.0708;-0.8342;
1284.9000;0.0724;-0.8320;
1285.2000;0.0724;-0.8276;
1285.5000;0.0749;-0.8298;
1285.8000;0.0724;-0.8320;
1286.1000;0.0724;-0.8298;
1286.4000;0.0708;-0.8342;
1286.7000;0.0724;-0.8276;
1287.0000;0.0733;-0.8143;
1287.3000;0.0733;-0.8165;
1287.6000;0.0692;-0.8187;
1287.9000;0.0757;-0.8055;
1288.2000;0.0765;-0.7966;
1288.5000;0.0733;-0.8077;
1288.8000;0.0692;-0.8165;
1289.1000;0.0724;-0.8165;
1289.4000;0.0708;-0.8187;
1289.7000;0.0781;-0.8077;
1290.0000;0.0708;-0.8210;
1290.3000;0.0708;-0.8276;
1290.6000;0.0708;-0.8254;
1290.9000;0.0716;-0.8143;
1291.2000;0.0724;-0.8121;
1291.5000;0.0708;-0.8099;
1291.8000;0.0700;-0.8165;
1292.1000;0.0741;-0.8187;
1292.4000;0.0716;-0.8143;
1292.7000;0.0716;-0.8187;
1293.0000;0.0708;-0.8143;
1293.3000;0.0716;-0.8099;
1293.6000;0.0741;-0.8077;
1293.9000;0.0708;-0.8210;
1294.2000;0.0806;-0.8077;
1294.5000;0.0749;-0.8232;
1294.8000;0.0676;-0.8364;
1295.1000;0.0724;-0.8232;
1295.4000;0.0708;-0.8298;
1295.7000;0.0716;-0.8232;
1296.0000;0.0700;-0.8165;
1296.3000;0.0619;-0.8320;
1296.6000;0.0716;-0.8099;
1296.9000;0.0741;-0.8077;
1297.2000;0.0667;-0.8210;
1297.5000;0.0749;-0.8010;
1297.8000;0.0724;-0.7988;
1298.1000;0.0708;-0.8055;
1298.4000;0.0741;-0.7988;
1298.7000;0.0724;-0.8010;
1299.0000;0.0700;-0.8077;
1299.3000;0.0700;-0.8143;
1299.6000;0.0716;-0.8099;
1299.9000;0.0716;-0.8121;
1300.2000;0.0716;-0.8165;
1300.5000;0.0716;-0.8055;
1300.8000;0.0708;-0.7988;
1301.1000;0.0716;-0.7878;
1301.4000;0.0749;-0.7855;
1301.7000;0.0700;-0.7922;
1302.0000;0.0684;-0.8033;
1302.3000;0.0724;-0.7944;
1302.6000;0.0676;-0.8055;
1302.9000;0.0708;-0.7966;
1303.2000;0.0708;-0.7966;
1303.5000;0.0651;-0.8165;
1303.8000;0.0733;-0.8033;
1304.1000;0.0724;-0.8165;
1304.4000;0.0749;-0.8143;
1304.7000;0.0733;-0.8165;
1305.0000;0.0724;-0.8187;
1305.3000;0.0667;-0.8387;
1305.6000;0.0716;-0.8254;
1305.9000;0.0667;-0.8364;
1306.2000;0.0733;-0.8232;
1306.5000;0.0708;-0.8232;
1306.8000;0.0724;-0.8165;
1307.1000;0.0724;-0.8121;
1307.4000;0.0700;-0.8165;
1307.7000;0.0741;-0.7988;
1308.0000;0.0724;-0.8033;
1308.3000;0.0741;-0.8033;
1308.6000;0.0708;-0.8187;
1308.9000;0.0684;-0.8143;
1309.2000;0.0684;-0.8143;
1309.5000;0.0716;-0.8099;
1309.8000;0.0651;-0.8254;
1310.1000;0.0716;-0.8121;
1310.4000;0.0708;-0.8055;
1310.7000;0.0708;-0.7944;
1311.0000;0.0700;-0.7922;
1311.3000;0.0757;-0.7855;
1311.6000;0.0716;-0.8033;
1311.9000;0.0692;-0.8077;
1312.2000;0.0838;-0.7701;
1312.5000;0.0724;-0.8033;
1312.8000;0.0724;-0.8010;
1313.1000;0.0676;-0.8099;
1313.4000;0.0733;-0.8077;
1313.7000;0.0716;-0.8121;
1314.0000;0.0700;-0.8143;
1314.3000;0.0724;-0.8143;
1314.6000;0.0708;-0.8099;
1314.9000;0.0806;-0.7855;
1315.2000;0.0724;-0.8099;
1315.5000;0.0757;-0.8165;
1315.8000;0.0716;-0.8210;
1316.1000;0.0716;-0.8276;
1316.4000;0.0716;-0.8232;
1316.7000;0.0733;-0.8210;
1317.0000;0.0676;-0.8387;
1317.3000;0.0733;-0.8254;
1317.6000;0.0708;-0.8232;
1317.9000;0.0716;-0.8210;
1318.2000;0.0741;-0.8165;
1318.5000;0.0708;-0.8276;
1318.8000;0.0700;-0.8320;
1319.1000;0.0749;-0.8165;
1319.4000;0.0692;-0.8409;
1319.7000;0.0700;-0.8387;
1320.0000;0.0700;-0.8254;
1320.3000;0.0708;-0.8254;
1320.6000;0.0700;-0.8342;
1320.9000;0.0708;-0.8276;
1321.2000;0.0806;-0.8010;
1321.5000;0.0724;-0.8187;
1321.8000;0.0724;-0.8143;
1322.1000;0.0708;-0.8121;
1322.4000;0.0716;-0.8143;
1322.7000;0.0724;-0.8143;
1323.0000;0.0741;-0.8187;
1323.3000;0.0733;-0.8165;
1323.6000;0.0724;-0.8121;
1323.9000;0.0716;-0.8165;
1324.2000;0.0724;-0.8232;
1324.5000;0.0700;-0.8387;
1324.8000;0.0724;-0.8364;
1325.1000;0.0700;-0.8431;
1325.4000;0.0757;-0.8342;
1325.7000;0.0708;-0.8320;
1326.0000;0.0692;-0.8364;
1326.3000;0.0716;-0.8298;
1326.6000;0.0651;-0.8409;
1326.9000;0.0716;-0.8276;
1327.2000;0.0716;-0.8276;
1327.5000;0.0724;-0.8342;
1327.8000;0.0716;-0.8342;
1328.1000;0.0716;-0.8342;
1328.4000;0.0700;-0.8387;
1328.7000;0.0684;-0.8409;
1329.0000;0.0700;-0.8387;
1329.3000;0.0716;-0.8320;
1329.6000;0.0716;-0.8342;
1329.9000;0.0700;-0.8453;
1330.2000;0.0700;-0.8342;
1330.5000;0.0724;-0.8409;
1330.8000;0.0700;-0.8541;
1331.1000;0.0708;-0.8475;
1331.4000;0.0700;-0.8431;
1331.7000;0.0724;-0.8387;
1332.0000;0.0733;-0.8342;
1332.3000;0.0716;-0.8364;
1332.6000;0.0749;-0.8276;
1332.9000;0.0684;-0.8387;
1333.2000;0.0659;-0.8387;
1333.5000;0.0757;-0.8143;
1333.8000;0.0749;-0.8276;
1334.1000;0.0684;-0.8453;
1334.4000;0.0602;-0.8586;
1334.7000;0.0708;-0.8276;
1335.0000;0.0708;-0.8276;
1335.3000;0.0733;-0.8232;
1335.6000;0.0724;-0.8254;
1335.9000;0.0798;-0.8033;
1336.2000;0.0700;-0.8254;
1336.5000;0.0545;-0.8652;
1336.8000;0.0814;-0.8055;
1337.1000;0.0765;-0.8143;
1337.4000;0.0838;-0.7988;
1337.7000;0.0838;-0.7922;
1338.0000;0.0708;-0.8165;
1338.3000;0.0733;-0.8099;
1338.6000;0.0716;-0.8165;
1338.9000;0.0798;-0.8033;
1339.2000;0.0724;-0.8254;
1339.5000;0.0749;-0.8077;
1339.8000;0.0708;-0.8143;
1340.1000;0.0733;-0.8077;
1340.4000;0.0733;-0.8077;
1340.7000;0.0716;-0.8143;
1341.0000;0.0708;-0.8165;
1341.3000;0.0651;-0.8364;
1341.6000;0.0733;-0.8121;
1341.9000;0.0724;-0.8187;
1342.2000;0.0676;-0.8276;
1342.5000;0.0708;-0.8187;
1342.8000;0.0733;-0.8187;
1343.1000;0.0773;-0.8121;
1343.4000;0.0716;-0.8254;
1343.7000;0.0708;-0.8276;
1344.0000;0.0684;-0.8342;
1344.3000;0.0708;-0.8342;
1344.6000;0.0684;-0.8453;
1344.9000;0.0741;-0.8254;
1345.2000;0.0806;-0.8033;
1345.5000;0.0716;-0.8276;
1345.8000;0.0757;-0.8165;
1346.1000;0.0716;-0.8232;
1346.4000;0.0724;-0.8276;
1346.7000;0.0659;-0.8453;
1347.0000;0.0724;-0.8210;
1347.3000;0.0724;-0.8210;
1347.6000;0.0716;-0.8210;
1347.9000;0.0708;-0.8232;
1348.2000;0.0749;-0.8210;
1348.5000;0.0724;-0.8232;
1348.8000;0.0692;-0.8298;
1349.1000;0.0667;-0.8409;
1349.4000;0.0676;-0.8431;
1349.7000;0.0716;-0.8320;
1350.0000;0.0733;-0.8320;
1350.3000;0.0790;-0.8033;
1350.6000;0.0724;-0.8210;
1350.9000;0.0708;-0.8187;
1351.2000;0.0733;-0.8187;
1351.5000;0.0790;-0.8121;
1351.8000;0.0667;-0.8409;
1352.1000;0.0741;-0.8187;
1352.4000;0.0790;-0.8010;
1352.7000;0.0733;-0.8165;
1353.0000;0.0733;-0.8099;
1353.3000;0.0724;-0.8099;
1353.6000;0.0708;-0.8099;
1353.9000;0.0716;-0.8121;
1354.2000;0.0724;-0.8077;
1354.5000;0.0733;-0.8121;
1354.8000;0.0741;-0.8033;
1355.1000;0.0724;-0.8010;
1355.4000;0.0684;-0.8143;
1355.7000;0.0700;-0.8121;
1356.0000;0.0716;-0.8055;
1356.3000;0.0749;-0.7988;
1356.6000;0.0700;-0.8143;
1356.9000;0.0676;-0.8165;
1357.2000;0.0667;-0.8187;
1357.5000;0.0724;-0.8165;
1357.8000;0.0643;-0.8254;
1358.1000;0.0773;-0.7988;
1358.4000;0.0765;-0.7988;
1358.7000;0.0741;-0.8077;
1359.0000;0.0733;-0.8099;
1359.3000;0.0733;-0.8143;
1359.6000;0.0781;-0.8033;
1359.9000;0.0716;-0.8143;
1360.2000;0.0716;-0.8055;
1360.5000;0.0684;-0.8121;
1360.8000;0.0724;-0.8077;
1361.1000;0.0716;-0.8187;
1361.4000;0.0781;-0.8055;
1361.7000;0.0741;-0.8165;
1362.0000;0.0684;-0.8342;
1362.3000;0.0692;-0.8210;
1362.6000;0.0741;-0.8143;
1362.9000;0.0667;-0.8276;
1363.2000;0.0733;-0.8055;
1363.5000;0.0724;-0.8055;
1363.8000;0.0708;-0.8143;
1364.1000;0.0692;-0.8165;
1364.4000;0.0716;-0.8099;
1364.7000;0.0708;-0.8143;
1365.0000;0.0724;-0.8121;
1365.3000;0.0643;-0.8298;
1365.6000;0.0814;-0.7922;
1365.9000;0.0724;-0.8121;
1366.2000;0.0716;-0.8099;
1366.5000;0.0724;-0.8010;
1366.8000;0.0765;-0.7833;
1367.1000;0.0724;-0.7922;
1367.4000;0.0724;-0.7855;
1367.7000;0.0708;-0.7988;
1368.0000;0.0741;-0.7922;
1368.3000;0.0724;-0.8033;
1368.6000;0.0741;-0.7988;
1368.9000;0.0724;-0.7988;
1369.2000;0.0708;-0.8165;
1369.5000;0.0781;-0.8055;
1369.8000;0.0749;-0.8055;
1370.1000;0.0716;-0.8232;
1370.4000;0.0757;-0.8143;
1370.7000;0.0708;-0.8276;
1371.0000;0.0733;-0.8187;
1371.3000;0.0798;-0.8010;
1371.6000;0.0741;-0.8077;
1371.9000;0.0733;-0.8099;
1372.2000;0.0733;-0.8010;
1372.5000;0.0757;-0.7855;
1372.8000;0.0716;-0.7900;
1373.1000;0.0716;-0.7966;
1373.4000;0.0692;-0.8010;
1373.7000;0.0733;-0.7900;
1374.0000;0.0667;-0.7944;
1374.3000;0.0724;-0.7745;
1374.6000;0.0659;-0.7900;
1374.9000;0.0724;-0.7833;
1375.2000;0.0724;-0.7855;
1375.5000;0.0724;-0.7900;
1375.8000;0.0692;-0.7988;
1376.1000;0.0724;-0.7944;
1376.4000;0.0806;-0.7701;
1376.7000;0.0708;-0.7922;
1377.0000;0.0733;-0.7767;
1377.3000;0.0733;-0.7789;
1377.6000;0.0733;-0.7855;
1377.9000;0.0749;-0.7811;
1378.2000;0.0724;-0.7900;
1378.5000;0.0716;-0.7878;
1378.8000;0.0692;-0.7878;
1379.1000;0.0667;-0.8010;
1379.4000;0.0700;-0.7966;
1379.7000;0.0708;-0.7922;
1380.0000;0.0692;-0.7966;
1380.3000;0.0733;-0.7922;
1380.6000;0.0830;-0.7701;
1380.9000;0.0716;-0.7966;
1381.2000;0.0757;-0.7900;
1381.5000;0.0700;-0.8099;
1381.8000;0.0692;-0.8121;
1382.1000;0.0716;-0.8033;
1382.4000;0.0724;-0.8033;
1382.7000;0.0724;-0.8033;
1383.0000;0.0692;-0.8099;
1383.3000;0.0733;-0.8033;
1383.6000;0.0741;-0.8033;
1383.9000;0.0741;-0.7988;
1384.2000;0.0643;-0.8232;
1384.5000;0.0692;-0.8121;
1384.8000;0.0724;-0.8077;
1385.1000;0.0700;-0.8077;
1385.4000;0.0757;-0.7922;
1385.7000;0.0716;-0.8033;
1386.0000;0.0765;-0.7900;
1386.3000;0.0692;-0.8033;
1386.6000;0.0749;-0.7855;
1386.9000;0.0741;-0.7855;
1387.2000;0.0733;-0.7900;
1387.5000;0.0724;-0.7900;
1387.8000;0.0741;-0.7966;
1388.1000;0.0716;-0.8055;
1388.4000;0.0708;-0.8055;
1388.7000;0.0716;-0.8010;
1389.0000;0.0733;-0.7988;
1389.3000;0.0708;-0.7966;
1389.6000;0.0733;-0.7944;
1389.9000;0.0716;-0.7944;
1390.2000;0.0798;-0.7723;
1390.5000;0.0733;-0.7833;
1390.8000;0.0716;-0.7878;
1391.1000;0.0700;-0.7922;
1391.4000;0.0667;-0.8055;
1391.7000;0.0724;-0.7855;
1392.0000;0.0700;-0.7922;
1392.3000;0.0724;-0.7900;
1392.6000;0.0749;-0.7944;
1392.9000;0.0733;-0.7988;
1393.2000;0.0724;-0.8010;
1393.5000;0.0724;-0.7966;
1393.8000;0.0733;-0.7988;
1394.1000;0.0708;-0.8010;
1394.4000;0.0708;-0.7944;
1394.7000;0.0814;-0.7767;
1395.0000;0.0708;-0.8010;
1395.3000;0.0724;-0.7944;
1395.6000;0.0716;-0.7944;
1395.9000;0.0741;-0.7878;
1396.2000;0.0708;-0.7988;
1396.5000;0.0724;-0.7966;
1396.8000;0.0749;-0.7878;
1397.1000;0.0724;-0.7988;
1397.4000;0.0773;-0.7878;
1397.7000;0.0724;-0.8033;
1398.0000;0.0716;-0.7966;
1398.3000;0.0716;-0.7922;
1398.6000;0.0733;-0.7922;
1398.9000;0.0667;-0.8055;
1399.2000;0.0724;-0.7966;
1399.5000;0.0724;-0.7900;
1399.8000;0.0741;-0.7900;
