time/ms;Fluo/V;P700 deltaI/I x10³;
-199.8000;0.0822;-0.7103;
-199.5000;0.0822;-0.7147;
-199.2000;0.0822;-0.7125;
-198.9000;0.0847;-0.7103;
-198.6000;0.0879;-0.7015;
-198.3000;0.0814;-0.7280;
-198.0000;0.0830;-0.7214;
-197.7000;0.0920;-0.6948;
-197.4000;0.0838;-0.7015;
-197.1000;0.0838;-0.7037;
-196.8000;0.0830;-0.7125;
-196.5000;0.0830;-0.7170;
-196.2000;0.0830;-0.7170;
-195.9000;0.0814;-0.7147;
-195.6000;0.0830;-0.7192;
-195.3000;0.0814;-0.7192;
-195.0000;0.0822;-0.7059;
-194.7000;0.0838;-0.6904;
-194.4000;0.0806;-0.6992;
-194.1000;0.0781;-0.7081;
-193.8000;0.0847;-0.6838;
-193.5000;0.0838;-0.6838;
-193.2000;0.0830;-0.6882;
-192.9000;0.0822;-0.6926;
-192.6000;0.0806;-0.6948;
-192.3000;0.0814;-0.6926;
-192.0000;0.0830;-0.6860;
-191.7000;0.0895;-0.6705;
-191.4000;0.0830;-0.6838;
-191.1000;0.0855;-0.6860;
-190.8000;0.0806;-0.7037;
-190.5000;0.0814;-0.6992;
-190.2000;0.0822;-0.6904;
-189.9000;0.0830;-0.6860;
-189.6000;0.0724;-0.7170;
-189.3000;0.0847;-0.6882;
-189.0000;0.0814;-0.7015;
-188.7000;0.0838;-0.7015;
-188.4000;0.0847;-0.6882;
-188.1000;0.0855;-0.6860;
-187.8000;0.0838;-0.6882;
-187.5000;0.0822;-0.6904;
-187.2000;0.0912;-0.6749;
-186.9000;0.0847;-0.6948;
-186.6000;0.0814;-0.7059;
-186.3000;0.0830;-0.7015;
-186.0000;0.0773;-0.7059;
-185.7000;0.0879;-0.6882;
-185.4000;0.0830;-0.7015;
-185.1000;0.0798;-0.7170;
-184.8000;0.0814;-0.7147;
-184.5000;0.0830;-0.7059;
-184.2000;0.0822;-0.7192;
-183.9000;0.0814;-0.7170;
-183.6000;0.0676;-0.7413;
-183.3000;0.0830;-0.7103;
-183.0000;0.0814;-0.7170;
-182.7000;0.0830;-0.7147;
-182.4000;0.0838;-0.7103;
-182.1000;0.0830;-0.7103;
-181.8000;0.0855;-0.6992;
-181.5000;0.0847;-0.6992;
-181.2000;0.0814;-0.7103;
-180.9000;0.0814;-0.7170;
-180.6000;0.0790;-0.7214;
-180.3000;0.0757;-0.7302;
-180.0000;0.0757;-0.7324;
-179.7000;0.0814;-0.7170;
-179.4000;0.0830;-0.7192;
-179.1000;0.0830;-0.7125;
-178.8000;0.0822;-0.7059;
-178.5000;0.0863;-0.6948;
-178.2000;0.0830;-0.7015;
-177.9000;0.0741;-0.7103;
-177.6000;0.0871;-0.6860;
-177.3000;0.0855;-0.6992;
-177.0000;0.0855;-0.6948;
-176.7000;0.0920;-0.6727;
-176.4000;0.0814;-0.6992;
-176.1000;0.0847;-0.6926;
-175.8000;0.0749;-0.7214;
-175.5000;0.0822;-0.7081;
-175.2000;0.0814;-0.7037;
-174.9000;0.0863;-0.6926;
-174.6000;0.0863;-0.7103;
-174.3000;0.0814;-0.7214;
-174.0000;0.0822;-0.7125;
-173.7000;0.0863;-0.7015;
-173.4000;0.0830;-0.7037;
-173.1000;0.0912;-0.6815;
-172.8000;0.0830;-0.6970;
-172.5000;0.0798;-0.7103;
-172.2000;0.0708;-0.7280;
-171.9000;0.0920;-0.6727;
-171.6000;0.0969;-0.6572;
-171.3000;0.0838;-0.6926;
-171.0000;0.0920;-0.6727;
-170.7000;0.0830;-0.6926;
-170.4000;0.0814;-0.7015;
-170.1000;0.0847;-0.6904;
-169.8000;0.0838;-0.6970;
-169.5000;0.0814;-0.7059;
-169.2000;0.0830;-0.7015;
-168.9000;0.0928;-0.6771;
-168.6000;0.0757;-0.7280;
-168.3000;0.0871;-0.7059;
-168.0000;0.0822;-0.7147;
-167.7000;0.0806;-0.7214;
-167.4000;0.0847;-0.7103;
-167.1000;0.0838;-0.7103;
-166.8000;0.0806;-0.7147;
-166.5000;0.0847;-0.7059;
-166.2000;0.0847;-0.7037;
-165.9000;0.0847;-0.6992;
-165.6000;0.0904;-0.6838;
-165.3000;0.0928;-0.6705;
-165.0000;0.0838;-0.6860;
-164.7000;0.0871;-0.6904;
-164.4000;0.0830;-0.7037;
-164.1000;0.0830;-0.7081;
-163.8000;0.0830;-0.7103;
-163.5000;0.0814;-0.7125;
-163.2000;0.0830;-0.7059;
-162.9000;0.0887;-0.6882;
-162.6000;0.0830;-0.7103;
-162.3000;0.0838;-0.7059;
-162.0000;0.0887;-0.6926;
-161.7000;0.0879;-0.6992;
-161.4000;0.0765;-0.7324;
-161.1000;0.0733;-0.7391;
-160.8000;0.0822;-0.7147;
-160.5000;0.0863;-0.7081;
-160.2000;0.0806;-0.7236;
-159.9000;0.0741;-0.7391;
-159.6000;0.0847;-0.7170;
-159.3000;0.0838;-0.7236;
-159.0000;0.0838;-0.7302;
-158.7000;0.0814;-0.7324;
-158.4000;0.0830;-0.7258;
-158.1000;0.0814;-0.7302;
-157.8000;0.0855;-0.7258;
-157.5000;0.0871;-0.7170;
-157.2000;0.0847;-0.7170;
-156.9000;0.0838;-0.7103;
-156.6000;0.0806;-0.7125;
-156.3000;0.0790;-0.7214;
-156.0000;0.0814;-0.7147;
-155.7000;0.0814;-0.7214;
-155.4000;0.0830;-0.7214;
-155.1000;0.0781;-0.7302;
-154.8000;0.0847;-0.7059;
-154.5000;0.0814;-0.7125;
-154.2000;0.0847;-0.7170;
-153.9000;0.0847;-0.7147;
-153.6000;0.0838;-0.7192;
-153.3000;0.0830;-0.7192;
-153.0000;0.0847;-0.7103;
-152.7000;0.0847;-0.7192;
-152.4000;0.0863;-0.7103;
-152.1000;0.0879;-0.7059;
-151.8000;0.0814;-0.7103;
-151.5000;0.0822;-0.7147;
-151.2000;0.0855;-0.7037;
-150.9000;0.0790;-0.7081;
-150.6000;0.0830;-0.6926;
-150.3000;0.0822;-0.7015;
-150.0000;0.0838;-0.7081;
-149.7000;0.0814;-0.7103;
-149.4000;0.0838;-0.7015;
-149.1000;0.0838;-0.7059;
-148.8000;0.0806;-0.7147;
-148.5000;0.0838;-0.7081;
-148.2000;0.0838;-0.7170;
-147.9000;0.0863;-0.7125;
-147.6000;0.0904;-0.7103;
-147.3000;0.0830;-0.7170;
-147.0000;0.0847;-0.7192;
-146.7000;0.0847;-0.7103;
-146.4000;0.0855;-0.7103;
-146.1000;0.0830;-0.7192;
-145.8000;0.0830;-0.7170;
-145.5000;0.0806;-0.7214;
-145.2000;0.0847;-0.7081;
-144.9000;0.0838;-0.7170;
-144.6000;0.0855;-0.7170;
-144.3000;0.0830;-0.7214;
-144.0000;0.0871;-0.7103;
-143.7000;0.0855;-0.7103;
-143.4000;0.0847;-0.7125;
-143.1000;0.0838;-0.7147;
-142.8000;0.0855;-0.7103;
-142.5000;0.0863;-0.7037;
-142.2000;0.0847;-0.7037;
-141.9000;0.0847;-0.7103;
-141.6000;0.0928;-0.6948;
-141.3000;0.0830;-0.7192;
-141.0000;0.0741;-0.7435;
-140.7000;0.0822;-0.7192;
-140.4000;0.0773;-0.7236;
-140.1000;0.0838;-0.7125;
-139.8000;0.0838;-0.7147;
-139.5000;0.0855;-0.7125;
-139.2000;0.0830;-0.7170;
-138.9000;0.0814;-0.7147;
-138.6000;0.0741;-0.7347;
-138.3000;0.0822;-0.7192;
-138.0000;0.0847;-0.7125;
-137.7000;0.0863;-0.7059;
-137.4000;0.0895;-0.7081;
-137.1000;0.0830;-0.7236;
-136.8000;0.0855;-0.7258;
-136.5000;0.0830;-0.7391;
-136.2000;0.0822;-0.7369;
-135.9000;0.0806;-0.7280;
-135.6000;0.0847;-0.7214;
-135.3000;0.0838;-0.7170;
-135.0000;0.0830;-0.7192;
-134.7000;0.0830;-0.7214;
-134.4000;0.0830;-0.7192;
-134.1000;0.0790;-0.7280;
-133.8000;0.0936;-0.6970;
-133.5000;0.0847;-0.7258;
-133.2000;0.0798;-0.7347;
-132.9000;0.0855;-0.7236;
-132.6000;0.0814;-0.7369;
-132.3000;0.0830;-0.7324;
-132.0000;0.0781;-0.7369;
-131.7000;0.0855;-0.7236;
-131.4000;0.0871;-0.7236;
-131.1000;0.0879;-0.7125;
-130.8000;0.0847;-0.7192;
-130.5000;0.0855;-0.7236;
-130.2000;0.0863;-0.7258;
-129.9000;0.0838;-0.7170;
-129.6000;0.0814;-0.7302;
-129.3000;0.0920;-0.7103;
-129.0000;0.0798;-0.7347;
-128.7000;0.0847;-0.7236;
-128.4000;0.0838;-0.7347;
-128.1000;0.0887;-0.7236;
-127.8000;0.0830;-0.7324;
-127.5000;0.0863;-0.7192;
-127.2000;0.0838;-0.7236;
-126.9000;0.0806;-0.7236;
-126.6000;0.0822;-0.7147;
-126.3000;0.0855;-0.7081;
-126.0000;0.0806;-0.7170;
-125.7000;0.0822;-0.7147;
-125.4000;0.0830;-0.7037;
-125.1000;0.0838;-0.6948;
-124.8000;0.0822;-0.6904;
-124.5000;0.0855;-0.6771;
-124.2000;0.0830;-0.6904;
-123.9000;0.0879;-0.6882;
-123.6000;0.0814;-0.7059;
-123.3000;0.0733;-0.7258;
-123.0000;0.0847;-0.6992;
-122.7000;0.0944;-0.6815;
-122.4000;0.0920;-0.6904;
-122.1000;0.0838;-0.7170;
-121.8000;0.0847;-0.7170;
-121.5000;0.0830;-0.7214;
-121.2000;0.0895;-0.7125;
-120.9000;0.0830;-0.7280;
-120.6000;0.0847;-0.7214;
-120.3000;0.0830;-0.7236;
-120.0000;0.0822;-0.7258;
-119.7000;0.0838;-0.7170;
-119.4000;0.0830;-0.7192;
-119.1000;0.0871;-0.7125;
-118.8000;0.0847;-0.7170;
-118.5000;0.0847;-0.7236;
-118.2000;0.0822;-0.7280;
-117.9000;0.0847;-0.7170;
-117.6000;0.0847;-0.7103;
-117.3000;0.0814;-0.7147;
-117.0000;0.0781;-0.7170;
-116.7000;0.0830;-0.7125;
-116.4000;0.0822;-0.7236;
-116.1000;0.0814;-0.7302;
-115.8000;0.0855;-0.7302;
-115.5000;0.0855;-0.7302;
-115.2000;0.0830;-0.7236;
-114.9000;0.0863;-0.7147;
-114.6000;0.0871;-0.7125;
-114.3000;0.0847;-0.7125;
-114.0000;0.0830;-0.7192;
-113.7000;0.0912;-0.6970;
-113.4000;0.0855;-0.7192;
-113.1000;0.0863;-0.7236;
-112.8000;0.0847;-0.7236;
-112.5000;0.0855;-0.7258;
-112.2000;0.0863;-0.7147;
-111.9000;0.0830;-0.7192;
-111.6000;0.0855;-0.7170;
-111.3000;0.0863;-0.7170;
-111.0000;0.0855;-0.7192;
-110.7000;0.0830;-0.7192;
-110.4000;0.0863;-0.7081;
-110.1000;0.0806;-0.7192;
-109.8000;0.0838;-0.7170;
-109.5000;0.0790;-0.7236;
-109.2000;0.0936;-0.6882;
-108.9000;0.0838;-0.7037;
-108.6000;0.0887;-0.6970;
-108.3000;0.0847;-0.7125;
-108.0000;0.0822;-0.7236;
-107.7000;0.0822;-0.7258;
-107.4000;0.0838;-0.7280;
-107.1000;0.0814;-0.7347;
-106.8000;0.0814;-0.7347;
-106.5000;0.0822;-0.7347;
-106.2000;0.0814;-0.7324;
-105.9000;0.0830;-0.7236;
-105.6000;0.0912;-0.6992;
-105.3000;0.0814;-0.7214;
-105.0000;0.0847;-0.7170;
-104.7000;0.0847;-0.7236;
-104.4000;0.0847;-0.7302;
-104.1000;0.0822;-0.7324;
-103.8000;0.0806;-0.7391;
-103.5000;0.0830;-0.7369;
-103.2000;0.0838;-0.7324;
-102.9000;0.0822;-0.7324;
-102.6000;0.0814;-0.7258;
-102.3000;0.0838;-0.7236;
-102.0000;0.0830;-0.7258;
-101.7000;0.0838;-0.7192;
-101.4000;0.0814;-0.7258;
-101.1000;0.0814;-0.7280;
-100.8000;0.0969;-0.6970;
-100.5000;0.0798;-0.7324;
-100.2000;0.0855;-0.7214;
-99.9000;0.0830;-0.7258;
-99.6000;0.0692;-0.7568;
-99.3000;0.0855;-0.7214;
-99.0000;0.0855;-0.7214;
-98.7000;0.0936;-0.6992;
-98.4000;0.0838;-0.7192;
-98.1000;0.0838;-0.7103;
-97.8000;0.0871;-0.6992;
-97.5000;0.0871;-0.6904;
-97.2000;0.0912;-0.6882;
-96.9000;0.0838;-0.7103;
-96.6000;0.0798;-0.7214;
-96.3000;0.0863;-0.7059;
-96.0000;0.0806;-0.7192;
-95.7000;0.0814;-0.7192;
-95.4000;0.0855;-0.7059;
-95.1000;0.0855;-0.7081;
-94.8000;0.0838;-0.7103;
-94.5000;0.0847;-0.7103;
-94.2000;0.0806;-0.7170;
-93.9000;0.0806;-0.7147;
-93.6000;0.0855;-0.7037;
-93.3000;0.0830;-0.7059;
-93.0000;0.0830;-0.7081;
-92.7000;0.0822;-0.7081;
-92.4000;0.0855;-0.7037;
-92.1000;0.0822;-0.7037;
-91.8000;0.0863;-0.7125;
-91.5000;0.0855;-0.7170;
-91.2000;0.0822;-0.7236;
-90.9000;0.0895;-0.7059;
-90.6000;0.0879;-0.7147;
-90.3000;0.0838;-0.7236;
-90.0000;0.0838;-0.7192;
-89.7000;0.0838;-0.7192;
-89.4000;0.0822;-0.7280;
-89.1000;0.0822;-0.7347;
-88.8000;0.0879;-0.7302;
-88.5000;0.0806;-0.7391;
-88.2000;0.0838;-0.7302;
-87.9000;0.0838;-0.7214;
-87.6000;0.0830;-0.7192;
-87.3000;0.0855;-0.7147;
-87.0000;0.0822;-0.7147;
-86.7000;0.0847;-0.6992;
-86.4000;0.0838;-0.7103;
-86.1000;0.0814;-0.7258;
-85.8000;0.0855;-0.7170;
-85.5000;0.0814;-0.7214;
-85.2000;0.0814;-0.7125;
-84.9000;0.0830;-0.7037;
-84.6000;0.0822;-0.6970;
-84.3000;0.0847;-0.6904;
-84.0000;0.0822;-0.6926;
-83.7000;0.0798;-0.6948;
-83.4000;0.0855;-0.6771;
-83.1000;0.0879;-0.6771;
-82.8000;0.0798;-0.7015;
-82.5000;0.0847;-0.6882;
-82.2000;0.0830;-0.6926;
-81.9000;0.0847;-0.6970;
-81.6000;0.0781;-0.7103;
-81.3000;0.0798;-0.7170;
-81.0000;0.0830;-0.7192;
-80.7000;0.0863;-0.7081;
-80.4000;0.0814;-0.7192;
-80.1000;0.0822;-0.7170;
-79.8000;0.0830;-0.7103;
-79.5000;0.0781;-0.7236;
-79.2000;0.0814;-0.7258;
-78.9000;0.0847;-0.7147;
-78.6000;0.0830;-0.7236;
-78.3000;0.0781;-0.7391;
-78.0000;0.0847;-0.7125;
-77.7000;0.0838;-0.7125;
-77.4000;0.0912;-0.6992;
-77.1000;0.0838;-0.7192;
-76.8000;0.0961;-0.6926;
-76.5000;0.0806;-0.7258;
-76.2000;0.0838;-0.7236;
-75.9000;0.0871;-0.7192;
-75.6000;0.0847;-0.7214;
-75.3000;0.0822;-0.7192;
-75.0000;0.0847;-0.7147;
-74.7000;0.0733;-0.7391;
-74.4000;0.0838;-0.7236;
-74.1000;0.0847;-0.7170;
-73.8000;0.0822;-0.7192;
-73.5000;0.0822;-0.7147;
-73.2000;0.0822;-0.7192;
-72.9000;0.0847;-0.7125;
-72.6000;0.0830;-0.7125;
-72.3000;0.0855;-0.7037;
-72.0000;0.0838;-0.7147;
-71.7000;0.0806;-0.7302;
-71.4000;0.0830;-0.7170;
-71.1000;0.0847;-0.7192;
-70.8000;0.0830;-0.7214;
-70.5000;0.0847;-0.7147;
-70.2000;0.0855;-0.7103;
-69.9000;0.0830;-0.7125;
-69.6000;0.0781;-0.7236;
-69.3000;0.0879;-0.7037;
-69.0000;0.0855;-0.7170;
-68.7000;0.0798;-0.7324;
-68.4000;0.0822;-0.7214;
-68.1000;0.0806;-0.7302;
-67.8000;0.0814;-0.7324;
-67.5000;0.0822;-0.7347;
-67.2000;0.0830;-0.7369;
-66.9000;0.0822;-0.7524;
-66.6000;0.0814;-0.7435;
-66.3000;0.0806;-0.7413;
-66.0000;0.0855;-0.7214;
-65.7000;0.0855;-0.7236;
-65.4000;0.0830;-0.7391;
-65.1000;0.0838;-0.7413;
-64.8000;0.0765;-0.7678;
-64.5000;0.0847;-0.7546;
-64.2000;0.0863;-0.7501;
-63.9000;0.0847;-0.7479;
-63.6000;0.0773;-0.7634;
-63.3000;0.0806;-0.7457;
-63.0000;0.0830;-0.7347;
-62.7000;0.0847;-0.7236;
-62.4000;0.0855;-0.7192;
-62.1000;0.0871;-0.7147;
-61.8000;0.0838;-0.7236;
-61.5000;0.0830;-0.7324;
-61.2000;0.0790;-0.7347;
-60.9000;0.0838;-0.7214;
-60.6000;0.0863;-0.7103;
-60.3000;0.0847;-0.7059;
-60.0000;0.0814;-0.7192;
-59.7000;0.0855;-0.7125;
-59.4000;0.0822;-0.7214;
-59.1000;0.0847;-0.7125;
-58.8000;0.0904;-0.7037;
-58.5000;0.0814;-0.7258;
-58.2000;0.0847;-0.7236;
-57.9000;0.0838;-0.7324;
-57.6000;0.0847;-0.7347;
-57.3000;0.0838;-0.7391;
-57.0000;0.0830;-0.7413;
-56.7000;0.0822;-0.7324;
-56.4000;0.0814;-0.7369;
-56.1000;0.0806;-0.7369;
-55.8000;0.0830;-0.7391;
-55.5000;0.0822;-0.7369;
-55.2000;0.0838;-0.7192;
-54.9000;0.0838;-0.7258;
-54.6000;0.0855;-0.7236;
-54.3000;0.0871;-0.7059;
-54.0000;0.0733;-0.7435;
-53.7000;0.0838;-0.7214;
-53.4000;0.0790;-0.7324;
-53.1000;0.0838;-0.7170;
-52.8000;0.0847;-0.7214;
-52.5000;0.0863;-0.7214;
-52.2000;0.0847;-0.7258;
-51.9000;0.0838;-0.7280;
-51.6000;0.0830;-0.7302;
-51.3000;0.0830;-0.7280;
-51.0000;0.0822;-0.7280;
-50.7000;0.0838;-0.7214;
-50.4000;0.0847;-0.7192;
-50.1000;0.0814;-0.7280;
-49.8000;0.0757;-0.7501;
-49.5000;0.0822;-0.7302;
-49.2000;0.0830;-0.7324;
-48.9000;0.0847;-0.7369;
-48.6000;0.0814;-0.7435;
-48.3000;0.0838;-0.7347;
-48.0000;0.0757;-0.7546;
-47.7000;0.0847;-0.7413;
-47.4000;0.0757;-0.7612;
-47.1000;0.0765;-0.7590;
-46.8000;0.0822;-0.7413;
-46.5000;0.0757;-0.7524;
-46.2000;0.0830;-0.7369;
-45.9000;0.0887;-0.7192;
-45.6000;0.0993;-0.6904;
-45.3000;0.0838;-0.7258;
-45.0000;0.0814;-0.7258;
-44.7000;0.0830;-0.7302;
-44.4000;0.0830;-0.7302;
-44.1000;0.0847;-0.7369;
-43.8000;0.0814;-0.7413;
-43.5000;0.0822;-0.7391;
-43.2000;0.0822;-0.7391;
-42.9000;0.0855;-0.7324;
-42.6000;0.0855;-0.7369;
-42.3000;0.0855;-0.7413;
-42.0000;0.0838;-0.7369;
-41.7000;0.0847;-0.7280;
-41.4000;0.0855;-0.7192;
-41.1000;0.0830;-0.7369;
-40.8000;0.0847;-0.7369;
-40.5000;0.0838;-0.7302;
-40.2000;0.0847;-0.7258;
-39.9000;0.0830;-0.7258;
-39.6000;0.0855;-0.7170;
-39.3000;0.0912;-0.7015;
-39.0000;0.0847;-0.7147;
-38.7000;0.0879;-0.7037;
-38.4000;0.0863;-0.7170;
-38.1000;0.0871;-0.7258;
-37.8000;0.0847;-0.7302;
-37.5000;0.0855;-0.7324;
-37.2000;0.0830;-0.7369;
-36.9000;0.0814;-0.7369;
-36.6000;0.0847;-0.7324;
-36.3000;0.0863;-0.7236;
-36.0000;0.0838;-0.7302;
-35.7000;0.0822;-0.7280;
-35.4000;0.0822;-0.7280;
-35.1000;0.0912;-0.6970;
-34.8000;0.0830;-0.7192;
-34.5000;0.0855;-0.7147;
-34.2000;0.0830;-0.7214;
-33.9000;0.0863;-0.7170;
-33.6000;0.0847;-0.7258;
-33.3000;0.0838;-0.7280;
-33.0000;0.0838;-0.7280;
-32.7000;0.0830;-0.7236;
-32.4000;0.0936;-0.6992;
-32.1000;0.0855;-0.7214;
-31.8000;0.0806;-0.7347;
-31.5000;0.0838;-0.7280;
-31.2000;0.0838;-0.7170;
-30.9000;0.0830;-0.7170;
-30.6000;0.0814;-0.7214;
-30.3000;0.0822;-0.7192;
-30.0000;0.0822;-0.7236;
-29.7000;0.0757;-0.7413;
-29.4000;0.0830;-0.7347;
-29.1000;0.0790;-0.7324;
-28.8000;0.0822;-0.7236;
-28.5000;0.0830;-0.7236;
-28.2000;0.0847;-0.7214;
-27.9000;0.0830;-0.7236;
-27.6000;0.0838;-0.7258;
-27.3000;0.0806;-0.7214;
-27.0000;0.0757;-0.7347;
-26.7000;0.0806;-0.7170;
-26.4000;0.0838;-0.7125;
-26.1000;0.0928;-0.6904;
-25.8000;0.0773;-0.7258;
-25.5000;0.0912;-0.6926;
-25.2000;0.0733;-0.7258;
-24.9000;0.0887;-0.6904;
-24.6000;0.0814;-0.7081;
-24.3000;0.0838;-0.7037;
-24.0000;0.0724;-0.7324;
-23.7000;0.0830;-0.7125;
-23.4000;0.0855;-0.7081;
-23.1000;0.0887;-0.7015;
-22.8000;0.0798;-0.7192;
-22.5000;0.0765;-0.7302;
-22.2000;0.0847;-0.7170;
-21.9000;0.0838;-0.7236;
-21.6000;0.0765;-0.7457;
-21.3000;0.0822;-0.7302;
-21.0000;0.0798;-0.7324;
-20.7000;0.0822;-0.7170;
-20.4000;0.0798;-0.7302;
-20.1000;0.0814;-0.7302;
-19.8000;0.0855;-0.7214;
-19.5000;0.0814;-0.7236;
-19.2000;0.0847;-0.7170;
-18.9000;0.0822;-0.7125;
-18.6000;0.0847;-0.7170;
-18.3000;0.0855;-0.7236;
-18.0000;0.0863;-0.7170;
-17.7000;0.0814;-0.7391;
-17.4000;0.0822;-0.7324;
-17.1000;0.0822;-0.7347;
-16.8000;0.0838;-0.7324;
-16.5000;0.0847;-0.7236;
-16.2000;0.0855;-0.7103;
-15.9000;0.0838;-0.7147;
-15.6000;0.0847;-0.7236;
-15.3000;0.0741;-0.7501;
-15.0000;0.0838;-0.7280;
-14.7000;0.0863;-0.7258;
-14.4000;0.0838;-0.7280;
-14.1000;0.0830;-0.7236;
-13.8000;0.0855;-0.7236;
-13.5000;0.0838;-0.7236;
-13.2000;0.0855;-0.7236;
-12.9000;0.0822;-0.7236;
-12.6000;0.0798;-0.7214;
-12.3000;0.0887;-0.7059;
-12.0000;0.0838;-0.7214;
-11.7000;0.0847;-0.7147;
-11.4000;0.0847;-0.7147;
-11.1000;0.0830;-0.7280;
-10.8000;0.0814;-0.7324;
-10.5000;0.0847;-0.7170;
-10.2000;0.0822;-0.7258;
-9.9000;0.0838;-0.7236;
-9.6000;0.0822;-0.7258;
-9.3000;0.0798;-0.7347;
-9.0000;0.0814;-0.7236;
-8.7000;0.0855;-0.7125;
-8.4000;0.0773;-0.7324;
-8.1000;0.0855;-0.7192;
-7.8000;0.0838;-0.7147;
-7.5000;0.0887;-0.7081;
-7.2000;0.0838;-0.7147;
-6.9000;0.0838;-0.7170;
-6.6000;0.0822;-0.7125;
-6.3000;0.0773;-0.7347;
-6.0000;0.0830;-0.7236;
-5.7000;0.0806;-0.7214;
-5.4000;0.0692;-0.7435;
-5.1000;0.0838;-0.7214;
-4.8000;0.0822;-0.7214;
-4.5000;0.0830;-0.7236;
-4.2000;0.0798;-0.7280;
-3.9000;0.0822;-0.7324;
-3.6000;0.0814;-0.7413;
-3.3000;0.0830;-0.7302;
-3.0000;0.0830;-0.7347;
-2.7000;0.0822;-0.7280;
-2.4000;0.0838;-0.7324;
-2.1000;0.0838;-0.7302;
-1.8000;0.0749;-0.7524;
-1.5000;0.0847;-0.7170;
-1.2000;0.0757;-0.7391;
-0.9000;0.0814;-0.7347;
-0.6000;0.0814;-0.7258;
-0.3000;0.0830;-0.7236;
0.0000;0.0830;-0.7236;
0.3000;0.0855;-0.7192;
0.6000;0.0838;-0.7103;
0.9000;0.0863;-0.7015;
1.2000;0.0830;-0.7059;
1.5000;0.0847;-0.6948;
1.8000;0.0838;-0.6882;
2.1000;0.0855;-0.6838;
2.4000;0.0806;-0.6948;
2.7000;0.0847;-0.6683;
3.0000;0.0838;-0.6705;
3.3000;0.0847;-0.6683;
3.6000;0.0871;-0.6594;
3.9000;0.0855;-0.6594;
4.2000;0.0855;-0.6594;
4.5000;0.0879;-0.6528;
4.8000;0.0871;-0.6550;
5.1000;0.0863;-0.6439;
5.4000;0.0855;-0.6484;
5.7000;0.0887;-0.6461;
6.0000;0.0863;-0.6484;
6.3000;0.0798;-0.6616;
6.6000;0.0822;-0.6439;
6.9000;0.0928;-0.6152;
7.2000;0.0863;-0.6307;
7.5000;0.0855;-0.6262;
7.8000;0.0855;-0.6307;
8.1000;0.0838;-0.6329;
8.4000;0.0879;-0.6218;
8.7000;0.0863;-0.6196;
9.0000;0.0814;-0.6284;
9.3000;0.0871;-0.6174;
9.6000;0.0887;-0.6085;
9.9000;0.0887;-0.6152;
10.2000;0.0855;-0.6307;
10.5000;0.0879;-0.6218;
10.8000;0.0814;-0.6395;
11.1000;0.0879;-0.6174;
11.4000;0.0863;-0.6152;
11.7000;0.0781;-0.6284;
12.0000;0.0928;-0.5952;
12.3000;0.0855;-0.6063;
12.6000;0.0871;-0.6063;
12.9000;0.0863;-0.6107;
13.2000;0.0944;-0.5930;
13.5000;0.0822;-0.6196;
13.8000;0.0838;-0.6152;
14.1000;0.0855;-0.6085;
14.4000;0.0855;-0.6063;
14.7000;0.0855;-0.5997;
15.0000;0.0847;-0.6129;
15.3000;0.0757;-0.6395;
15.6000;0.0904;-0.5975;
15.9000;0.0863;-0.6129;
16.2000;0.0863;-0.6174;
16.5000;0.0904;-0.6107;
16.8000;0.0879;-0.6107;
17.1000;0.0863;-0.6129;
17.4000;0.0871;-0.6129;
17.7000;0.0944;-0.6107;
18.0000;0.0871;-0.6284;
18.3000;0.0871;-0.6329;
18.6000;0.0855;-0.6262;
18.9000;0.0855;-0.6307;
19.2000;0.0863;-0.6307;
19.5000;0.0887;-0.6196;
19.8000;0.0863;-0.6307;
20.1000;0.0879;-0.6329;
20.4000;0.0871;-0.6329;
20.7000;0.0904;-0.6196;
21.0000;0.0822;-0.6351;
21.3000;0.0879;-0.6152;
21.6000;0.0879;-0.6152;
21.9000;0.0879;-0.6218;
22.2000;0.0871;-0.6174;
22.5000;0.0871;-0.6129;
22.8000;0.0855;-0.6107;
23.1000;0.0879;-0.6085;
23.4000;0.0879;-0.6085;
23.7000;0.0871;-0.6107;
24.0000;0.0879;-0.5975;
24.3000;0.0863;-0.5997;
24.6000;0.0879;-0.5952;
24.9000;0.0879;-0.5930;
25.2000;0.0928;-0.5952;
25.5000;0.0822;-0.6240;
25.8000;0.0863;-0.6196;
26.1000;0.0887;-0.6063;
26.4000;0.0871;-0.6107;
26.7000;0.0855;-0.6240;
27.0000;0.0871;-0.6284;
27.3000;0.0855;-0.6329;
27.6000;0.0863;-0.6240;
27.9000;0.0904;-0.6218;
28.2000;0.0879;-0.6152;
28.5000;0.0879;-0.6129;
28.8000;0.0773;-0.6417;
29.1000;0.0887;-0.6063;
29.4000;0.0863;-0.6041;
29.7000;0.0879;-0.5930;
30.0000;0.0855;-0.5952;
30.3000;0.0733;-0.6262;
30.6000;0.0887;-0.5975;
30.9000;0.0863;-0.6019;
31.2000;0.0838;-0.6019;
31.5000;0.0879;-0.5997;
31.8000;0.0863;-0.6063;
32.1000;0.0838;-0.6218;
32.4000;0.0879;-0.5975;
32.7000;0.0969;-0.5842;
33.0000;0.0879;-0.5997;
33.3000;0.0887;-0.5908;
33.6000;0.0871;-0.5952;
33.9000;0.0871;-0.6041;
34.2000;0.0814;-0.6041;
34.5000;0.0879;-0.6041;
34.8000;0.0855;-0.6129;
35.1000;0.0855;-0.6063;
35.4000;0.0879;-0.6019;
35.7000;0.0879;-0.5997;
36.0000;0.0928;-0.5820;
36.3000;0.0871;-0.5975;
36.6000;0.0806;-0.6152;
36.9000;0.0879;-0.6063;
37.2000;0.0781;-0.6284;
37.5000;0.0855;-0.5997;
37.8000;0.0855;-0.6019;
38.1000;0.0855;-0.6085;
38.4000;0.0871;-0.6129;
38.7000;0.0863;-0.6129;
39.0000;0.0863;-0.6218;
39.3000;0.0798;-0.6439;
39.6000;0.0863;-0.6218;
39.9000;0.0863;-0.6218;
40.2000;0.0879;-0.6240;
40.5000;0.0879;-0.6196;
40.8000;0.0871;-0.6218;
41.1000;0.0895;-0.6174;
41.4000;0.0887;-0.6085;
41.7000;0.0871;-0.6063;
42.0000;0.0895;-0.5997;
42.3000;0.0912;-0.5975;
42.6000;0.0879;-0.6152;
42.9000;0.0887;-0.6129;
43.2000;0.0863;-0.6107;
43.5000;0.0879;-0.5997;
43.8000;0.0847;-0.6019;
44.1000;0.0863;-0.6063;
44.4000;0.0863;-0.6129;
44.7000;0.0887;-0.6129;
45.0000;0.0847;-0.6262;
45.3000;0.0895;-0.6152;
45.6000;0.0871;-0.6196;
45.9000;0.0912;-0.6063;
46.2000;0.0871;-0.6218;
46.5000;0.0871;-0.6174;
46.8000;0.0871;-0.6174;
47.1000;0.0887;-0.6174;
47.4000;0.0879;-0.6129;
47.7000;0.0855;-0.6174;
48.0000;0.0863;-0.6218;
48.3000;0.0895;-0.6196;
48.6000;0.0879;-0.6262;
48.9000;0.0847;-0.6329;
49.2000;0.0936;-0.5975;
49.5000;0.0863;-0.6152;
49.8000;0.0879;-0.6085;
50.1000;0.0879;-0.6041;
50.4000;0.0871;-0.6107;
50.7000;0.0855;-0.6196;
51.0000;0.0863;-0.6240;
51.3000;0.0928;-0.6019;
51.6000;0.0863;-0.6085;
51.9000;0.0871;-0.6107;
52.2000;0.0863;-0.6152;
52.5000;0.0871;-0.6152;
52.8000;0.0863;-0.6129;
53.1000;0.0887;-0.6063;
53.4000;0.0733;-0.6439;
53.7000;0.0847;-0.6196;
54.0000;0.0863;-0.6085;
54.3000;0.0928;-0.5908;
54.6000;0.0863;-0.6107;
54.9000;0.0871;-0.6063;
55.2000;0.0822;-0.6218;
55.5000;0.0871;-0.6129;
55.8000;0.0904;-0.6063;
56.1000;0.0863;-0.6129;
56.4000;0.0863;-0.6085;
56.7000;0.0887;-0.6019;
57.0000;0.0895;-0.6085;
57.3000;0.0887;-0.6129;
57.6000;0.0879;-0.6107;
57.9000;0.0871;-0.6107;
58.2000;0.0912;-0.6063;
58.5000;0.0724;-0.6528;
58.8000;0.0871;-0.6174;
59.1000;0.0855;-0.6152;
59.4000;0.0855;-0.6152;
59.7000;0.0871;-0.6152;
60.0000;0.0863;-0.6262;
60.3000;0.0863;-0.6218;
60.6000;0.0871;-0.6174;
60.9000;0.0887;-0.6063;
61.2000;0.0855;-0.6129;
61.5000;0.0822;-0.6174;
61.8000;0.0887;-0.6107;
62.1000;0.0887;-0.6129;
62.4000;0.0887;-0.6107;
62.7000;0.0879;-0.6129;
63.0000;0.0847;-0.6174;
63.3000;0.0895;-0.6107;
63.6000;0.0863;-0.6107;
63.9000;0.0887;-0.6063;
64.2000;0.0863;-0.5997;
64.5000;0.0887;-0.5930;
64.8000;0.0855;-0.6107;
65.1000;0.0871;-0.6107;
65.4000;0.0944;-0.5997;
65.7000;0.0830;-0.6262;
66.0000;0.0871;-0.6107;
66.3000;0.0912;-0.6041;
66.6000;0.0871;-0.6041;
66.9000;0.0773;-0.6262;
67.2000;0.0871;-0.5930;
67.5000;0.0830;-0.5908;
67.8000;0.0871;-0.5798;
68.1000;0.0863;-0.5886;
68.4000;0.0855;-0.5908;
68.7000;0.0871;-0.5952;
69.0000;0.0871;-0.5930;
69.3000;0.0871;-0.5908;
69.6000;0.0871;-0.6063;
69.9000;0.0887;-0.6063;
70.2000;0.0879;-0.6174;
70.5000;0.0879;-0.6129;
70.8000;0.0895;-0.6041;
71.1000;0.0912;-0.6041;
71.4000;0.0855;-0.6240;
71.7000;0.0879;-0.6085;
72.0000;0.0879;-0.6107;
72.3000;0.0879;-0.5997;
72.6000;0.0855;-0.6041;
72.9000;0.0855;-0.6019;
73.2000;0.0879;-0.5952;
73.5000;0.0855;-0.5952;
73.8000;0.0838;-0.6019;
74.1000;0.0887;-0.5975;
74.4000;0.0863;-0.6063;
74.7000;0.0863;-0.5952;
75.0000;0.0871;-0.5908;
75.3000;0.0863;-0.5975;
75.6000;0.0887;-0.6019;
75.9000;0.0822;-0.6240;
76.2000;0.0895;-0.6019;
76.5000;0.0871;-0.6152;
76.8000;0.0879;-0.6085;
77.1000;0.0863;-0.6107;
77.4000;0.0977;-0.5864;
77.7000;0.0904;-0.5930;
78.0000;0.0847;-0.6063;
78.3000;0.0887;-0.5975;
78.6000;0.0887;-0.5952;
78.9000;0.0871;-0.5997;
79.2000;0.0847;-0.6107;
79.5000;0.0887;-0.5975;
79.8000;0.0871;-0.5930;
80.1000;0.0863;-0.5975;
80.4000;0.0871;-0.5952;
80.7000;0.0895;-0.5975;
81.0000;0.0806;-0.6107;
81.3000;0.0887;-0.5886;
81.6000;0.0855;-0.5930;
81.9000;0.0887;-0.5908;
82.2000;0.0863;-0.5930;
82.5000;0.0871;-0.5930;
82.8000;0.0871;-0.5908;
83.1000;0.0871;-0.6041;
83.4000;0.0863;-0.6041;
83.7000;0.0912;-0.5864;
84.0000;0.0863;-0.5997;
84.3000;0.0920;-0.5886;
84.6000;0.0879;-0.6019;
84.9000;0.0879;-0.6063;
85.2000;0.0863;-0.6063;
85.5000;0.0977;-0.5842;
85.8000;0.0863;-0.6107;
86.1000;0.0961;-0.5908;
86.4000;0.0887;-0.6152;
86.7000;0.0822;-0.6218;
87.0000;0.0863;-0.6174;
87.3000;0.0904;-0.5997;
87.6000;0.0895;-0.6063;
87.9000;0.0863;-0.6152;
88.2000;0.0879;-0.6019;
88.5000;0.1009;-0.5731;
88.8000;0.0855;-0.6152;
89.1000;0.0855;-0.6129;
89.4000;0.0838;-0.6152;
89.7000;0.0871;-0.6129;
90.0000;0.0871;-0.6218;
90.3000;0.0790;-0.6373;
90.6000;0.0879;-0.6129;
90.9000;0.0920;-0.5886;
91.2000;0.0879;-0.5930;
91.5000;0.0863;-0.6041;
91.8000;0.0912;-0.5908;
92.1000;0.0871;-0.6019;
92.4000;0.0871;-0.5997;
92.7000;0.0871;-0.5908;
93.0000;0.0920;-0.5753;
93.3000;0.0944;-0.5798;
93.6000;0.0863;-0.5975;
93.9000;0.0847;-0.5997;
94.2000;0.0879;-0.5930;
94.5000;0.0879;-0.5952;
94.8000;0.0871;-0.5952;
95.1000;0.0855;-0.6041;
95.4000;0.0863;-0.6085;
95.7000;0.0863;-0.6174;
96.0000;0.0871;-0.6196;
96.3000;0.0838;-0.6174;
96.6000;0.0838;-0.6152;
96.9000;0.0855;-0.6063;
97.2000;0.0887;-0.6085;
97.5000;0.0904;-0.6063;
97.8000;0.0895;-0.6085;
98.1000;0.0879;-0.6152;
98.4000;0.0887;-0.6129;
98.7000;0.0879;-0.6107;
99.0000;0.0871;-0.6107;
99.3000;0.0855;-0.6129;
99.6000;0.0920;-0.5908;
99.9000;0.0863;-0.6019;
100.2000;0.0871;-0.6041;
100.5000;0.0863;-0.6041;
100.8000;0.0912;-0.5908;
101.1000;0.0855;-0.5997;
101.4000;0.0798;-0.6129;
101.7000;0.0838;-0.6063;
102.0000;0.0887;-0.6019;
102.3000;0.0879;-0.6085;
102.6000;0.0887;-0.6085;
102.9000;0.0871;-0.6019;
103.2000;0.0855;-0.6063;
103.5000;0.0879;-0.6019;
103.8000;0.0757;-0.6373;
104.1000;0.0871;-0.6063;
104.4000;0.0855;-0.6107;
104.7000;0.0879;-0.6063;
105.0000;0.0855;-0.6041;
105.3000;0.0855;-0.5997;
105.6000;0.0863;-0.6019;
105.9000;0.0871;-0.5997;
106.2000;0.0863;-0.5997;
106.5000;0.0879;-0.6019;
106.8000;0.0871;-0.6107;
107.1000;0.0863;-0.6196;
107.4000;0.0871;-0.6129;
107.7000;0.0871;-0.6152;
108.0000;0.0887;-0.6107;
108.3000;0.0822;-0.6218;
108.6000;0.0855;-0.6107;
108.9000;0.0855;-0.6129;
109.2000;0.0871;-0.6152;
109.5000;0.0920;-0.5930;
109.8000;0.0879;-0.6041;
110.1000;0.0855;-0.5997;
110.4000;0.0863;-0.5997;
110.7000;0.0871;-0.6063;
111.0000;0.0863;-0.6019;
111.3000;0.0871;-0.6019;
111.6000;0.0822;-0.6152;
111.9000;0.0904;-0.5864;
112.2000;0.0871;-0.6019;
112.5000;0.0887;-0.5997;
112.8000;0.0871;-0.5975;
113.1000;0.0855;-0.6019;
113.4000;0.0887;-0.5975;
113.7000;0.0855;-0.6063;
114.0000;0.0879;-0.5997;
114.3000;0.0871;-0.5952;
114.6000;0.0879;-0.6019;
114.9000;0.0887;-0.5952;
115.2000;0.0879;-0.5952;
115.5000;0.0838;-0.6041;
115.8000;0.0871;-0.6019;
116.1000;0.0895;-0.5908;
116.4000;0.0863;-0.6041;
116.7000;0.0879;-0.6019;
117.0000;0.0855;-0.6129;
117.3000;0.0887;-0.6063;
117.6000;0.0879;-0.6085;
117.9000;0.0855;-0.6174;
118.2000;0.0887;-0.5997;
118.5000;0.0895;-0.6041;
118.8000;0.0887;-0.6019;
119.1000;0.0822;-0.6107;
119.4000;0.0863;-0.6152;
119.7000;0.0855;-0.6085;
120.0000;0.0863;-0.6019;
120.3000;0.0879;-0.6107;
120.6000;0.0871;-0.6085;
120.9000;0.0790;-0.6262;
121.2000;0.0863;-0.6085;
121.5000;0.0879;-0.6019;
121.8000;0.0871;-0.6041;
122.1000;0.0773;-0.6196;
122.4000;0.0879;-0.5908;
122.7000;0.0871;-0.5908;
123.0000;0.0871;-0.5864;
123.3000;0.0822;-0.6019;
123.6000;0.0863;-0.5908;
123.9000;0.0912;-0.5798;
124.2000;0.0830;-0.5997;
124.5000;0.0790;-0.6107;
124.8000;0.0830;-0.6041;
125.1000;0.0871;-0.5952;
125.4000;0.0912;-0.5908;
125.7000;0.0912;-0.5864;
126.0000;0.0936;-0.5864;
126.3000;0.0944;-0.5908;
126.6000;0.0944;-0.5886;
126.9000;0.0741;-0.6395;
127.2000;0.0895;-0.6063;
127.5000;0.0961;-0.5952;
127.8000;0.0749;-0.6461;
128.1000;0.0847;-0.6196;
128.4000;0.0879;-0.6174;
128.7000;0.0928;-0.6085;
129.0000;0.0887;-0.6152;
129.3000;0.0863;-0.6196;
129.6000;0.0855;-0.6174;
129.9000;0.0871;-0.6152;
130.2000;0.0952;-0.5842;
130.5000;0.0830;-0.6041;
130.8000;0.0855;-0.5997;
131.1000;0.0887;-0.5930;
131.4000;0.0879;-0.5975;
131.7000;0.0912;-0.5886;
132.0000;0.0871;-0.6063;
132.3000;0.0879;-0.6063;
132.6000;0.0863;-0.6063;
132.9000;0.0895;-0.5975;
133.2000;0.0879;-0.6107;
133.5000;0.0952;-0.5975;
133.8000;0.0871;-0.6218;
134.1000;0.0879;-0.6174;
134.4000;0.0887;-0.6129;
134.7000;0.0830;-0.6218;
135.0000;0.0847;-0.6174;
135.3000;0.0895;-0.6085;
135.6000;0.0847;-0.6196;
135.9000;0.0879;-0.6218;
136.2000;0.0863;-0.6174;
136.5000;0.0904;-0.6129;
136.8000;0.0887;-0.6152;
137.1000;0.0871;-0.6196;
137.4000;0.0879;-0.6174;
137.7000;0.0871;-0.6174;
138.0000;0.0871;-0.6196;
138.3000;0.0863;-0.6218;
138.6000;0.0838;-0.6240;
138.9000;0.0847;-0.6240;
139.2000;0.0863;-0.6218;
139.5000;0.0871;-0.6107;
139.8000;0.0855;-0.6085;
140.1000;0.0863;-0.5975;
140.4000;0.0863;-0.5952;
140.7000;0.0863;-0.5952;
141.0000;0.0871;-0.5908;
141.3000;0.0838;-0.6041;
141.6000;0.0879;-0.5997;
141.9000;0.0895;-0.6041;
142.2000;0.0887;-0.6107;
142.5000;0.0855;-0.6218;
142.8000;0.0863;-0.6129;
143.1000;0.0887;-0.6085;
143.4000;0.0871;-0.6107;
143.7000;0.0879;-0.6129;
144.0000;0.0863;-0.6240;
144.3000;0.0863;-0.6174;
144.6000;0.0847;-0.6218;
144.9000;0.0879;-0.6085;
145.2000;0.0879;-0.6085;
145.5000;0.0863;-0.6107;
145.8000;0.0863;-0.6063;
146.1000;0.0895;-0.6041;
146.4000;0.0855;-0.6085;
146.7000;0.0879;-0.5975;
147.0000;0.0879;-0.6063;
147.3000;0.0765;-0.6307;
147.6000;0.0895;-0.5864;
147.9000;0.0912;-0.5842;
148.2000;0.0871;-0.6019;
148.5000;0.0871;-0.6019;
148.8000;0.0863;-0.6041;
149.1000;0.0838;-0.6085;
149.4000;0.0944;-0.5864;
149.7000;0.0904;-0.5930;
150.0000;0.0855;-0.6041;
150.3000;0.0887;-0.6019;
150.6000;0.0863;-0.6041;
150.9000;0.0863;-0.6019;
151.2000;0.0863;-0.5997;
151.5000;0.0879;-0.5997;
151.8000;0.0879;-0.5930;
152.1000;0.0879;-0.5930;
152.4000;0.0879;-0.5886;
152.7000;0.0879;-0.5820;
153.0000;0.0863;-0.5930;
153.3000;0.0871;-0.5908;
153.6000;0.0863;-0.5886;
153.9000;0.0879;-0.5864;
154.2000;0.0879;-0.5997;
154.5000;0.0904;-0.5886;
154.8000;0.0847;-0.5997;
155.1000;0.0887;-0.6019;
155.4000;0.0855;-0.6152;
155.7000;0.0863;-0.6284;
156.0000;0.0871;-0.6329;
156.3000;0.0847;-0.6329;
156.6000;0.0863;-0.6373;
156.9000;0.0863;-0.6351;
157.2000;0.0855;-0.6351;
157.5000;0.0871;-0.6395;
157.8000;0.0879;-0.6373;
158.1000;0.0895;-0.6284;
158.4000;0.0855;-0.6329;
158.7000;0.0887;-0.6174;
159.0000;0.0879;-0.6196;
159.3000;0.0904;-0.6152;
159.6000;0.0814;-0.6196;
159.9000;0.0814;-0.6373;
160.2000;0.0887;-0.6107;
160.5000;0.0871;-0.6063;
160.8000;0.0895;-0.6063;
161.1000;0.0806;-0.6240;
161.4000;0.0895;-0.5952;
161.7000;0.0879;-0.5997;
162.0000;0.0871;-0.6063;
162.3000;0.0847;-0.6152;
162.6000;0.0871;-0.6152;
162.9000;0.0798;-0.6262;
163.2000;0.0871;-0.6129;
163.5000;0.0871;-0.6152;
163.8000;0.0855;-0.6129;
164.1000;0.0847;-0.6085;
164.4000;0.0830;-0.6085;
164.7000;0.0863;-0.5952;
165.0000;0.0847;-0.6085;
165.3000;0.0814;-0.6174;
165.6000;0.0887;-0.5930;
165.9000;0.0830;-0.6085;
166.2000;0.0887;-0.6041;
166.5000;0.0904;-0.6019;
166.8000;0.0871;-0.6107;
167.1000;0.0879;-0.6152;
167.4000;0.0879;-0.6240;
167.7000;0.0855;-0.6351;
168.0000;0.0871;-0.6351;
168.3000;0.0879;-0.6417;
168.6000;0.0887;-0.6417;
168.9000;0.0895;-0.6395;
169.2000;0.0855;-0.6307;
169.5000;0.0855;-0.6240;
169.8000;0.0863;-0.6174;
170.1000;0.0879;-0.6107;
170.4000;0.0879;-0.6085;
170.7000;0.0871;-0.6107;
171.0000;0.0855;-0.6152;
171.3000;0.0936;-0.6063;
171.6000;0.0871;-0.6240;
171.9000;0.0863;-0.6196;
172.2000;0.0871;-0.6196;
172.5000;0.0993;-0.5952;
172.8000;0.0895;-0.6218;
173.1000;0.0879;-0.6174;
173.4000;0.0895;-0.6174;
173.7000;0.0887;-0.6129;
174.0000;0.0887;-0.6152;
174.3000;0.0871;-0.6218;
174.6000;0.0944;-0.5997;
174.9000;0.0814;-0.6284;
175.2000;0.0863;-0.6196;
175.5000;0.0871;-0.6196;
175.8000;0.0863;-0.6262;
176.1000;0.0879;-0.6174;
176.4000;0.0887;-0.6129;
176.7000;0.0847;-0.6196;
177.0000;0.0871;-0.6129;
177.3000;0.0822;-0.6174;
177.6000;0.0847;-0.6152;
177.9000;0.0871;-0.6129;
178.2000;0.0920;-0.6041;
178.5000;0.0879;-0.6019;
178.8000;0.0863;-0.6019;
179.1000;0.0895;-0.5997;
179.4000;0.1001;-0.5731;
179.7000;0.0757;-0.6329;
180.0000;0.0838;-0.6041;
180.3000;0.0838;-0.6129;
180.6000;0.0838;-0.6196;
180.9000;0.0855;-0.6196;
181.2000;0.0895;-0.6085;
181.5000;0.0733;-0.6484;
181.8000;0.0863;-0.6107;
182.1000;0.0879;-0.6107;
182.4000;0.0887;-0.6041;
182.7000;0.0855;-0.6129;
183.0000;0.0838;-0.6107;
183.3000;0.0952;-0.5798;
183.6000;0.0895;-0.5886;
183.9000;0.0912;-0.5886;
184.2000;0.0830;-0.6085;
184.5000;0.0871;-0.6019;
184.8000;0.0920;-0.5908;
185.1000;0.0920;-0.5930;
185.4000;0.0879;-0.6085;
185.7000;0.0863;-0.6174;
186.0000;0.0847;-0.6240;
186.3000;0.0895;-0.6063;
186.6000;0.0895;-0.6041;
186.9000;0.0887;-0.6129;
187.2000;0.0871;-0.6063;
187.5000;0.0887;-0.5952;
187.8000;0.0879;-0.5930;
188.1000;0.0887;-0.5864;
188.4000;0.0879;-0.5975;
188.7000;0.0895;-0.5975;
189.0000;0.0871;-0.5997;
189.3000;0.0871;-0.5908;
189.6000;0.0879;-0.5864;
189.9000;0.0855;-0.5908;
190.2000;0.0871;-0.5820;
190.5000;0.0871;-0.5798;
190.8000;0.0871;-0.5842;
191.1000;0.0863;-0.5975;
191.4000;0.0871;-0.5908;
191.7000;0.0863;-0.5952;
192.0000;0.0855;-0.5975;
192.3000;0.0847;-0.6019;
192.6000;0.0904;-0.5908;
192.9000;0.0855;-0.6041;
193.2000;0.0961;-0.5842;
193.5000;0.0863;-0.6019;
193.8000;0.0871;-0.6019;
194.1000;0.0855;-0.6085;
194.4000;0.0895;-0.5952;
194.7000;0.0781;-0.6240;
195.0000;0.0863;-0.6129;
195.3000;0.0871;-0.6085;
195.6000;0.0904;-0.5997;
195.9000;0.0879;-0.6152;
196.2000;0.0871;-0.6174;
196.5000;0.0822;-0.6240;
196.8000;0.0847;-0.6218;
197.1000;0.0879;-0.6085;
197.4000;0.0863;-0.6085;
197.7000;0.0871;-0.6063;
198.0000;0.0895;-0.5975;
198.3000;0.0904;-0.5908;
198.6000;0.0912;-0.5908;
198.9000;0.0895;-0.5997;
199.2000;0.0871;-0.6196;
199.5000;0.0887;-0.6107;
199.8000;0.0871;-0.6196;
200.1000;0.0895;-0.6085;
200.4000;0.0847;-0.6085;
200.7000;0.0871;-0.6041;
201.0000;0.0985;-0.5775;
201.3000;0.0920;-0.5975;
201.6000;0.0904;-0.6085;
201.9000;0.0863;-0.6152;
202.2000;0.0871;-0.6152;
202.5000;0.0895;-0.6085;
202.8000;0.0895;-0.6063;
203.1000;0.0855;-0.6129;
203.4000;0.0798;-0.6240;
203.7000;0.0863;-0.6085;
204.0000;0.0863;-0.6041;
204.3000;0.0887;-0.6019;
204.6000;0.0871;-0.6107;
204.9000;0.0830;-0.6174;
205.2000;0.0879;-0.6019;
205.5000;0.0806;-0.6196;
205.8000;0.0855;-0.6041;
206.1000;0.0871;-0.6063;
206.4000;0.0887;-0.5997;
206.7000;0.0847;-0.6152;
207.0000;0.0871;-0.6041;
207.3000;0.1001;-0.5709;
207.6000;0.0887;-0.5975;
207.9000;0.0904;-0.5930;
208.2000;0.0887;-0.6019;
208.5000;0.0887;-0.6063;
208.8000;0.0822;-0.6174;
209.1000;0.0879;-0.6041;
209.4000;0.0879;-0.6063;
209.7000;0.0879;-0.6085;
210.0000;0.0887;-0.6129;
210.3000;0.0871;-0.6262;
210.6000;0.0847;-0.6307;
210.9000;0.0871;-0.6240;
211.2000;0.0871;-0.6152;
211.5000;0.0887;-0.6085;
211.8000;0.0863;-0.6085;
212.1000;0.0879;-0.5952;
212.4000;0.0871;-0.5975;
212.7000;0.0855;-0.6063;
213.0000;0.0871;-0.6129;
213.3000;0.0863;-0.6152;
213.6000;0.0871;-0.6041;
213.9000;0.0855;-0.6063;
214.2000;0.0855;-0.6129;
214.5000;0.0838;-0.6196;
214.8000;0.0847;-0.6174;
215.1000;0.0871;-0.6129;
215.4000;0.0879;-0.6107;
215.7000;0.0871;-0.6085;
216.0000;0.0879;-0.6063;
216.3000;0.0879;-0.6085;
216.6000;0.0871;-0.6129;
216.9000;0.0855;-0.6152;
217.2000;0.0887;-0.6085;
217.5000;0.0928;-0.6019;
217.8000;0.0847;-0.6085;
218.1000;0.0879;-0.6063;
218.4000;0.0830;-0.6174;
218.7000;0.0855;-0.6129;
219.0000;0.0863;-0.6063;
219.3000;0.0855;-0.6041;
219.6000;0.0887;-0.6085;
219.9000;0.0781;-0.6284;
220.2000;0.0830;-0.6152;
220.5000;0.0863;-0.6107;
220.8000;0.0928;-0.6063;
221.1000;0.0798;-0.6395;
221.4000;0.0879;-0.6218;
221.7000;0.0871;-0.6196;
222.0000;0.0871;-0.6129;
222.3000;0.0863;-0.6129;
222.6000;0.0928;-0.5908;
222.9000;0.0871;-0.6085;
223.2000;0.0879;-0.6019;
223.5000;0.0863;-0.6019;
223.8000;0.0822;-0.6152;
224.1000;0.0871;-0.5997;
224.4000;0.0847;-0.6019;
224.7000;0.0863;-0.6085;
225.0000;0.0871;-0.6019;
225.3000;0.0863;-0.6129;
225.6000;0.0822;-0.6240;
225.9000;0.0863;-0.6196;
226.2000;0.0822;-0.6284;
226.5000;0.0895;-0.6174;
226.8000;0.0871;-0.6218;
227.1000;0.0912;-0.6129;
227.4000;0.0871;-0.6152;
227.7000;0.0863;-0.6196;
228.0000;0.0879;-0.6218;
228.3000;0.0822;-0.6373;
228.6000;0.0863;-0.6240;
228.9000;0.0895;-0.6129;
229.2000;0.0879;-0.6107;
229.5000;0.0822;-0.6174;
229.8000;0.0879;-0.6107;
230.1000;0.0871;-0.6063;
230.4000;0.0895;-0.6085;
230.7000;0.0871;-0.6129;
231.0000;0.0847;-0.6218;
231.3000;0.0887;-0.6129;
231.6000;0.0879;-0.6174;
231.9000;0.0871;-0.6196;
232.2000;0.0855;-0.6129;
232.5000;0.0863;-0.6085;
232.8000;0.0871;-0.6107;
233.1000;0.0863;-0.6152;
233.4000;0.0887;-0.6063;
233.7000;0.0863;-0.6085;
234.0000;0.0863;-0.6063;
234.3000;0.0887;-0.6107;
234.6000;0.0879;-0.6196;
234.9000;0.0847;-0.6284;
235.2000;0.0895;-0.6063;
235.5000;0.0887;-0.6129;
235.8000;0.0855;-0.6107;
236.1000;0.0895;-0.5997;
236.4000;0.0847;-0.6085;
236.7000;0.0871;-0.6063;
237.0000;0.0863;-0.6041;
237.3000;0.0847;-0.6107;
237.6000;0.0863;-0.5997;
237.9000;0.0904;-0.5886;
238.2000;0.0895;-0.5864;
238.5000;0.0871;-0.5930;
238.8000;0.0863;-0.5930;
239.1000;0.0749;-0.6174;
239.4000;0.0904;-0.5886;
239.7000;0.0822;-0.5997;
240.0000;0.0855;-0.5952;
240.3000;0.0887;-0.5997;
240.6000;0.0871;-0.6085;
240.9000;0.0895;-0.6041;
241.2000;0.0806;-0.6196;
241.5000;0.0871;-0.6107;
241.8000;0.0887;-0.6063;
242.1000;0.0871;-0.6107;
242.4000;0.0887;-0.6107;
242.7000;0.0871;-0.6218;
243.0000;0.0871;-0.6262;
243.3000;0.0879;-0.6262;
243.6000;0.0985;-0.6019;
243.9000;0.0928;-0.6107;
244.2000;0.0855;-0.6307;
244.5000;0.0863;-0.6196;
244.8000;0.0814;-0.6439;
245.1000;0.0847;-0.6373;
245.4000;0.0855;-0.6373;
245.7000;0.0855;-0.6417;
246.0000;0.0887;-0.6351;
246.3000;0.0961;-0.6196;
246.6000;0.0830;-0.6351;
246.9000;0.0887;-0.6152;
247.2000;0.0822;-0.6307;
247.5000;0.0863;-0.6152;
247.8000;0.0863;-0.6174;
248.1000;0.0855;-0.6129;
248.4000;0.0879;-0.6129;
248.7000;0.0887;-0.6196;
249.0000;0.0871;-0.6262;
249.3000;0.0887;-0.6174;
249.6000;0.0936;-0.6041;
249.9000;0.0830;-0.6218;
250.2000;0.0847;-0.6262;
250.5000;0.0781;-0.6417;
250.8000;0.0879;-0.6196;
251.1000;0.0822;-0.6395;
251.4000;0.0863;-0.6196;
251.7000;0.0952;-0.5908;
252.0000;0.0871;-0.6063;
252.3000;0.0871;-0.6063;
252.6000;0.0863;-0.6063;
252.9000;0.0847;-0.6041;
253.2000;0.0790;-0.6174;
253.5000;0.0855;-0.6107;
253.8000;0.0944;-0.5952;
254.1000;0.0871;-0.6107;
254.4000;0.0855;-0.6129;
254.7000;0.0887;-0.6107;
255.0000;0.0871;-0.6196;
255.3000;0.0773;-0.6373;
255.6000;0.0863;-0.6262;
255.9000;0.0847;-0.6152;
256.2000;0.0887;-0.5975;
256.5000;0.0838;-0.6174;
256.8000;0.0855;-0.6107;
257.1000;0.0920;-0.5886;
257.4000;0.0871;-0.5952;
257.7000;0.0871;-0.5975;
258.0000;0.0863;-0.5997;
258.3000;0.0733;-0.6262;
258.6000;0.0895;-0.6041;
258.9000;0.0855;-0.6240;
259.2000;0.0847;-0.6284;
259.5000;0.0871;-0.6218;
259.8000;0.0887;-0.6174;
260.1000;0.0871;-0.6152;
260.4000;0.0838;-0.6196;
260.7000;0.0830;-0.6174;
261.0000;0.0871;-0.6196;
261.3000;0.0847;-0.6240;
261.6000;0.0871;-0.6196;
261.9000;0.0895;-0.6152;
262.2000;0.0879;-0.6107;
262.5000;0.0879;-0.6085;
262.8000;0.0879;-0.6041;
263.1000;0.0855;-0.6107;
263.4000;0.0847;-0.6107;
263.7000;0.0847;-0.6085;
264.0000;0.0855;-0.6041;
264.3000;0.0855;-0.6063;
264.6000;0.0879;-0.6085;
264.9000;0.0944;-0.5952;
265.2000;0.0847;-0.6107;
265.5000;0.0847;-0.6063;
265.8000;0.0871;-0.6041;
266.1000;0.0863;-0.6085;
266.4000;0.0887;-0.6085;
266.7000;0.0822;-0.6218;
267.0000;0.0863;-0.6152;
267.3000;0.0887;-0.6019;
267.6000;0.0830;-0.6152;
267.9000;0.0855;-0.6107;
268.2000;0.0822;-0.6174;
268.5000;0.0871;-0.6085;
268.8000;0.0887;-0.6129;
269.1000;0.0871;-0.6262;
269.4000;0.0838;-0.6351;
269.7000;0.0912;-0.6152;
270.0000;0.0847;-0.6307;
270.3000;0.0806;-0.6439;
270.6000;0.0855;-0.6351;
270.9000;0.0822;-0.6439;
271.2000;0.0863;-0.6284;
271.5000;0.0895;-0.6085;
271.8000;0.0855;-0.6196;
272.1000;0.0887;-0.6129;
272.4000;0.0879;-0.6129;
272.7000;0.0871;-0.6041;
273.0000;0.0879;-0.6041;
273.3000;0.0879;-0.6063;
273.6000;0.0871;-0.5952;
273.9000;0.0830;-0.6085;
274.2000;0.0847;-0.6063;
274.5000;0.0798;-0.6063;
274.8000;0.0887;-0.5908;
275.1000;0.0879;-0.5864;
275.4000;0.0838;-0.6019;
275.7000;0.0863;-0.5864;
276.0000;0.0855;-0.5930;
276.3000;0.0879;-0.5930;
276.6000;0.0863;-0.6063;
276.9000;0.0765;-0.6307;
277.2000;0.0895;-0.5930;
277.5000;0.0871;-0.5997;
277.8000;0.0838;-0.6152;
278.1000;0.0961;-0.5930;
278.4000;0.0741;-0.6461;
278.7000;0.0920;-0.6063;
279.0000;0.0895;-0.6107;
279.3000;0.0863;-0.6196;
279.6000;0.0871;-0.6196;
279.9000;0.0855;-0.6152;
280.2000;0.0855;-0.6107;
280.5000;0.0863;-0.6152;
280.8000;0.0863;-0.6218;
281.1000;0.0895;-0.6019;
281.4000;0.0855;-0.5975;
281.7000;0.0863;-0.6019;
282.0000;0.0871;-0.6107;
282.3000;0.0879;-0.6152;
282.6000;0.0871;-0.6107;
282.9000;0.0847;-0.6129;
283.2000;0.0944;-0.5952;
283.5000;0.0871;-0.6063;
283.8000;0.0871;-0.6129;
284.1000;0.0863;-0.6085;
284.4000;0.0871;-0.6041;
284.7000;0.0847;-0.6085;
285.0000;0.0863;-0.6085;
285.3000;0.0879;-0.6085;
285.6000;0.0871;-0.6107;
285.9000;0.0814;-0.6218;
286.2000;0.0879;-0.6107;
286.5000;0.0863;-0.6063;
286.8000;0.0887;-0.6107;
287.1000;0.0879;-0.6196;
287.4000;0.0790;-0.6439;
287.7000;0.0887;-0.6262;
288.0000;0.0863;-0.6329;
288.3000;0.0879;-0.6262;
288.6000;0.0830;-0.6307;
288.9000;0.0847;-0.6307;
289.2000;0.0887;-0.6196;
289.5000;0.0871;-0.6218;
289.8000;0.0855;-0.6284;
290.1000;0.0855;-0.6218;
290.4000;0.0855;-0.6196;
290.7000;0.0806;-0.6329;
291.0000;0.0838;-0.6262;
291.3000;0.0879;-0.6240;
291.6000;0.0871;-0.6240;
291.9000;0.0871;-0.6240;
292.2000;0.0871;-0.6240;
292.5000;0.0879;-0.6196;
292.8000;0.0871;-0.6307;
293.1000;0.0912;-0.6218;
293.4000;0.0895;-0.6196;
293.7000;0.0977;-0.5975;
294.0000;0.0887;-0.6218;
294.3000;0.0855;-0.6373;
294.6000;0.0822;-0.6506;
294.9000;0.0871;-0.6307;
295.2000;0.0822;-0.6373;
295.5000;0.0806;-0.6373;
295.8000;0.0879;-0.6085;
296.1000;0.0920;-0.5975;
296.4000;0.0920;-0.5975;
296.7000;0.0920;-0.5930;
297.0000;0.0790;-0.6307;
297.3000;0.0977;-0.5886;
297.6000;0.0969;-0.5864;
297.9000;0.0879;-0.6063;
298.2000;0.0871;-0.6152;
298.5000;0.0936;-0.6041;
298.8000;0.0847;-0.6218;
299.1000;0.0879;-0.6174;
299.4000;0.0863;-0.6218;
299.7000;0.0887;-0.6063;
300.0000;0.0863;-0.6129;
300.3000;0.0977;-0.5798;
300.6000;0.0871;-0.6107;
300.9000;0.0798;-0.6262;
301.2000;0.0855;-0.6152;
301.5000;0.0855;-0.6218;
301.8000;0.0847;-0.6174;
302.1000;0.0871;-0.6174;
302.4000;0.0977;-0.5842;
302.7000;0.0871;-0.6041;
303.0000;0.0822;-0.6196;
303.3000;0.0879;-0.6107;
303.6000;0.0879;-0.6174;
303.9000;0.0944;-0.6041;
304.2000;0.0928;-0.6152;
304.5000;0.0847;-0.6329;
304.8000;0.0847;-0.6329;
305.1000;0.0847;-0.6351;
305.4000;0.0863;-0.6240;
305.7000;0.0830;-0.6262;
306.0000;0.0855;-0.6129;
306.3000;0.0863;-0.6129;
306.6000;0.0871;-0.6152;
306.9000;0.0871;-0.6152;
307.2000;0.0871;-0.6085;
307.5000;0.0871;-0.6129;
307.8000;0.0871;-0.6063;
308.1000;0.0912;-0.5930;
308.4000;0.0887;-0.5997;
308.7000;0.0847;-0.6107;
309.0000;0.0847;-0.6085;
309.3000;0.0895;-0.5997;
309.6000;0.0879;-0.6063;
309.9000;0.0879;-0.6085;
310.2000;0.0855;-0.6152;
310.5000;0.0904;-0.6019;
310.8000;0.0863;-0.6085;
311.1000;0.0887;-0.6041;
311.4000;0.0912;-0.5930;
311.7000;0.0871;-0.6041;
312.0000;0.0904;-0.5997;
312.3000;0.0871;-0.6085;
312.6000;0.0863;-0.6174;
312.9000;0.0879;-0.6129;
313.2000;0.0887;-0.6063;
313.5000;0.0879;-0.6085;
313.8000;0.0879;-0.6107;
314.1000;0.0855;-0.6063;
314.4000;0.0936;-0.5930;
314.7000;0.0781;-0.6329;
315.0000;0.0855;-0.6218;
315.3000;0.0847;-0.6174;
315.6000;0.0847;-0.6107;
315.9000;0.0879;-0.6085;
316.2000;0.0871;-0.6107;
316.5000;0.0871;-0.6041;
316.8000;0.1018;-0.5753;
317.1000;0.0887;-0.6041;
317.4000;0.0847;-0.6196;
317.7000;0.0879;-0.6019;
318.0000;0.0879;-0.6019;
318.3000;0.0879;-0.6107;
318.6000;0.0879;-0.6063;
318.9000;0.0887;-0.6174;
319.2000;0.0806;-0.6461;
319.5000;0.0806;-0.6528;
319.8000;0.0871;-0.6307;
320.1000;0.0920;-0.6262;
320.4000;0.0790;-0.6484;
320.7000;0.0855;-0.6284;
321.0000;0.0863;-0.6329;
321.3000;0.0781;-0.6439;
321.6000;0.0912;-0.6063;
321.9000;0.0855;-0.6240;
322.2000;0.0887;-0.6107;
322.5000;0.0871;-0.6041;
322.8000;0.0887;-0.6107;
323.1000;0.0871;-0.6107;
323.4000;0.0871;-0.6174;
323.7000;0.0887;-0.6262;
324.0000;0.0855;-0.6218;
324.3000;0.0855;-0.6218;
324.6000;0.0904;-0.6085;
324.9000;0.0879;-0.6152;
325.2000;0.0863;-0.6196;
325.5000;0.0863;-0.6174;
325.8000;0.0863;-0.6218;
326.1000;0.0895;-0.6107;
326.4000;0.0863;-0.6085;
326.7000;0.0863;-0.6107;
327.0000;0.0814;-0.6373;
327.3000;0.0855;-0.6240;
327.6000;0.0904;-0.6129;
327.9000;0.0879;-0.6174;
328.2000;0.0863;-0.6174;
328.5000;0.0863;-0.6240;
328.8000;0.0863;-0.6240;
329.1000;0.0887;-0.6063;
329.4000;0.0871;-0.6152;
329.7000;0.0912;-0.6063;
330.0000;0.0920;-0.5997;
330.3000;0.0879;-0.6085;
330.6000;0.0879;-0.6129;
330.9000;0.0871;-0.6174;
331.2000;0.0847;-0.6284;
331.5000;0.0871;-0.6129;
331.8000;0.0863;-0.6196;
332.1000;0.0944;-0.5975;
332.4000;0.0895;-0.6107;
332.7000;0.0847;-0.6129;
333.0000;0.0855;-0.6107;
333.3000;0.0838;-0.6085;
333.6000;0.0863;-0.6063;
333.9000;0.0928;-0.5908;
334.2000;0.0855;-0.6152;
334.5000;0.0847;-0.6129;
334.8000;0.0781;-0.6284;
335.1000;0.0863;-0.6152;
335.4000;0.0781;-0.6373;
335.7000;0.0993;-0.5908;
336.0000;0.0838;-0.6240;
336.3000;0.0928;-0.5997;
336.6000;0.0895;-0.6085;
336.9000;0.0806;-0.6284;
337.2000;0.0822;-0.6174;
337.5000;0.0855;-0.6019;
337.8000;0.0863;-0.6041;
338.1000;0.0847;-0.6019;
338.4000;0.0871;-0.5930;
338.7000;0.0887;-0.5930;
339.0000;0.0871;-0.6041;
339.3000;0.0838;-0.6152;
339.6000;0.0830;-0.6174;
339.9000;0.0871;-0.6129;
340.2000;0.0855;-0.6107;
340.5000;0.0887;-0.6063;
340.8000;0.0895;-0.6107;
341.1000;0.0863;-0.6196;
341.4000;0.0895;-0.6063;
341.7000;0.0871;-0.6107;
342.0000;0.0879;-0.6174;
342.3000;0.0879;-0.6218;
342.6000;0.0871;-0.6196;
342.9000;0.0887;-0.6129;
343.2000;0.0879;-0.6196;
343.5000;0.0847;-0.6329;
343.8000;0.0871;-0.6174;
344.1000;0.0863;-0.6174;
344.4000;0.0863;-0.6129;
344.7000;0.0887;-0.6107;
345.0000;0.0904;-0.5930;
345.3000;0.0855;-0.6107;
345.6000;0.0936;-0.5952;
345.9000;0.0863;-0.6240;
346.2000;0.0838;-0.6307;
346.5000;0.0863;-0.6351;
346.8000;0.0847;-0.6395;
347.1000;0.0895;-0.6196;
347.4000;0.0871;-0.6152;
347.7000;0.0904;-0.6085;
348.0000;0.0879;-0.5997;
348.3000;0.0912;-0.5952;
348.6000;0.0847;-0.6107;
348.9000;0.0871;-0.6019;
349.2000;0.0863;-0.5975;
349.5000;0.0855;-0.5930;
349.8000;0.0879;-0.5842;
350.1000;0.0830;-0.5997;
350.4000;0.0887;-0.5952;
350.7000;0.0879;-0.5975;
351.0000;0.0863;-0.6107;
351.3000;0.0838;-0.6107;
351.6000;0.0855;-0.6129;
351.9000;0.0855;-0.6196;
352.2000;0.0847;-0.6240;
352.5000;0.0920;-0.6041;
352.8000;0.0863;-0.6152;
353.1000;0.0855;-0.6218;
353.4000;0.0895;-0.6174;
353.7000;0.0887;-0.6174;
354.0000;0.0847;-0.6174;
354.3000;0.0871;-0.6063;
354.6000;0.0887;-0.5975;
354.9000;0.0879;-0.5975;
355.2000;0.0879;-0.5886;
355.5000;0.0871;-0.5864;
355.8000;0.0830;-0.5886;
356.1000;0.0847;-0.5842;
356.4000;0.0871;-0.5930;
356.7000;0.0887;-0.5908;
357.0000;0.0871;-0.5952;
357.3000;0.0887;-0.6019;
357.6000;0.0936;-0.5952;
357.9000;0.0863;-0.6107;
358.2000;0.0838;-0.6107;
358.5000;0.0830;-0.6107;
358.8000;0.0879;-0.6019;
359.1000;0.0871;-0.5997;
359.4000;0.0855;-0.6019;
359.7000;0.0895;-0.5886;
360.0000;0.0871;-0.5908;
360.3000;0.0871;-0.5908;
360.6000;0.1058;-0.5466;
360.9000;0.0863;-0.5908;
361.2000;0.0855;-0.5908;
361.5000;0.0985;-0.5687;
361.8000;0.0863;-0.5975;
362.1000;0.0855;-0.5975;
362.4000;0.0879;-0.5886;
362.7000;0.0928;-0.5798;
363.0000;0.0871;-0.5930;
363.3000;0.0847;-0.5886;
363.6000;0.0944;-0.5731;
363.9000;0.0879;-0.5886;
364.2000;0.0863;-0.5952;
364.5000;0.0863;-0.5952;
364.8000;0.0863;-0.5952;
365.1000;0.0871;-0.5952;
365.4000;0.0871;-0.5997;
365.7000;0.0871;-0.5997;
366.0000;0.0863;-0.6063;
366.3000;0.0838;-0.6085;
366.6000;0.0806;-0.6218;
366.9000;0.0863;-0.6041;
367.2000;0.0863;-0.6019;
367.5000;0.0879;-0.5997;
367.8000;0.0895;-0.6019;
368.1000;0.0895;-0.5930;
368.4000;0.0879;-0.5930;
368.7000;0.0749;-0.6196;
369.0000;0.0887;-0.5775;
369.3000;0.0895;-0.5731;
369.6000;0.0887;-0.5908;
369.9000;0.0822;-0.6063;
370.2000;0.0863;-0.5952;
370.5000;0.0838;-0.5975;
370.8000;0.0855;-0.6019;
371.1000;0.0871;-0.5952;
371.4000;0.0895;-0.5930;
371.7000;0.0830;-0.6107;
372.0000;0.0847;-0.6041;
372.3000;0.0871;-0.5997;
372.6000;0.0879;-0.5975;
372.9000;0.0855;-0.5952;
373.2000;0.0879;-0.5930;
373.5000;0.0855;-0.5908;
373.8000;0.0847;-0.5952;
374.1000;0.0863;-0.5975;
374.4000;0.0863;-0.6041;
374.7000;0.0863;-0.6063;
375.0000;0.0830;-0.6129;
375.3000;0.0887;-0.5886;
375.6000;0.0887;-0.5952;
375.9000;0.0887;-0.5997;
376.2000;0.0863;-0.6041;
376.5000;0.0863;-0.6063;
376.8000;0.0863;-0.6107;
377.1000;0.0855;-0.6174;
377.4000;0.0847;-0.6174;
377.7000;0.0871;-0.6085;
378.0000;0.0895;-0.5952;
378.3000;0.0871;-0.6019;
378.6000;0.0871;-0.6063;
378.9000;0.0895;-0.6085;
379.2000;0.0871;-0.6129;
379.5000;0.0895;-0.6129;
379.8000;0.0863;-0.6240;
380.1000;0.0830;-0.6218;
380.4000;0.0871;-0.6107;
380.7000;0.0863;-0.6129;
381.0000;0.0912;-0.6041;
381.3000;0.0871;-0.6152;
381.6000;0.0887;-0.6041;
381.9000;0.0838;-0.6152;
382.2000;0.0928;-0.5908;
382.5000;0.0863;-0.6152;
382.8000;0.0871;-0.6174;
383.1000;0.0838;-0.6240;
383.4000;0.0879;-0.6196;
383.7000;0.0879;-0.6152;
384.0000;0.0863;-0.6129;
384.3000;0.0871;-0.6196;
384.6000;0.0798;-0.6196;
384.9000;0.0863;-0.6041;
385.2000;0.0838;-0.6041;
385.5000;0.0855;-0.6019;
385.8000;0.0863;-0.6041;
386.1000;0.0871;-0.5908;
386.4000;0.0830;-0.6041;
386.7000;0.0871;-0.5908;
387.0000;0.0838;-0.5997;
387.3000;0.0887;-0.5908;
387.6000;0.0847;-0.5997;
387.9000;0.0863;-0.5886;
388.2000;0.0879;-0.5930;
388.5000;0.0879;-0.5997;
388.8000;0.0855;-0.6019;
389.1000;0.0855;-0.6085;
389.4000;0.0863;-0.6041;
389.7000;0.0847;-0.5997;
390.0000;0.0838;-0.5975;
390.3000;0.0806;-0.6107;
390.6000;0.0904;-0.5908;
390.9000;0.0879;-0.5952;
391.2000;0.0855;-0.6019;
391.5000;0.0830;-0.6063;
391.8000;0.0879;-0.5975;
392.1000;0.0871;-0.6019;
392.4000;0.0887;-0.5952;
392.7000;0.0887;-0.5930;
393.0000;0.0790;-0.6196;
393.3000;0.0847;-0.6041;
393.6000;0.0863;-0.6019;
393.9000;0.0871;-0.5952;
394.2000;0.0985;-0.5687;
394.5000;0.0887;-0.5952;
394.8000;0.0879;-0.6019;
395.1000;0.0871;-0.5997;
395.4000;0.0887;-0.6019;
395.7000;0.0863;-0.6041;
396.0000;0.0871;-0.5952;
396.3000;0.0871;-0.5930;
396.6000;0.0879;-0.5930;
396.9000;0.0879;-0.5930;
397.2000;0.0855;-0.5952;
397.5000;0.0847;-0.5952;
397.8000;0.0830;-0.5952;
398.1000;0.0871;-0.5886;
398.4000;0.0879;-0.5952;
398.7000;0.0871;-0.5997;
399.0000;0.0830;-0.5997;
399.3000;0.0887;-0.5908;
399.6000;0.0871;-0.5886;
399.9000;0.0863;-0.5930;
400.2000;0.0822;-0.6041;
400.5000;0.0879;-0.5952;
400.8000;0.0904;-0.5975;
401.1000;0.0847;-0.6129;
401.4000;0.0863;-0.6129;
401.7000;0.0847;-0.6174;
402.0000;0.0887;-0.6152;
402.3000;0.0879;-0.6152;
402.6000;0.0895;-0.6107;
402.9000;0.0863;-0.6107;
403.2000;0.0887;-0.6085;
403.5000;0.0863;-0.6107;
403.8000;0.0847;-0.6129;
404.1000;0.0871;-0.6085;
404.4000;0.0871;-0.6107;
404.7000;0.0838;-0.6218;
405.0000;0.0904;-0.6063;
405.3000;0.0855;-0.6174;
405.6000;0.0847;-0.6262;
405.9000;0.0863;-0.6174;
406.2000;0.0847;-0.6240;
406.5000;0.0847;-0.6329;
406.8000;0.0895;-0.6129;
407.1000;0.0855;-0.6196;
407.4000;0.0855;-0.6174;
407.7000;0.0871;-0.6107;
408.0000;0.0879;-0.6085;
408.3000;0.0887;-0.6041;
408.6000;0.0790;-0.6174;
408.9000;0.0863;-0.5952;
409.2000;0.0863;-0.5975;
409.5000;0.0871;-0.6085;
409.8000;0.0871;-0.6107;
410.1000;0.0895;-0.6019;
410.4000;0.0741;-0.6439;
410.7000;0.0952;-0.5930;
411.0000;0.0855;-0.6174;
411.3000;0.0806;-0.6417;
411.6000;0.0863;-0.6196;
411.9000;0.0863;-0.6174;
412.2000;0.0830;-0.6174;
412.5000;0.0871;-0.6041;
412.8000;0.0863;-0.6174;
413.1000;0.0855;-0.6240;
413.4000;0.0871;-0.6174;
413.7000;0.0879;-0.6152;
414.0000;0.0855;-0.6129;
414.3000;0.0863;-0.6063;
414.6000;0.0863;-0.6063;
414.9000;0.0871;-0.6085;
415.2000;0.0855;-0.6218;
415.5000;0.0895;-0.6085;
415.8000;0.0863;-0.6129;
416.1000;0.0806;-0.6174;
416.4000;0.0895;-0.5997;
416.7000;0.0855;-0.6041;
417.0000;0.0863;-0.6041;
417.3000;0.0863;-0.6041;
417.6000;0.0879;-0.6063;
417.9000;0.0863;-0.6129;
418.2000;0.0749;-0.6395;
418.5000;0.0855;-0.6218;
418.8000;0.0847;-0.6218;
419.1000;0.0863;-0.6196;
419.4000;0.0879;-0.6152;
419.7000;0.0887;-0.6063;
420.0000;0.0855;-0.6152;
420.3000;0.0790;-0.6262;
420.6000;0.0855;-0.6196;
420.9000;0.0863;-0.6107;
421.2000;0.0847;-0.6041;
421.5000;0.0838;-0.6152;
421.8000;0.0904;-0.5975;
422.1000;0.0887;-0.5975;
422.4000;0.0871;-0.6041;
422.7000;0.0847;-0.6041;
423.0000;0.0887;-0.6019;
423.3000;0.0879;-0.6041;
423.6000;0.0871;-0.5997;
423.9000;0.0879;-0.5908;
424.2000;0.0855;-0.5886;
424.5000;0.0895;-0.5864;
424.8000;0.0928;-0.5731;
425.1000;0.0847;-0.5952;
425.4000;0.0855;-0.6019;
425.7000;0.0863;-0.5908;
426.0000;0.0855;-0.5930;
426.3000;0.0879;-0.5952;
426.6000;0.0871;-0.6019;
426.9000;0.0863;-0.6041;
427.2000;0.0879;-0.5930;
427.5000;0.0781;-0.6085;
427.8000;0.0855;-0.5908;
428.1000;0.0863;-0.5864;
428.4000;0.0830;-0.6019;
428.7000;0.0887;-0.5820;
429.0000;0.0871;-0.5886;
429.3000;0.0806;-0.6107;
429.6000;0.0895;-0.5930;
429.9000;0.0871;-0.5975;
430.2000;0.0871;-0.5908;
430.5000;0.0863;-0.6019;
430.8000;0.0814;-0.6152;
431.1000;0.0887;-0.5952;
431.4000;0.0920;-0.5798;
431.7000;0.0928;-0.5775;
432.0000;0.0790;-0.5997;
432.3000;0.0879;-0.5842;
432.6000;0.0969;-0.5709;
432.9000;0.0871;-0.5997;
433.2000;0.0912;-0.5908;
433.5000;0.0879;-0.5952;
433.8000;0.0855;-0.5930;
434.1000;0.0904;-0.5798;
434.4000;0.0830;-0.6085;
434.7000;0.0855;-0.6063;
435.0000;0.0871;-0.5975;
435.3000;0.0871;-0.5886;
435.6000;0.0863;-0.5952;
435.9000;0.0871;-0.5952;
436.2000;0.0863;-0.5997;
436.5000;0.0855;-0.6041;
436.8000;0.0871;-0.5952;
437.1000;0.0879;-0.5886;
437.4000;0.0855;-0.5975;
437.7000;0.0871;-0.5952;
438.0000;0.0871;-0.5908;
438.3000;0.0863;-0.5886;
438.6000;0.0871;-0.5864;
438.9000;0.0887;-0.5842;
439.2000;0.0887;-0.5842;
439.5000;0.0871;-0.5930;
439.8000;0.0871;-0.5997;
440.1000;0.0855;-0.5997;
440.4000;0.0838;-0.6019;
440.7000;0.0855;-0.5975;
441.0000;0.0879;-0.5930;
441.3000;0.0871;-0.5952;
441.6000;0.0895;-0.5864;
441.9000;0.0871;-0.5908;
442.2000;0.0879;-0.5908;
442.5000;0.0871;-0.5886;
442.8000;0.0871;-0.5908;
443.1000;0.0863;-0.5886;
443.4000;0.0879;-0.5864;
443.7000;0.0847;-0.5842;
444.0000;0.0855;-0.5842;
444.3000;0.0822;-0.5952;
444.6000;0.0838;-0.5952;
444.9000;0.0871;-0.5864;
445.2000;0.0871;-0.5842;
445.5000;0.0961;-0.5709;
445.8000;0.0847;-0.5975;
446.1000;0.0847;-0.5975;
446.4000;0.0830;-0.6063;
446.7000;0.0871;-0.5864;
447.0000;0.0855;-0.5886;
447.3000;0.0863;-0.5908;
447.6000;0.0847;-0.5930;
447.9000;0.0863;-0.5930;
448.2000;0.0895;-0.5842;
448.5000;0.0863;-0.5952;
448.8000;0.0879;-0.5930;
449.1000;0.0879;-0.5820;
449.4000;0.0806;-0.6085;
449.7000;0.0879;-0.5930;
450.0000;0.0830;-0.6019;
450.3000;0.0879;-0.5952;
450.6000;0.0855;-0.6019;
450.9000;0.0895;-0.5952;
451.2000;0.0855;-0.5930;
451.5000;0.0781;-0.6174;
451.8000;0.0920;-0.5886;
452.1000;0.0847;-0.6041;
452.4000;0.0790;-0.6196;
452.7000;0.0871;-0.5975;
453.0000;0.0936;-0.5798;
453.3000;0.0887;-0.5842;
453.6000;0.0879;-0.5886;
453.9000;0.0871;-0.5952;
454.2000;0.0879;-0.5930;
454.5000;0.0879;-0.5886;
454.8000;0.0904;-0.5775;
455.1000;0.0920;-0.5753;
455.4000;0.0928;-0.5687;
455.7000;0.0855;-0.5820;
456.0000;0.0879;-0.5775;
456.3000;0.0863;-0.5709;
456.6000;0.0928;-0.5554;
456.9000;0.0863;-0.5775;
457.2000;0.0830;-0.5908;
457.5000;0.0847;-0.5930;
457.8000;0.0814;-0.5952;
458.1000;0.0895;-0.5798;
458.4000;0.0863;-0.5842;
458.7000;0.0887;-0.5775;
459.0000;0.0863;-0.5842;
459.3000;0.0871;-0.5842;
459.6000;0.0871;-0.5886;
459.9000;0.0822;-0.5997;
460.2000;0.0863;-0.5842;
460.5000;0.0781;-0.6174;
460.8000;0.0871;-0.5997;
461.1000;0.0863;-0.6041;
461.4000;0.0887;-0.5975;
461.7000;0.0871;-0.5975;
462.0000;0.0863;-0.5952;
462.3000;0.0879;-0.5886;
462.6000;0.0871;-0.5864;
462.9000;0.0847;-0.5997;
463.2000;0.0855;-0.5952;
463.5000;0.0855;-0.6041;
463.8000;0.0863;-0.5975;
464.1000;0.0871;-0.5908;
464.4000;0.0904;-0.5820;
464.7000;0.0847;-0.6019;
465.0000;0.0855;-0.5930;
465.3000;0.0871;-0.5908;
465.6000;0.0806;-0.6041;
465.9000;0.0895;-0.5886;
466.2000;0.0863;-0.5952;
466.5000;0.0887;-0.5886;
466.8000;0.0887;-0.5798;
467.1000;0.0952;-0.5709;
467.4000;0.0822;-0.6085;
467.7000;0.0887;-0.5908;
468.0000;0.0871;-0.5908;
468.3000;0.0798;-0.6063;
468.6000;0.0863;-0.5930;
468.9000;0.0822;-0.6063;
469.2000;0.0920;-0.5798;
469.5000;0.0847;-0.5908;
469.8000;0.0781;-0.6196;
470.1000;0.0912;-0.5820;
470.4000;0.0838;-0.5908;
470.7000;0.0895;-0.5798;
471.0000;0.0871;-0.5864;
471.3000;0.0871;-0.5842;
471.6000;0.0871;-0.5820;
471.9000;0.0895;-0.5753;
472.2000;0.0863;-0.5775;
472.5000;0.0871;-0.5709;
472.8000;0.0830;-0.5842;
473.1000;0.0879;-0.5687;
473.4000;0.0895;-0.5731;
473.7000;0.0871;-0.5842;
474.0000;0.0871;-0.5731;
474.3000;0.0838;-0.5820;
474.6000;0.0855;-0.5709;
474.9000;0.0887;-0.5576;
475.2000;0.0871;-0.5621;
475.5000;0.0879;-0.5621;
475.8000;0.0863;-0.5665;
476.1000;0.0879;-0.5687;
476.4000;0.0871;-0.5709;
476.7000;0.0969;-0.5377;
477.0000;0.0887;-0.5598;
477.3000;0.0895;-0.5621;
477.6000;0.0871;-0.5643;
477.9000;0.0879;-0.5598;
478.2000;0.0798;-0.5820;
478.5000;0.0765;-0.5930;
478.8000;0.0895;-0.5576;
479.1000;0.0871;-0.5709;
479.4000;0.0895;-0.5775;
479.7000;0.0749;-0.6152;
480.0000;0.0822;-0.6019;
480.3000;0.0855;-0.5864;
480.6000;0.0871;-0.5775;
480.9000;0.0871;-0.5798;
481.2000;0.0838;-0.5908;
481.5000;0.0863;-0.5864;
481.8000;0.0871;-0.5864;
482.1000;0.0871;-0.5820;
482.4000;0.0871;-0.5864;
482.7000;0.0895;-0.5753;
483.0000;0.0847;-0.5842;
483.3000;0.0871;-0.5775;
483.6000;0.0887;-0.5731;
483.9000;0.0863;-0.5820;
484.2000;0.0863;-0.5798;
484.5000;0.0790;-0.5975;
484.8000;0.0863;-0.5753;
485.1000;0.0847;-0.5798;
485.4000;0.0879;-0.5753;
485.7000;0.0838;-0.5930;
486.0000;0.0863;-0.5731;
486.3000;0.0871;-0.5643;
486.6000;0.0863;-0.5709;
486.9000;0.0863;-0.5709;
487.2000;0.0863;-0.5665;
487.5000;0.0863;-0.5687;
487.8000;0.0871;-0.5576;
488.1000;0.0895;-0.5532;
488.4000;0.0887;-0.5709;
488.7000;0.0830;-0.5798;
489.0000;0.0871;-0.5731;
489.3000;0.0871;-0.5709;
489.6000;0.0879;-0.5665;
489.9000;0.0790;-0.5886;
490.2000;0.0847;-0.5842;
490.5000;0.0847;-0.5886;
490.8000;0.0904;-0.5886;
491.1000;0.0944;-0.5798;
491.4000;0.0895;-0.5908;
491.7000;0.0863;-0.5975;
492.0000;0.0912;-0.5886;
492.3000;0.0904;-0.5930;
492.6000;0.0863;-0.5952;
492.9000;0.0887;-0.5864;
493.2000;0.0871;-0.5930;
493.5000;0.0863;-0.6019;
493.8000;0.0871;-0.6107;
494.1000;0.0822;-0.6196;
494.4000;0.0895;-0.5997;
494.7000;0.0863;-0.5997;
495.0000;0.0855;-0.5997;
495.3000;0.0863;-0.5975;
495.6000;0.0855;-0.6019;
495.9000;0.0977;-0.5687;
496.2000;0.0863;-0.5930;
496.5000;0.0879;-0.5975;
496.8000;0.0855;-0.6085;
497.1000;0.0887;-0.5997;
497.4000;0.0887;-0.5975;
497.7000;0.0847;-0.6085;
498.0000;0.0855;-0.6019;
498.3000;0.0863;-0.5975;
498.6000;0.0847;-0.5975;
498.9000;0.0887;-0.5975;
499.2000;0.0765;-0.6262;
499.5000;0.0895;-0.5952;
499.8000;0.0838;-0.6041;
500.1000;0.0855;-0.6063;
500.4000;0.0863;-0.6041;
500.7000;0.0830;-0.6129;
501.0000;0.0838;-0.5997;
501.3000;0.0847;-0.6019;
501.6000;0.0855;-0.5975;
501.9000;0.0863;-0.5975;
502.2000;0.0887;-0.5975;
502.5000;0.0912;-0.5930;
502.8000;0.0879;-0.6107;
503.1000;0.0855;-0.6107;
503.4000;0.0887;-0.6041;
503.7000;0.0879;-0.5997;
504.0000;0.0871;-0.6041;
504.3000;0.0847;-0.6129;
504.6000;0.0895;-0.5997;
504.9000;0.0879;-0.5997;
505.2000;0.0879;-0.5975;
505.5000;0.0863;-0.6063;
505.8000;0.0863;-0.6063;
506.1000;0.0863;-0.6085;
506.4000;0.0855;-0.6129;
506.7000;0.0863;-0.6107;
507.0000;0.0904;-0.5930;
507.3000;0.0879;-0.5930;
507.6000;0.0855;-0.6019;
507.9000;0.0863;-0.6019;
508.2000;0.0879;-0.6019;
508.5000;0.0969;-0.5820;
508.8000;0.0887;-0.6019;
509.1000;0.0863;-0.5997;
509.4000;0.0855;-0.5930;
509.7000;0.0871;-0.5842;
510.0000;0.0863;-0.5842;
510.3000;0.0879;-0.5864;
510.6000;0.0871;-0.5820;
510.9000;0.0855;-0.5842;
511.2000;0.0904;-0.5798;
511.5000;0.0887;-0.5753;
511.8000;0.0871;-0.5820;
512.1000;0.0887;-0.5820;
512.4000;0.0847;-0.5820;
512.7000;0.0912;-0.5709;
513.0000;0.0847;-0.5864;
513.3000;0.1009;-0.5510;
513.6000;0.0871;-0.5820;
513.9000;0.0904;-0.5820;
514.2000;0.0871;-0.5908;
514.5000;0.0895;-0.5886;
514.8000;0.0879;-0.5864;
515.1000;0.0814;-0.6019;
515.4000;0.0879;-0.5886;
515.7000;0.0847;-0.5886;
516.0000;0.0863;-0.5886;
516.3000;0.0879;-0.5864;
516.6000;0.0847;-0.5952;
516.9000;0.0855;-0.5975;
517.2000;0.0855;-0.6019;
517.5000;0.0904;-0.5952;
517.8000;0.0871;-0.5975;
518.1000;0.0895;-0.5952;
518.4000;0.0863;-0.5952;
518.7000;0.0895;-0.5842;
519.0000;0.0855;-0.5997;
519.3000;0.0895;-0.5908;
519.6000;0.0863;-0.5997;
519.9000;0.0904;-0.5952;
520.2000;0.0871;-0.5952;
520.5000;0.0871;-0.5997;
520.8000;0.0863;-0.6107;
521.1000;0.0895;-0.5952;
521.4000;0.0773;-0.6174;
521.7000;0.0871;-0.5842;
522.0000;0.0879;-0.5820;
522.3000;0.0904;-0.5775;
522.6000;0.0904;-0.5798;
522.9000;0.0904;-0.5886;
523.2000;0.0879;-0.6041;
523.5000;0.0887;-0.5997;
523.8000;0.0806;-0.6152;
524.1000;0.0936;-0.5798;
524.4000;0.0895;-0.5886;
524.7000;0.0887;-0.5930;
525.0000;0.0863;-0.5908;
525.3000;0.0863;-0.6019;
525.6000;0.0879;-0.5997;
525.9000;0.0855;-0.6085;
526.2000;0.0871;-0.6041;
526.5000;0.0912;-0.6019;
526.8000;0.0855;-0.6129;
527.1000;0.0798;-0.6307;
527.4000;0.0838;-0.6174;
527.7000;0.0895;-0.6129;
528.0000;0.0847;-0.6196;
528.3000;0.0871;-0.6019;
528.6000;0.0838;-0.6129;
528.9000;0.0871;-0.6063;
529.2000;0.0871;-0.5975;
529.5000;0.0838;-0.6041;
529.8000;0.0798;-0.6218;
530.1000;0.0887;-0.6041;
530.4000;0.0871;-0.6063;
530.7000;0.0879;-0.6063;
531.0000;0.0806;-0.6284;
531.3000;0.0895;-0.6085;
531.6000;0.0855;-0.6218;
531.9000;0.0855;-0.6218;
532.2000;0.0863;-0.6262;
532.5000;0.0879;-0.6262;
532.8000;0.0871;-0.6351;
533.1000;0.0887;-0.6351;
533.4000;0.0904;-0.6196;
533.7000;0.0928;-0.6129;
534.0000;0.0887;-0.6284;
534.3000;0.0904;-0.6240;
534.6000;0.0855;-0.6284;
534.9000;0.0838;-0.6351;
535.2000;0.0879;-0.6262;
535.5000;0.0871;-0.6351;
535.8000;0.0879;-0.6329;
536.1000;0.0879;-0.6351;
536.4000;0.0895;-0.6329;
536.7000;0.0879;-0.6307;
537.0000;0.0863;-0.6284;
537.3000;0.0895;-0.6107;
537.6000;0.0887;-0.6085;
537.9000;0.0847;-0.6107;
538.2000;0.0887;-0.5975;
538.5000;0.0879;-0.6085;
538.8000;0.0879;-0.6019;
539.1000;0.0887;-0.6063;
539.4000;0.0879;-0.6085;
539.7000;0.0847;-0.6152;
540.0000;0.0814;-0.6262;
540.3000;0.0855;-0.6174;
540.6000;0.0855;-0.6196;
540.9000;0.0838;-0.6240;
541.2000;0.0928;-0.6107;
541.5000;0.0838;-0.6240;
541.8000;0.0879;-0.6174;
542.1000;0.0814;-0.6240;
542.4000;0.0871;-0.6152;
542.7000;0.0928;-0.6107;
543.0000;0.0855;-0.6329;
543.3000;0.0871;-0.6262;
543.6000;0.0773;-0.6417;
543.9000;0.0838;-0.6218;
544.2000;0.0847;-0.6152;
544.5000;0.0855;-0.6174;
544.8000;0.0952;-0.5997;
545.1000;0.0879;-0.6152;
545.4000;0.0798;-0.6373;
545.7000;0.0863;-0.6240;
546.0000;0.0871;-0.6129;
546.3000;0.0855;-0.6129;
546.6000;0.0895;-0.6041;
546.9000;0.0904;-0.6107;
547.2000;0.0920;-0.6041;
547.5000;0.0871;-0.6174;
547.8000;0.0895;-0.6174;
548.1000;0.0969;-0.5886;
548.4000;0.0814;-0.6196;
548.7000;0.0863;-0.5975;
549.0000;0.0847;-0.5975;
549.3000;0.0871;-0.6019;
549.6000;0.0871;-0.5997;
549.9000;0.0855;-0.6041;
550.2000;0.0814;-0.6152;
550.5000;0.0863;-0.6041;
550.8000;0.0830;-0.6196;
551.1000;0.0838;-0.6218;
551.4000;0.0863;-0.6129;
551.7000;0.0871;-0.6107;
552.0000;0.0952;-0.5930;
552.3000;0.0855;-0.6196;
552.6000;0.0830;-0.6240;
552.9000;0.0887;-0.6152;
553.2000;0.0904;-0.6041;
553.5000;0.0871;-0.6041;
553.8000;0.0863;-0.6107;
554.1000;0.0879;-0.6063;
554.4000;0.0887;-0.6041;
554.7000;0.0773;-0.6307;
555.0000;0.0887;-0.6041;
555.3000;0.0887;-0.5952;
555.6000;0.0733;-0.6307;
555.9000;0.0871;-0.5997;
556.2000;0.0887;-0.5930;
556.5000;0.0871;-0.6085;
556.8000;0.0879;-0.6085;
557.1000;0.0863;-0.6196;
557.4000;0.0879;-0.6152;
557.7000;0.0871;-0.6196;
558.0000;0.0895;-0.6129;
558.3000;0.0871;-0.6085;
558.6000;0.0863;-0.6174;
558.9000;0.0855;-0.6240;
559.2000;0.0863;-0.6329;
559.5000;0.0871;-0.6240;
559.8000;0.0871;-0.6262;
560.1000;0.0879;-0.6373;
560.4000;0.1018;-0.5997;
560.7000;0.0879;-0.6262;
561.0000;0.0871;-0.6262;
561.3000;0.0928;-0.6129;
561.6000;0.0847;-0.6262;
561.9000;0.0863;-0.6218;
562.2000;0.0936;-0.6041;
562.5000;0.0871;-0.6152;
562.8000;0.0871;-0.6129;
563.1000;0.0790;-0.6351;
563.4000;0.0969;-0.5930;
563.7000;0.0887;-0.6174;
564.0000;0.0847;-0.6262;
564.3000;0.0863;-0.6262;
564.6000;0.0887;-0.6196;
564.9000;0.0887;-0.6218;
565.2000;0.0879;-0.6262;
565.5000;0.0838;-0.6240;
565.8000;0.0814;-0.6284;
566.1000;0.0798;-0.6307;
566.4000;0.0733;-0.6461;
566.7000;0.0798;-0.6395;
567.0000;0.0830;-0.6284;
567.3000;0.0855;-0.6262;
567.6000;0.0781;-0.6395;
567.9000;0.0838;-0.6284;
568.2000;0.0952;-0.5864;
568.5000;0.0977;-0.5798;
568.8000;0.0838;-0.6152;
569.1000;0.0863;-0.6107;
569.4000;0.0871;-0.6085;
569.7000;0.0895;-0.5997;
570.0000;0.0847;-0.6085;
570.3000;0.0863;-0.6152;
570.6000;0.0879;-0.5997;
570.9000;0.0928;-0.5842;
571.2000;0.0806;-0.6174;
571.5000;0.0847;-0.6063;
571.8000;0.0855;-0.6085;
572.1000;0.0871;-0.6085;
572.4000;0.0871;-0.6107;
572.7000;0.0904;-0.6041;
573.0000;0.0847;-0.6152;
573.3000;0.0830;-0.6174;
573.6000;0.0847;-0.6107;
573.9000;0.0871;-0.6063;
574.2000;0.0863;-0.6152;
574.5000;0.0928;-0.5930;
574.8000;0.0871;-0.6107;
575.1000;0.0855;-0.6129;
575.4000;0.0847;-0.6063;
575.7000;0.0871;-0.6063;
576.0000;0.0838;-0.6152;
576.3000;0.0895;-0.6085;
576.6000;0.1018;-0.5731;
576.9000;0.0863;-0.6085;
577.2000;0.0904;-0.5930;
577.5000;0.0920;-0.5952;
577.8000;0.0887;-0.6019;
578.1000;0.0847;-0.6041;
578.4000;0.0871;-0.5997;
578.7000;0.0814;-0.6174;
579.0000;0.0855;-0.5975;
579.3000;0.0895;-0.5997;
579.6000;0.0863;-0.6063;
579.9000;0.0847;-0.5997;
580.2000;0.0855;-0.5908;
580.5000;0.0871;-0.5908;
580.8000;0.0830;-0.5975;
581.1000;0.0871;-0.5908;
581.4000;0.0904;-0.5842;
581.7000;0.0822;-0.6129;
582.0000;0.0855;-0.6129;
582.3000;0.0895;-0.6152;
582.6000;0.0879;-0.6152;
582.9000;0.0871;-0.6152;
583.2000;0.0863;-0.6152;
583.5000;0.0928;-0.6085;
583.8000;0.0871;-0.6240;
584.1000;0.0920;-0.6152;
584.4000;0.0814;-0.6439;
584.7000;0.0855;-0.6196;
585.0000;0.0895;-0.6107;
585.3000;0.0667;-0.6616;
585.6000;0.0847;-0.6152;
585.9000;0.0847;-0.6218;
586.2000;0.0904;-0.6041;
586.5000;0.0838;-0.6129;
586.8000;0.0871;-0.6041;
587.1000;0.0871;-0.5997;
587.4000;0.0871;-0.5930;
587.7000;0.0863;-0.5997;
588.0000;0.0879;-0.5952;
588.3000;0.0863;-0.6063;
588.6000;0.0887;-0.6063;
588.9000;0.0879;-0.6041;
589.2000;0.0847;-0.6218;
589.5000;0.0871;-0.6085;
589.8000;0.0863;-0.6085;
590.1000;0.0895;-0.5930;
590.4000;0.0863;-0.6129;
590.7000;0.0895;-0.6019;
591.0000;0.0830;-0.6107;
591.3000;0.0871;-0.6041;
591.6000;0.0855;-0.5930;
591.9000;0.0863;-0.5886;
592.2000;0.0863;-0.5820;
592.5000;0.0871;-0.5886;
592.8000;0.0855;-0.5975;
593.1000;0.0863;-0.5886;
593.4000;0.0904;-0.5886;
593.7000;0.0879;-0.6019;
594.0000;0.0895;-0.5997;
594.3000;0.0855;-0.6063;
594.6000;0.0863;-0.5997;
594.9000;0.0895;-0.5975;
595.2000;0.0863;-0.6041;
595.5000;0.0904;-0.6019;
595.8000;0.0895;-0.6129;
596.1000;0.0855;-0.6196;
596.4000;0.0895;-0.6063;
596.7000;0.0822;-0.6284;
597.0000;0.0838;-0.6196;
597.3000;0.0855;-0.6218;
597.6000;0.0847;-0.6240;
597.9000;0.0863;-0.6129;
598.2000;0.0863;-0.6085;
598.5000;0.0814;-0.6174;
598.8000;0.0863;-0.6041;
599.1000;0.0887;-0.6041;
599.4000;0.0879;-0.5930;
599.7000;0.0855;-0.5975;
600.0000;0.0855;-0.5930;
600.3000;0.0879;-0.5930;
600.6000;0.0822;-0.6152;
600.9000;0.0887;-0.6085;
601.2000;0.0830;-0.6417;
601.5000;0.0838;-0.6484;
601.8000;0.0855;-0.6506;
602.1000;0.0855;-0.6594;
602.4000;0.0847;-0.6616;
602.7000;0.0790;-0.6904;
603.0000;0.0847;-0.6860;
603.3000;0.0822;-0.6882;
603.6000;0.0855;-0.6926;
603.9000;0.0814;-0.6904;
604.2000;0.0847;-0.6838;
604.5000;0.0830;-0.6860;
604.8000;0.0814;-0.6948;
605.1000;0.0822;-0.6838;
605.4000;0.0814;-0.6904;
605.7000;0.0790;-0.6970;
606.0000;0.0790;-0.6992;
606.3000;0.0806;-0.7037;
606.6000;0.0806;-0.7147;
606.9000;0.0798;-0.7170;
607.2000;0.0790;-0.7214;
607.5000;0.0724;-0.7280;
607.8000;0.0749;-0.7347;
608.1000;0.0806;-0.7280;
608.4000;0.0659;-0.7612;
608.7000;0.0781;-0.7347;
609.0000;0.0781;-0.7280;
609.3000;0.0773;-0.7324;
609.6000;0.0790;-0.7413;
609.9000;0.0781;-0.7435;
610.2000;0.0773;-0.7413;
610.5000;0.0822;-0.7258;
610.8000;0.0773;-0.7391;
611.1000;0.0790;-0.7280;
611.4000;0.0781;-0.7369;
611.7000;0.0757;-0.7413;
612.0000;0.0781;-0.7479;
612.3000;0.0741;-0.7546;
612.6000;0.0806;-0.7369;
612.9000;0.0773;-0.7369;
613.2000;0.0790;-0.7347;
613.5000;0.0790;-0.7324;
613.8000;0.0838;-0.7258;
614.1000;0.0781;-0.7501;
614.4000;0.0773;-0.7457;
614.7000;0.0781;-0.7413;
615.0000;0.0879;-0.7103;
615.3000;0.0773;-0.7369;
615.6000;0.0765;-0.7435;
615.9000;0.0765;-0.7435;
616.2000;0.0733;-0.7568;
616.5000;0.0627;-0.7723;
616.8000;0.0806;-0.7369;
617.1000;0.0781;-0.7369;
617.4000;0.0741;-0.7479;
617.7000;0.0749;-0.7546;
618.0000;0.0749;-0.7590;
618.3000;0.0838;-0.7280;
618.6000;0.0749;-0.7546;
618.9000;0.0773;-0.7501;
619.2000;0.0765;-0.7435;
619.5000;0.0765;-0.7435;
619.8000;0.0741;-0.7479;
620.1000;0.0757;-0.7479;
620.4000;0.0773;-0.7546;
620.7000;0.0830;-0.7369;
621.0000;0.0765;-0.7501;
621.3000;0.0790;-0.7501;
621.6000;0.0773;-0.7501;
621.9000;0.0765;-0.7501;
622.2000;0.0724;-0.7634;
622.5000;0.0757;-0.7524;
622.8000;0.0749;-0.7501;
623.1000;0.0749;-0.7479;
623.4000;0.0798;-0.7413;
623.7000;0.0708;-0.7678;
624.0000;0.0724;-0.7678;
624.3000;0.0765;-0.7612;
624.6000;0.0773;-0.7546;
624.9000;0.0773;-0.7634;
625.2000;0.0765;-0.7568;
625.5000;0.0798;-0.7369;
625.8000;0.0749;-0.7546;
626.1000;0.0838;-0.7369;
626.4000;0.0757;-0.7546;
626.7000;0.0830;-0.7280;
627.0000;0.0667;-0.7701;
627.3000;0.0700;-0.7634;
627.6000;0.0773;-0.7479;
627.9000;0.0749;-0.7479;
628.2000;0.0765;-0.7501;
628.5000;0.0757;-0.7568;
628.8000;0.0741;-0.7656;
629.1000;0.0749;-0.7634;
629.4000;0.0741;-0.7701;
629.7000;0.0733;-0.7678;
630.0000;0.0733;-0.7568;
630.3000;0.0724;-0.7612;
630.6000;0.0733;-0.7612;
630.9000;0.0757;-0.7501;
631.2000;0.0733;-0.7678;
631.5000;0.0781;-0.7568;
631.8000;0.0757;-0.7612;
632.1000;0.0676;-0.7833;
632.4000;0.0724;-0.7656;
632.7000;0.0724;-0.7634;
633.0000;0.0733;-0.7634;
633.3000;0.0757;-0.7546;
633.6000;0.0749;-0.7524;
633.9000;0.0733;-0.7457;
634.2000;0.0733;-0.7546;
634.5000;0.0814;-0.7457;
634.8000;0.0741;-0.7634;
635.1000;0.0716;-0.7634;
635.4000;0.0757;-0.7612;
635.7000;0.0741;-0.7656;
636.0000;0.0667;-0.7789;
636.3000;0.0741;-0.7634;
636.6000;0.0757;-0.7590;
636.9000;0.0724;-0.7634;
637.2000;0.0757;-0.7656;
637.5000;0.0757;-0.7568;
637.8000;0.0749;-0.7524;
638.1000;0.0733;-0.7435;
638.4000;0.0716;-0.7501;
638.7000;0.0741;-0.7413;
639.0000;0.0749;-0.7435;
639.3000;0.0667;-0.7701;
639.6000;0.0700;-0.7524;
639.9000;0.0692;-0.7612;
640.2000;0.0611;-0.7833;
640.5000;0.0692;-0.7678;
640.8000;0.0781;-0.7457;
641.1000;0.0773;-0.7479;
641.4000;0.0602;-0.7855;
641.7000;0.0733;-0.7634;
642.0000;0.0749;-0.7568;
642.3000;0.0798;-0.7435;
642.6000;0.0716;-0.7634;
642.9000;0.0773;-0.7457;
643.2000;0.0716;-0.7524;
643.5000;0.0700;-0.7568;
643.8000;0.0659;-0.7745;
644.1000;0.0724;-0.7590;
644.4000;0.0765;-0.7524;
644.7000;0.0749;-0.7656;
645.0000;0.0733;-0.7678;
645.3000;0.0716;-0.7678;
645.6000;0.0741;-0.7612;
645.9000;0.0733;-0.7634;
646.2000;0.0724;-0.7678;
646.5000;0.0716;-0.7634;
646.8000;0.0716;-0.7612;
647.1000;0.0741;-0.7590;
647.4000;0.0749;-0.7568;
647.7000;0.0659;-0.7723;
648.0000;0.0684;-0.7612;
648.3000;0.0741;-0.7457;
648.6000;0.0733;-0.7524;
648.9000;0.0733;-0.7634;
649.2000;0.0692;-0.7678;
649.5000;0.0741;-0.7590;
649.8000;0.0741;-0.7568;
650.1000;0.0700;-0.7590;
650.4000;0.0749;-0.7413;
650.7000;0.0708;-0.7457;
651.0000;0.0733;-0.7369;
651.3000;0.0733;-0.7324;
651.6000;0.0724;-0.7324;
651.9000;0.0708;-0.7324;
652.2000;0.0724;-0.7347;
652.5000;0.0708;-0.7457;
652.8000;0.0724;-0.7457;
653.1000;0.0716;-0.7457;
653.4000;0.0724;-0.7413;
653.7000;0.0733;-0.7413;
654.0000;0.0716;-0.7391;
654.3000;0.0733;-0.7347;
654.6000;0.0733;-0.7324;
654.9000;0.0716;-0.7391;
655.2000;0.0822;-0.7103;
655.5000;0.0733;-0.7391;
655.8000;0.0700;-0.7369;
656.1000;0.0700;-0.7435;
656.4000;0.0733;-0.7369;
656.7000;0.0716;-0.7391;
657.0000;0.0716;-0.7435;
657.3000;0.0733;-0.7457;
657.6000;0.0733;-0.7457;
657.9000;0.0749;-0.7347;
658.2000;0.0651;-0.7435;
658.5000;0.0659;-0.7391;
658.8000;0.0741;-0.7236;
659.1000;0.0741;-0.7236;
659.4000;0.0733;-0.7347;
659.7000;0.0765;-0.7302;
660.0000;0.0708;-0.7413;
660.3000;0.0724;-0.7413;
660.6000;0.0692;-0.7479;
660.9000;0.0700;-0.7479;
661.2000;0.0741;-0.7501;
661.5000;0.0716;-0.7524;
661.8000;0.0692;-0.7568;
662.1000;0.0692;-0.7546;
662.4000;0.0749;-0.7369;
662.7000;0.0733;-0.7391;
663.0000;0.0716;-0.7347;
663.3000;0.0773;-0.7258;
663.6000;0.0749;-0.7435;
663.9000;0.0733;-0.7479;
664.2000;0.0676;-0.7546;
664.5000;0.0667;-0.7701;
664.8000;0.0724;-0.7479;
665.1000;0.0635;-0.7656;
665.4000;0.0806;-0.7236;
665.7000;0.0724;-0.7391;
666.0000;0.0716;-0.7347;
666.3000;0.0733;-0.7214;
666.6000;0.0684;-0.7236;
666.9000;0.0733;-0.7192;
667.2000;0.0749;-0.7214;
667.5000;0.0708;-0.7369;
667.8000;0.0741;-0.7302;
668.1000;0.0733;-0.7280;
668.4000;0.0700;-0.7280;
668.7000;0.0733;-0.7324;
669.0000;0.0765;-0.7347;
669.3000;0.0708;-0.7479;
669.6000;0.0724;-0.7457;
669.9000;0.0716;-0.7369;
670.2000;0.0765;-0.7170;
670.5000;0.0724;-0.7236;
670.8000;0.0724;-0.7125;
671.1000;0.0635;-0.7324;
671.4000;0.0724;-0.7103;
671.7000;0.0684;-0.7236;
672.0000;0.0733;-0.7170;
672.3000;0.0733;-0.7170;
672.6000;0.0724;-0.7125;
672.9000;0.0724;-0.7192;
673.2000;0.0741;-0.7125;
673.5000;0.0716;-0.7214;
673.8000;0.0733;-0.7236;
674.1000;0.0676;-0.7369;
674.4000;0.0781;-0.7192;
674.7000;0.0741;-0.7347;
675.0000;0.0741;-0.7324;
675.3000;0.0724;-0.7324;
675.6000;0.0741;-0.7236;
675.9000;0.0708;-0.7280;
676.2000;0.0798;-0.7170;
676.5000;0.0749;-0.7258;
676.8000;0.0741;-0.7258;
677.1000;0.0773;-0.7125;
677.4000;0.0741;-0.7214;
677.7000;0.0757;-0.7170;
678.0000;0.0733;-0.7192;
678.3000;0.0700;-0.7413;
678.6000;0.0733;-0.7347;
678.9000;0.0708;-0.7347;
679.2000;0.0708;-0.7369;
679.5000;0.0716;-0.7258;
679.8000;0.0716;-0.7236;
680.1000;0.0806;-0.7015;
680.4000;0.0578;-0.7568;
680.7000;0.0716;-0.7192;
681.0000;0.0700;-0.7369;
681.3000;0.0765;-0.7324;
681.6000;0.0749;-0.7324;
681.9000;0.0716;-0.7369;
682.2000;0.0594;-0.7546;
682.5000;0.0619;-0.7391;
682.8000;0.0724;-0.7103;
683.1000;0.0741;-0.7125;
683.4000;0.0716;-0.7214;
683.7000;0.0733;-0.7125;
684.0000;0.0724;-0.7170;
684.3000;0.0724;-0.7170;
684.6000;0.0676;-0.7347;
684.9000;0.0724;-0.7103;
685.2000;0.0708;-0.7170;
685.5000;0.0716;-0.7214;
685.8000;0.0724;-0.7236;
686.1000;0.0741;-0.7258;
686.4000;0.0700;-0.7280;
686.7000;0.0757;-0.7214;
687.0000;0.0798;-0.7214;
687.3000;0.0659;-0.7479;
687.6000;0.0830;-0.7059;
687.9000;0.0716;-0.7280;
688.2000;0.0684;-0.7347;
688.5000;0.0830;-0.7147;
688.8000;0.0554;-0.7833;
689.1000;0.0716;-0.7391;
689.4000;0.0684;-0.7501;
689.7000;0.0708;-0.7435;
690.0000;0.0708;-0.7457;
690.3000;0.0708;-0.7524;
690.6000;0.0643;-0.7634;
690.9000;0.0708;-0.7457;
691.2000;0.0749;-0.7347;
691.5000;0.0724;-0.7413;
691.8000;0.0684;-0.7435;
692.1000;0.0700;-0.7324;
692.4000;0.0724;-0.7324;
692.7000;0.0716;-0.7347;
693.0000;0.0651;-0.7546;
693.3000;0.0708;-0.7347;
693.6000;0.0741;-0.7258;
693.9000;0.0700;-0.7413;
694.2000;0.0749;-0.7324;
694.5000;0.0692;-0.7391;
694.8000;0.0724;-0.7280;
695.1000;0.0724;-0.7280;
695.4000;0.0724;-0.7369;
695.7000;0.0724;-0.7413;
696.0000;0.0611;-0.7656;
696.3000;0.0692;-0.7479;
696.6000;0.0724;-0.7435;
696.9000;0.0733;-0.7435;
697.2000;0.0700;-0.7457;
697.5000;0.0733;-0.7391;
697.8000;0.0749;-0.7347;
698.1000;0.0659;-0.7568;
698.4000;0.0724;-0.7347;
698.7000;0.0741;-0.7280;
699.0000;0.0724;-0.7413;
699.3000;0.0700;-0.7524;
699.6000;0.0692;-0.7524;
699.9000;0.0700;-0.7546;
700.2000;0.0733;-0.7479;
700.5000;0.0684;-0.7546;
700.8000;0.0781;-0.7324;
701.1000;0.0700;-0.7457;
701.4000;0.0602;-0.7612;
701.7000;0.0651;-0.7612;
702.0000;0.0708;-0.7479;
702.3000;0.0708;-0.7457;
702.6000;0.0716;-0.7457;
702.9000;0.0749;-0.7347;
703.2000;0.0651;-0.7568;
703.5000;0.0830;-0.7214;
703.8000;0.0643;-0.7701;
704.1000;0.0659;-0.7678;
704.4000;0.0724;-0.7479;
704.7000;0.0757;-0.7347;
705.0000;0.0733;-0.7369;
705.3000;0.0741;-0.7435;
705.6000;0.0700;-0.7524;
705.9000;0.0724;-0.7413;
706.2000;0.0692;-0.7479;
706.5000;0.0781;-0.7280;
706.8000;0.0635;-0.7524;
707.1000;0.0741;-0.7302;
707.4000;0.0716;-0.7347;
707.7000;0.0741;-0.7214;
708.0000;0.0708;-0.7258;
708.3000;0.0708;-0.7236;
708.6000;0.0700;-0.7302;
708.9000;0.0700;-0.7369;
709.2000;0.0708;-0.7369;
709.5000;0.0733;-0.7236;
709.8000;0.0741;-0.7170;
710.1000;0.0716;-0.7302;
710.4000;0.0708;-0.7214;
710.7000;0.0757;-0.7103;
711.0000;0.0684;-0.7280;
711.3000;0.0700;-0.7280;
711.6000;0.0724;-0.7236;
711.9000;0.0741;-0.7236;
712.2000;0.0724;-0.7214;
712.5000;0.0741;-0.7170;
712.8000;0.0700;-0.7324;
713.1000;0.0773;-0.7147;
713.4000;0.0741;-0.7302;
713.7000;0.0724;-0.7324;
714.0000;0.0781;-0.7170;
714.3000;0.0700;-0.7369;
714.6000;0.0724;-0.7324;
714.9000;0.0724;-0.7369;
715.2000;0.0692;-0.7435;
715.5000;0.0798;-0.7170;
715.8000;0.0749;-0.7324;
716.1000;0.0700;-0.7413;
716.4000;0.0708;-0.7369;
716.7000;0.0749;-0.7258;
717.0000;0.0741;-0.7236;
717.3000;0.0749;-0.7214;
717.6000;0.0578;-0.7568;
717.9000;0.0741;-0.7280;
718.2000;0.0724;-0.7435;
718.5000;0.0749;-0.7413;
718.8000;0.0806;-0.7258;
719.1000;0.0724;-0.7501;
719.4000;0.0708;-0.7590;
719.7000;0.0716;-0.7612;
720.0000;0.0651;-0.7723;
720.3000;0.0733;-0.7435;
720.6000;0.0692;-0.7413;
720.9000;0.0733;-0.7302;
721.2000;0.0716;-0.7369;
721.5000;0.0741;-0.7324;
721.8000;0.0749;-0.7324;
722.1000;0.0724;-0.7457;
722.4000;0.0724;-0.7457;
722.7000;0.0716;-0.7479;
723.0000;0.0724;-0.7501;
723.3000;0.0749;-0.7435;
723.6000;0.0676;-0.7546;
723.9000;0.0716;-0.7435;
724.2000;0.0716;-0.7413;
724.5000;0.0708;-0.7369;
724.8000;0.0684;-0.7258;
725.1000;0.0733;-0.7236;
725.4000;0.0716;-0.7258;
725.7000;0.0741;-0.7147;
726.0000;0.0741;-0.7103;
726.3000;0.0716;-0.7170;
726.6000;0.0757;-0.7125;
726.9000;0.0667;-0.7302;
727.2000;0.0578;-0.7524;
727.5000;0.0708;-0.7214;
727.8000;0.0692;-0.7147;
728.1000;0.0692;-0.7147;
728.4000;0.0716;-0.7170;
728.7000;0.0708;-0.7280;
729.0000;0.0700;-0.7324;
729.3000;0.0708;-0.7280;
729.6000;0.0741;-0.7302;
729.9000;0.0724;-0.7236;
730.2000;0.0708;-0.7302;
730.5000;0.0692;-0.7324;
730.8000;0.0724;-0.7347;
731.1000;0.0716;-0.7457;
731.4000;0.0716;-0.7457;
731.7000;0.0708;-0.7457;
732.0000;0.0749;-0.7435;
732.3000;0.0733;-0.7546;
732.6000;0.0611;-0.7678;
732.9000;0.0724;-0.7435;
733.2000;0.0733;-0.7369;
733.5000;0.0741;-0.7258;
733.8000;0.0741;-0.7280;
734.1000;0.0733;-0.7214;
734.4000;0.0765;-0.7170;
734.7000;0.0692;-0.7324;
735.0000;0.0741;-0.7258;
735.3000;0.0716;-0.7391;
735.6000;0.0716;-0.7369;
735.9000;0.0700;-0.7479;
736.2000;0.0708;-0.7501;
736.5000;0.0741;-0.7457;
736.8000;0.0602;-0.7833;
737.1000;0.0700;-0.7612;
737.4000;0.0724;-0.7590;
737.7000;0.0741;-0.7479;
738.0000;0.0716;-0.7524;
738.3000;0.0733;-0.7479;
738.6000;0.0806;-0.7413;
738.9000;0.0684;-0.7723;
739.2000;0.0733;-0.7612;
739.5000;0.0773;-0.7568;
739.8000;0.0741;-0.7568;
740.1000;0.0733;-0.7568;
740.4000;0.0724;-0.7501;
740.7000;0.0692;-0.7524;
741.0000;0.0700;-0.7501;
741.3000;0.0724;-0.7413;
741.6000;0.0684;-0.7524;
741.9000;0.0700;-0.7524;
742.2000;0.0716;-0.7501;
742.5000;0.0708;-0.7479;
742.8000;0.0708;-0.7501;
743.1000;0.0724;-0.7324;
743.4000;0.0733;-0.7347;
743.7000;0.0708;-0.7413;
744.0000;0.0716;-0.7391;
744.3000;0.0724;-0.7413;
744.6000;0.0716;-0.7546;
744.9000;0.0708;-0.7546;
745.2000;0.0733;-0.7524;
745.5000;0.0700;-0.7501;
745.8000;0.0716;-0.7435;
746.1000;0.0716;-0.7413;
746.4000;0.0708;-0.7369;
746.7000;0.0692;-0.7347;
747.0000;0.0716;-0.7347;
747.3000;0.0708;-0.7413;
747.6000;0.0733;-0.7324;
747.9000;0.0708;-0.7435;
748.2000;0.0724;-0.7413;
748.5000;0.0733;-0.7369;
748.8000;0.0700;-0.7568;
749.1000;0.0733;-0.7501;
749.4000;0.0741;-0.7413;
749.7000;0.0708;-0.7391;
750.0000;0.0667;-0.7501;
750.3000;0.0708;-0.7369;
750.6000;0.0724;-0.7369;
750.9000;0.0700;-0.7435;
751.2000;0.0716;-0.7413;
751.5000;0.0733;-0.7369;
751.8000;0.0724;-0.7369;
752.1000;0.0716;-0.7324;
752.4000;0.0716;-0.7391;
752.7000;0.0749;-0.7413;
753.0000;0.0773;-0.7435;
753.3000;0.0708;-0.7546;
753.6000;0.0716;-0.7590;
753.9000;0.0724;-0.7479;
754.2000;0.0708;-0.7501;
754.5000;0.0700;-0.7568;
754.8000;0.0741;-0.7479;
755.1000;0.0692;-0.7524;
755.4000;0.0716;-0.7391;
755.7000;0.0741;-0.7369;
756.0000;0.0716;-0.7391;
756.3000;0.0708;-0.7524;
756.6000;0.0741;-0.7435;
756.9000;0.0700;-0.7568;
757.2000;0.0700;-0.7457;
757.5000;0.0716;-0.7501;
757.8000;0.0724;-0.7457;
758.1000;0.0716;-0.7501;
758.4000;0.0724;-0.7479;
758.7000;0.0692;-0.7546;
759.0000;0.0708;-0.7479;
759.3000;0.0724;-0.7457;
759.6000;0.0602;-0.7634;
759.9000;0.0716;-0.7302;
760.2000;0.0700;-0.7391;
760.5000;0.0716;-0.7413;
760.8000;0.0708;-0.7391;
761.1000;0.0700;-0.7413;
761.4000;0.0716;-0.7391;
761.7000;0.0790;-0.7214;
762.0000;0.0708;-0.7302;
762.3000;0.0733;-0.7214;
762.6000;0.0692;-0.7302;
762.9000;0.0716;-0.7192;
763.2000;0.0708;-0.7236;
763.5000;0.0700;-0.7347;
763.8000;0.0716;-0.7347;
764.1000;0.0741;-0.7280;
764.4000;0.0765;-0.7280;
764.7000;0.0724;-0.7479;
765.0000;0.0724;-0.7435;
765.3000;0.0798;-0.7147;
765.6000;0.0651;-0.7590;
765.9000;0.0733;-0.7413;
766.2000;0.0757;-0.7369;
766.5000;0.0708;-0.7524;
766.8000;0.0724;-0.7524;
767.1000;0.0716;-0.7479;
767.4000;0.0724;-0.7369;
767.7000;0.0716;-0.7413;
768.0000;0.0716;-0.7369;
768.3000;0.0708;-0.7347;
768.6000;0.0724;-0.7369;
768.9000;0.0724;-0.7369;
769.2000;0.0708;-0.7501;
769.5000;0.0733;-0.7435;
769.8000;0.0716;-0.7546;
770.1000;0.0741;-0.7524;
770.4000;0.0765;-0.7479;
770.7000;0.0716;-0.7590;
771.0000;0.0708;-0.7656;
771.3000;0.0692;-0.7612;
771.6000;0.0741;-0.7479;
771.9000;0.0716;-0.7479;
772.2000;0.0684;-0.7546;
772.5000;0.0724;-0.7501;
772.8000;0.0708;-0.7524;
773.1000;0.0635;-0.7656;
773.4000;0.0716;-0.7479;
773.7000;0.0700;-0.7479;
774.0000;0.0733;-0.7524;
774.3000;0.0765;-0.7435;
774.6000;0.0708;-0.7546;
774.9000;0.0716;-0.7435;
775.2000;0.0765;-0.7369;
775.5000;0.0716;-0.7546;
775.8000;0.0724;-0.7656;
776.1000;0.0741;-0.7678;
776.4000;0.0716;-0.7634;
776.7000;0.0757;-0.7524;
777.0000;0.0716;-0.7568;
777.3000;0.0692;-0.7590;
777.6000;0.0741;-0.7391;
777.9000;0.0749;-0.7324;
778.2000;0.0700;-0.7457;
778.5000;0.0716;-0.7391;
778.8000;0.0724;-0.7347;
779.1000;0.0716;-0.7479;
779.4000;0.0716;-0.7524;
779.7000;0.0708;-0.7612;
780.0000;0.0692;-0.7678;
780.3000;0.0733;-0.7634;
780.6000;0.0773;-0.7524;
780.9000;0.0716;-0.7634;
781.2000;0.0716;-0.7612;
781.5000;0.0733;-0.7435;
781.8000;0.0724;-0.7479;
782.1000;0.0724;-0.7479;
782.4000;0.0716;-0.7501;
782.7000;0.0822;-0.7170;
783.0000;0.0692;-0.7479;
783.3000;0.0716;-0.7524;
783.6000;0.0708;-0.7568;
783.9000;0.0765;-0.7413;
784.2000;0.0708;-0.7590;
784.5000;0.0724;-0.7612;
784.8000;0.0790;-0.7413;
785.1000;0.0724;-0.7590;
785.4000;0.0724;-0.7524;
785.7000;0.0773;-0.7413;
786.0000;0.0692;-0.7568;
786.3000;0.0741;-0.7479;
786.6000;0.0708;-0.7501;
786.9000;0.0724;-0.7457;
787.2000;0.0724;-0.7369;
787.5000;0.0700;-0.7413;
787.8000;0.0733;-0.7369;
788.1000;0.0749;-0.7347;
788.4000;0.0716;-0.7347;
788.7000;0.0724;-0.7369;
789.0000;0.0716;-0.7435;
789.3000;0.0741;-0.7413;
789.6000;0.0724;-0.7413;
789.9000;0.0757;-0.7302;
790.2000;0.0790;-0.7369;
790.5000;0.0716;-0.7524;
790.8000;0.0741;-0.7524;
791.1000;0.0733;-0.7568;
791.4000;0.0700;-0.7678;
791.7000;0.0708;-0.7634;
792.0000;0.0724;-0.7701;
792.3000;0.0814;-0.7347;
792.6000;0.0724;-0.7546;
792.9000;0.0700;-0.7634;
793.2000;0.0765;-0.7457;
793.5000;0.0741;-0.7413;
793.8000;0.0716;-0.7501;
794.1000;0.0716;-0.7568;
794.4000;0.0749;-0.7546;
794.7000;0.0724;-0.7612;
795.0000;0.0692;-0.7612;
795.3000;0.0684;-0.7590;
795.6000;0.0708;-0.7501;
795.9000;0.0716;-0.7479;
796.2000;0.0635;-0.7634;
796.5000;0.0700;-0.7524;
796.8000;0.0684;-0.7501;
797.1000;0.0733;-0.7347;
797.4000;0.0716;-0.7369;
797.7000;0.0716;-0.7347;
798.0000;0.0749;-0.7236;
798.3000;0.0716;-0.7324;
798.6000;0.0716;-0.7391;
798.9000;0.0700;-0.7435;
799.2000;0.0724;-0.7435;
799.5000;0.0716;-0.7479;
799.8000;0.0724;-0.7435;
800.1000;0.0724;-0.7435;
800.4000;0.0700;-0.7479;
800.7000;0.0708;-0.7479;
801.0000;0.0667;-0.7590;
801.3000;0.0724;-0.7524;
801.6000;0.0716;-0.7524;
801.9000;0.0733;-0.7413;
802.2000;0.0700;-0.7435;
802.5000;0.0741;-0.7302;
802.8000;0.0700;-0.7347;
803.1000;0.0708;-0.7324;
803.4000;0.0700;-0.7347;
803.7000;0.0716;-0.7435;
804.0000;0.0708;-0.7524;
804.3000;0.0741;-0.7391;
804.6000;0.0765;-0.7369;
804.9000;0.0708;-0.7479;
805.2000;0.0716;-0.7501;
805.5000;0.0700;-0.7479;
805.8000;0.0708;-0.7479;
806.1000;0.0733;-0.7369;
806.4000;0.0765;-0.7103;
806.7000;0.0749;-0.7170;
807.0000;0.0733;-0.7280;
807.3000;0.0724;-0.7369;
807.6000;0.0676;-0.7457;
807.9000;0.0627;-0.7568;
808.2000;0.0765;-0.7192;
808.5000;0.0692;-0.7413;
808.8000;0.0733;-0.7391;
809.1000;0.0724;-0.7391;
809.4000;0.0635;-0.7612;
809.7000;0.0798;-0.7280;
810.0000;0.0716;-0.7457;
810.3000;0.0708;-0.7524;
810.6000;0.0716;-0.7457;
810.9000;0.0716;-0.7347;
811.2000;0.0708;-0.7324;
811.5000;0.0749;-0.7147;
811.8000;0.0716;-0.7347;
812.1000;0.0724;-0.7280;
812.4000;0.0692;-0.7324;
812.7000;0.0708;-0.7302;
813.0000;0.0716;-0.7258;
813.3000;0.0733;-0.7258;
813.6000;0.0733;-0.7280;
813.9000;0.0716;-0.7324;
814.2000;0.0676;-0.7457;
814.5000;0.0700;-0.7280;
814.8000;0.0716;-0.7236;
815.1000;0.0733;-0.7214;
815.4000;0.0724;-0.7192;
815.7000;0.0757;-0.7081;
816.0000;0.0708;-0.7214;
816.3000;0.0708;-0.7258;
816.6000;0.0724;-0.7192;
816.9000;0.0700;-0.7324;
817.2000;0.0708;-0.7347;
817.5000;0.0733;-0.7302;
817.8000;0.0692;-0.7413;
818.1000;0.0700;-0.7501;
818.4000;0.0684;-0.7612;
818.7000;0.0724;-0.7501;
819.0000;0.0700;-0.7435;
819.3000;0.0716;-0.7435;
819.6000;0.0741;-0.7413;
819.9000;0.0733;-0.7501;
820.2000;0.0708;-0.7501;
820.5000;0.0708;-0.7524;
820.8000;0.0716;-0.7524;
821.1000;0.0667;-0.7568;
821.4000;0.0700;-0.7457;
821.7000;0.0716;-0.7524;
822.0000;0.0692;-0.7568;
822.3000;0.0692;-0.7524;
822.6000;0.0741;-0.7391;
822.9000;0.0692;-0.7546;
823.2000;0.0733;-0.7546;
823.5000;0.0708;-0.7568;
823.8000;0.0708;-0.7479;
824.1000;0.0578;-0.7745;
824.4000;0.0733;-0.7413;
824.7000;0.0749;-0.7413;
825.0000;0.0708;-0.7501;
825.3000;0.0724;-0.7457;
825.6000;0.0716;-0.7435;
825.9000;0.0700;-0.7435;
826.2000;0.0724;-0.7413;
826.5000;0.0733;-0.7347;
826.8000;0.0716;-0.7391;
827.1000;0.0733;-0.7258;
827.4000;0.0659;-0.7546;
827.7000;0.0724;-0.7391;
828.0000;0.0716;-0.7391;
828.3000;0.0716;-0.7347;
828.6000;0.0692;-0.7435;
828.9000;0.0765;-0.7258;
829.2000;0.0716;-0.7347;
829.5000;0.0692;-0.7457;
829.8000;0.0733;-0.7324;
830.1000;0.0716;-0.7347;
830.4000;0.0716;-0.7435;
830.7000;0.0716;-0.7479;
831.0000;0.0619;-0.7678;
831.3000;0.0724;-0.7501;
831.6000;0.0733;-0.7501;
831.9000;0.0708;-0.7457;
832.2000;0.0733;-0.7302;
832.5000;0.0814;-0.7170;
832.8000;0.0724;-0.7413;
833.1000;0.0733;-0.7413;
833.4000;0.0724;-0.7413;
833.7000;0.0676;-0.7435;
834.0000;0.0733;-0.7302;
834.3000;0.0700;-0.7435;
834.6000;0.0724;-0.7435;
834.9000;0.0716;-0.7457;
835.2000;0.0708;-0.7479;
835.5000;0.0716;-0.7524;
835.8000;0.0716;-0.7546;
836.1000;0.0741;-0.7501;
836.4000;0.0724;-0.7568;
836.7000;0.0708;-0.7634;
837.0000;0.0733;-0.7612;
837.3000;0.0716;-0.7656;
837.6000;0.0700;-0.7656;
837.9000;0.0733;-0.7568;
838.2000;0.0692;-0.7568;
838.5000;0.0716;-0.7501;
838.8000;0.0741;-0.7435;
839.1000;0.0741;-0.7324;
839.4000;0.0708;-0.7413;
839.7000;0.0716;-0.7347;
840.0000;0.0741;-0.7280;
840.3000;0.0716;-0.7324;
840.6000;0.0716;-0.7324;
840.9000;0.0716;-0.7391;
841.2000;0.0708;-0.7501;
841.5000;0.0659;-0.7546;
841.8000;0.0643;-0.7723;
842.1000;0.0724;-0.7501;
842.4000;0.0708;-0.7546;
842.7000;0.0724;-0.7457;
843.0000;0.0716;-0.7457;
843.3000;0.0708;-0.7391;
843.6000;0.0733;-0.7324;
843.9000;0.0765;-0.7280;
844.2000;0.0700;-0.7479;
844.5000;0.0700;-0.7347;
844.8000;0.0708;-0.7302;
845.1000;0.0692;-0.7302;
845.4000;0.0700;-0.7391;
845.7000;0.0733;-0.7302;
846.0000;0.0733;-0.7280;
846.3000;0.0602;-0.7612;
846.6000;0.0724;-0.7413;
846.9000;0.0716;-0.7479;
847.2000;0.0692;-0.7546;
847.5000;0.0724;-0.7435;
847.8000;0.0724;-0.7501;
848.1000;0.0733;-0.7590;
848.4000;0.0676;-0.7678;
848.7000;0.0700;-0.7590;
849.0000;0.0741;-0.7435;
849.3000;0.0700;-0.7457;
849.6000;0.0781;-0.7280;
849.9000;0.0708;-0.7457;
850.2000;0.0700;-0.7546;
850.5000;0.0749;-0.7324;
850.8000;0.0733;-0.7391;
851.1000;0.0716;-0.7347;
851.4000;0.0716;-0.7347;
851.7000;0.0806;-0.7170;
852.0000;0.0716;-0.7347;
852.3000;0.0741;-0.7280;
852.6000;0.0724;-0.7369;
852.9000;0.0635;-0.7546;
853.2000;0.0700;-0.7501;
853.5000;0.0716;-0.7479;
853.8000;0.0716;-0.7413;
854.1000;0.0716;-0.7391;
854.4000;0.0749;-0.7214;
854.7000;0.0790;-0.7037;
855.0000;0.0684;-0.7302;
855.3000;0.0676;-0.7413;
855.6000;0.0716;-0.7479;
855.9000;0.0733;-0.7413;
856.2000;0.0716;-0.7413;
856.5000;0.0733;-0.7413;
856.8000;0.0708;-0.7479;
857.1000;0.0733;-0.7369;
857.4000;0.0700;-0.7347;
857.7000;0.0741;-0.7147;
858.0000;0.0684;-0.7258;
858.3000;0.0716;-0.7214;
858.6000;0.0684;-0.7258;
858.9000;0.0692;-0.7258;
859.2000;0.0724;-0.7236;
859.5000;0.0741;-0.7192;
859.8000;0.0700;-0.7413;
860.1000;0.0676;-0.7391;
860.4000;0.0724;-0.7347;
860.7000;0.0724;-0.7347;
861.0000;0.0708;-0.7347;
861.3000;0.0700;-0.7479;
861.6000;0.0700;-0.7568;
861.9000;0.0724;-0.7546;
862.2000;0.0708;-0.7501;
862.5000;0.0733;-0.7479;
862.8000;0.0741;-0.7501;
863.1000;0.0692;-0.7656;
863.4000;0.0757;-0.7524;
863.7000;0.0716;-0.7501;
864.0000;0.0716;-0.7435;
864.3000;0.0749;-0.7435;
864.6000;0.0716;-0.7479;
864.9000;0.0684;-0.7524;
865.2000;0.0684;-0.7435;
865.5000;0.0716;-0.7435;
865.8000;0.0733;-0.7457;
866.1000;0.0692;-0.7501;
866.4000;0.0700;-0.7524;
866.7000;0.0708;-0.7590;
867.0000;0.0708;-0.7612;
867.3000;0.0822;-0.7391;
867.6000;0.0708;-0.7524;
867.9000;0.0757;-0.7347;
868.2000;0.0708;-0.7391;
868.5000;0.0733;-0.7236;
868.8000;0.0716;-0.7369;
869.1000;0.0716;-0.7369;
869.4000;0.0724;-0.7435;
869.7000;0.0700;-0.7501;
870.0000;0.0733;-0.7413;
870.3000;0.0716;-0.7369;
870.6000;0.0708;-0.7236;
870.9000;0.0781;-0.6992;
871.2000;0.0757;-0.7037;
871.5000;0.0611;-0.7413;
871.8000;0.0716;-0.7037;
872.1000;0.0692;-0.7125;
872.4000;0.0651;-0.7236;
872.7000;0.0708;-0.7103;
873.0000;0.0733;-0.7037;
873.3000;0.0708;-0.7103;
873.6000;0.0700;-0.7147;
873.9000;0.0700;-0.7214;
874.2000;0.0700;-0.7192;
874.5000;0.0733;-0.7147;
874.8000;0.0716;-0.7192;
875.1000;0.0708;-0.7170;
875.4000;0.0733;-0.7059;
875.7000;0.0635;-0.7258;
876.0000;0.0749;-0.7037;
876.3000;0.0716;-0.7103;
876.6000;0.0757;-0.7059;
876.9000;0.0822;-0.6904;
877.2000;0.0749;-0.7125;
877.5000;0.0757;-0.7125;
877.8000;0.0765;-0.7081;
878.1000;0.0733;-0.7147;
878.4000;0.0724;-0.7170;
878.7000;0.0692;-0.7236;
879.0000;0.0700;-0.7324;
879.3000;0.0700;-0.7435;
879.6000;0.0700;-0.7435;
879.9000;0.0830;-0.7081;
880.2000;0.0692;-0.7457;
880.5000;0.0716;-0.7413;
880.8000;0.0733;-0.7324;
881.1000;0.0692;-0.7391;
881.4000;0.0594;-0.7678;
881.7000;0.0700;-0.7524;
882.0000;0.0716;-0.7501;
882.3000;0.0757;-0.7258;
882.6000;0.0716;-0.7280;
882.9000;0.0716;-0.7413;
883.2000;0.0716;-0.7324;
883.5000;0.0724;-0.7302;
883.8000;0.0708;-0.7391;
884.1000;0.0741;-0.7280;
884.4000;0.0741;-0.7280;
884.7000;0.0724;-0.7479;
885.0000;0.0765;-0.7369;
885.3000;0.0724;-0.7324;
885.6000;0.0708;-0.7369;
885.9000;0.0676;-0.7479;
886.2000;0.0692;-0.7435;
886.5000;0.0692;-0.7391;
886.8000;0.0724;-0.7192;
887.1000;0.0822;-0.6926;
887.4000;0.0871;-0.6815;
887.7000;0.0716;-0.7324;
888.0000;0.0733;-0.7280;
888.3000;0.0798;-0.7125;
888.6000;0.0716;-0.7369;
888.9000;0.0716;-0.7457;
889.2000;0.0790;-0.7280;
889.5000;0.0651;-0.7612;
889.8000;0.0724;-0.7457;
890.1000;0.0716;-0.7479;
890.4000;0.0716;-0.7546;
890.7000;0.0708;-0.7634;
891.0000;0.0749;-0.7634;
891.3000;0.0724;-0.7546;
891.6000;0.0700;-0.7546;
891.9000;0.0700;-0.7479;
892.2000;0.0757;-0.7324;
892.5000;0.0716;-0.7413;
892.8000;0.0724;-0.7302;
893.1000;0.0724;-0.7258;
893.4000;0.0724;-0.7125;
893.7000;0.0716;-0.7170;
894.0000;0.0643;-0.7391;
894.3000;0.0781;-0.7081;
894.6000;0.0716;-0.7214;
894.9000;0.0684;-0.7302;
895.2000;0.0676;-0.7369;
895.5000;0.0651;-0.7369;
895.8000;0.0724;-0.7236;
896.1000;0.0708;-0.7280;
896.4000;0.0733;-0.7236;
896.7000;0.0733;-0.7214;
897.0000;0.0724;-0.7280;
897.3000;0.0716;-0.7280;
897.6000;0.0724;-0.7280;
897.9000;0.0724;-0.7236;
898.2000;0.0700;-0.7280;
898.5000;0.0708;-0.7236;
898.8000;0.0733;-0.7103;
899.1000;0.0733;-0.7059;
899.4000;0.0692;-0.7147;
899.7000;0.0806;-0.6926;
900.0000;0.0692;-0.7170;
900.3000;0.0741;-0.7059;
900.6000;0.0716;-0.7059;
900.9000;0.0724;-0.7059;
901.2000;0.0806;-0.6904;
901.5000;0.0716;-0.7125;
901.8000;0.0643;-0.7435;
902.1000;0.0741;-0.7302;
902.4000;0.0733;-0.7347;
902.7000;0.0692;-0.7413;
903.0000;0.0724;-0.7236;
903.3000;0.0716;-0.7236;
903.6000;0.0871;-0.6926;
903.9000;0.0708;-0.7391;
904.2000;0.0847;-0.7015;
904.5000;0.0749;-0.7258;
904.8000;0.0724;-0.7324;
905.1000;0.0611;-0.7568;
905.4000;0.0749;-0.7324;
905.7000;0.0781;-0.7258;
906.0000;0.0741;-0.7324;
906.3000;0.0700;-0.7546;
906.6000;0.0765;-0.7391;
906.9000;0.0700;-0.7612;
907.2000;0.0741;-0.7546;
907.5000;0.0716;-0.7524;
907.8000;0.0716;-0.7369;
908.1000;0.0700;-0.7413;
908.4000;0.0765;-0.7236;
908.7000;0.0724;-0.7391;
909.0000;0.0716;-0.7391;
909.3000;0.0724;-0.7369;
909.6000;0.0708;-0.7435;
909.9000;0.0741;-0.7391;
910.2000;0.0724;-0.7479;
910.5000;0.0708;-0.7435;
910.8000;0.0684;-0.7501;
911.1000;0.0676;-0.7524;
911.4000;0.0781;-0.7192;
911.7000;0.0716;-0.7258;
912.0000;0.0716;-0.7236;
912.3000;0.0724;-0.7258;
912.6000;0.0692;-0.7369;
912.9000;0.0724;-0.7236;
913.2000;0.0676;-0.7324;
913.5000;0.0659;-0.7413;
913.8000;0.0700;-0.7258;
914.1000;0.0724;-0.7302;
914.4000;0.0765;-0.7170;
914.7000;0.0716;-0.7280;
915.0000;0.0692;-0.7302;
915.3000;0.0724;-0.7236;
915.6000;0.0733;-0.7302;
915.9000;0.0716;-0.7369;
916.2000;0.0692;-0.7501;
916.5000;0.0733;-0.7501;
916.8000;0.0708;-0.7479;
917.1000;0.0724;-0.7369;
917.4000;0.0733;-0.7324;
917.7000;0.0716;-0.7302;
918.0000;0.0716;-0.7214;
918.3000;0.0692;-0.7192;
918.6000;0.0716;-0.7214;
918.9000;0.0733;-0.7192;
919.2000;0.0741;-0.7214;
919.5000;0.0700;-0.7324;
919.8000;0.0708;-0.7324;
920.1000;0.0700;-0.7302;
920.4000;0.0733;-0.7236;
920.7000;0.0716;-0.7302;
921.0000;0.0716;-0.7347;
921.3000;0.0716;-0.7302;
921.6000;0.0741;-0.7236;
921.9000;0.0724;-0.7347;
922.2000;0.0716;-0.7369;
922.5000;0.0790;-0.7192;
922.8000;0.0749;-0.7369;
923.1000;0.0724;-0.7413;
923.4000;0.0741;-0.7435;
923.7000;0.0733;-0.7501;
924.0000;0.0700;-0.7524;
924.3000;0.0741;-0.7457;
924.6000;0.0716;-0.7479;
924.9000;0.0724;-0.7413;
925.2000;0.0708;-0.7369;
925.5000;0.0741;-0.7280;
925.8000;0.0700;-0.7324;
926.1000;0.0716;-0.7302;
926.4000;0.0692;-0.7413;
926.7000;0.0741;-0.7302;
927.0000;0.0716;-0.7324;
927.3000;0.0716;-0.7258;
927.6000;0.0798;-0.6992;
927.9000;0.0741;-0.7192;
928.2000;0.0611;-0.7546;
928.5000;0.0643;-0.7413;
928.8000;0.0692;-0.7391;
929.1000;0.0700;-0.7258;
929.4000;0.0790;-0.7059;
929.7000;0.0733;-0.7192;
930.0000;0.0773;-0.7103;
930.3000;0.0692;-0.7324;
930.6000;0.0716;-0.7258;
930.9000;0.0684;-0.7324;
931.2000;0.0708;-0.7324;
931.5000;0.0741;-0.7280;
931.8000;0.0684;-0.7457;
932.1000;0.0692;-0.7457;
932.4000;0.0692;-0.7501;
932.7000;0.0716;-0.7369;
933.0000;0.0733;-0.7302;
933.3000;0.0741;-0.7347;
933.6000;0.0749;-0.7258;
933.9000;0.0700;-0.7369;
934.2000;0.0708;-0.7324;
934.5000;0.0692;-0.7214;
934.8000;0.0724;-0.7236;
935.1000;0.0757;-0.7236;
935.4000;0.0684;-0.7302;
935.7000;0.0716;-0.7192;
936.0000;0.0700;-0.7369;
936.3000;0.0635;-0.7546;
936.6000;0.0733;-0.7324;
936.9000;0.0724;-0.7280;
937.2000;0.0700;-0.7258;
937.5000;0.0716;-0.7369;
937.8000;0.0708;-0.7391;
938.1000;0.0724;-0.7413;
938.4000;0.0692;-0.7457;
938.7000;0.0765;-0.7369;
939.0000;0.0716;-0.7413;
939.3000;0.0733;-0.7347;
939.6000;0.0724;-0.7324;
939.9000;0.0708;-0.7413;
940.2000;0.0708;-0.7457;
940.5000;0.0765;-0.7280;
940.8000;0.0716;-0.7347;
941.1000;0.0700;-0.7391;
941.4000;0.0724;-0.7347;
941.7000;0.0692;-0.7457;
942.0000;0.0765;-0.7347;
942.3000;0.0724;-0.7457;
942.6000;0.0700;-0.7546;
942.9000;0.0716;-0.7391;
943.2000;0.0716;-0.7435;
943.5000;0.0757;-0.7236;
943.8000;0.0700;-0.7280;
944.1000;0.0700;-0.7347;
944.4000;0.0570;-0.7656;
944.7000;0.0708;-0.7347;
945.0000;0.0708;-0.7324;
945.3000;0.0692;-0.7369;
945.6000;0.0700;-0.7324;
945.9000;0.0708;-0.7302;
946.2000;0.0700;-0.7324;
946.5000;0.0733;-0.7192;
946.8000;0.0716;-0.7258;
947.1000;0.0716;-0.7236;
947.4000;0.0708;-0.7302;
947.7000;0.0700;-0.7280;
948.0000;0.0692;-0.7324;
948.3000;0.0651;-0.7391;
948.6000;0.0733;-0.7170;
948.9000;0.0700;-0.7302;
949.2000;0.0708;-0.7280;
949.5000;0.0716;-0.7280;
949.8000;0.0700;-0.7457;
950.1000;0.0692;-0.7546;
950.4000;0.0741;-0.7413;
950.7000;0.0716;-0.7435;
951.0000;0.0692;-0.7479;
951.3000;0.0708;-0.7479;
951.6000;0.0716;-0.7413;
951.9000;0.0708;-0.7413;
952.2000;0.0700;-0.7457;
952.5000;0.0708;-0.7457;
952.8000;0.0716;-0.7391;
953.1000;0.0773;-0.7236;
953.4000;0.0659;-0.7546;
953.7000;0.0724;-0.7369;
954.0000;0.0651;-0.7546;
954.3000;0.0667;-0.7501;
954.6000;0.0716;-0.7435;
954.9000;0.0708;-0.7501;
955.2000;0.0708;-0.7568;
955.5000;0.0741;-0.7501;
955.8000;0.0708;-0.7524;
956.1000;0.0692;-0.7634;
956.4000;0.0708;-0.7546;
956.7000;0.0708;-0.7546;
957.0000;0.0733;-0.7501;
957.3000;0.0724;-0.7524;
957.6000;0.0716;-0.7568;
957.9000;0.0724;-0.7546;
958.2000;0.0733;-0.7546;
958.5000;0.0741;-0.7546;
958.8000;0.0708;-0.7524;
959.1000;0.0700;-0.7590;
959.4000;0.0733;-0.7612;
959.7000;0.0716;-0.7612;
960.0000;0.0700;-0.7612;
960.3000;0.0700;-0.7612;
960.6000;0.0716;-0.7590;
960.9000;0.0659;-0.7656;
961.2000;0.0724;-0.7590;
961.5000;0.0700;-0.7634;
961.8000;0.0708;-0.7634;
962.1000;0.0773;-0.7501;
962.4000;0.0611;-0.7900;
962.7000;0.0708;-0.7678;
963.0000;0.0708;-0.7590;
963.3000;0.0724;-0.7634;
963.6000;0.0724;-0.7568;
963.9000;0.0602;-0.7900;
964.2000;0.0708;-0.7656;
964.5000;0.0708;-0.7546;
964.8000;0.0708;-0.7524;
965.1000;0.0708;-0.7457;
965.4000;0.0798;-0.7214;
965.7000;0.0700;-0.7435;
966.0000;0.0733;-0.7302;
966.3000;0.0708;-0.7258;
966.6000;0.0708;-0.7280;
966.9000;0.0708;-0.7324;
967.2000;0.0724;-0.7302;
967.5000;0.0749;-0.7214;
967.8000;0.0757;-0.7192;
968.1000;0.0733;-0.7324;
968.4000;0.0741;-0.7324;
968.7000;0.0651;-0.7546;
969.0000;0.0684;-0.7369;
969.3000;0.0708;-0.7302;
969.6000;0.0692;-0.7302;
969.9000;0.0716;-0.7258;
970.2000;0.0692;-0.7280;
970.5000;0.0684;-0.7369;
970.8000;0.0708;-0.7192;
971.1000;0.0700;-0.7170;
971.4000;0.0765;-0.7103;
971.7000;0.0708;-0.7324;
972.0000;0.0724;-0.7391;
972.3000;0.0757;-0.7280;
972.6000;0.0700;-0.7435;
972.9000;0.0716;-0.7391;
973.2000;0.0676;-0.7524;
973.5000;0.0724;-0.7479;
973.8000;0.0716;-0.7524;
974.1000;0.0733;-0.7391;
974.4000;0.0733;-0.7435;
974.7000;0.0724;-0.7413;
975.0000;0.0692;-0.7524;
975.3000;0.0708;-0.7524;
975.6000;0.0724;-0.7501;
975.9000;0.0716;-0.7501;
976.2000;0.0733;-0.7369;
976.5000;0.0700;-0.7369;
976.8000;0.0635;-0.7546;
977.1000;0.0741;-0.7302;
977.4000;0.0733;-0.7413;
977.7000;0.0708;-0.7413;
978.0000;0.0806;-0.7236;
978.3000;0.0733;-0.7347;
978.6000;0.0724;-0.7324;
978.9000;0.0692;-0.7391;
979.2000;0.0716;-0.7302;
979.5000;0.0708;-0.7435;
979.8000;0.0716;-0.7347;
980.1000;0.0692;-0.7369;
980.4000;0.0765;-0.7280;
980.7000;0.0708;-0.7435;
981.0000;0.0733;-0.7413;
981.3000;0.0700;-0.7457;
981.6000;0.0741;-0.7347;
981.9000;0.0708;-0.7391;
982.2000;0.0741;-0.7324;
982.5000;0.0749;-0.7324;
982.8000;0.0724;-0.7391;
983.1000;0.0733;-0.7324;
983.4000;0.0611;-0.7701;
983.7000;0.0741;-0.7347;
984.0000;0.0700;-0.7391;
984.3000;0.0733;-0.7391;
984.6000;0.0692;-0.7457;
984.9000;0.0692;-0.7479;
985.2000;0.0716;-0.7457;
985.5000;0.0692;-0.7568;
985.8000;0.0708;-0.7524;
986.1000;0.0773;-0.7324;
986.4000;0.0724;-0.7479;
986.7000;0.0716;-0.7501;
987.0000;0.0692;-0.7501;
987.3000;0.0733;-0.7369;
987.6000;0.0781;-0.7280;
987.9000;0.0724;-0.7546;
988.2000;0.0700;-0.7590;
988.5000;0.0700;-0.7479;
988.8000;0.0733;-0.7391;
989.1000;0.0692;-0.7457;
989.4000;0.0733;-0.7302;
989.7000;0.0708;-0.7302;
990.0000;0.0733;-0.7214;
990.3000;0.0716;-0.7214;
990.6000;0.0708;-0.7302;
990.9000;0.0724;-0.7302;
991.2000;0.0724;-0.7236;
991.5000;0.0724;-0.7302;
991.8000;0.0806;-0.7059;
992.1000;0.0724;-0.7324;
992.4000;0.0724;-0.7413;
992.7000;0.0667;-0.7501;
993.0000;0.0773;-0.7280;
993.3000;0.0716;-0.7435;
993.6000;0.0733;-0.7457;
993.9000;0.0724;-0.7524;
994.2000;0.0716;-0.7590;
994.5000;0.0741;-0.7479;
994.8000;0.0806;-0.7280;
995.1000;0.0700;-0.7479;
995.4000;0.0684;-0.7457;
995.7000;0.0700;-0.7479;
996.0000;0.0611;-0.7745;
996.3000;0.0733;-0.7347;
996.6000;0.0741;-0.7280;
996.9000;0.0627;-0.7501;
997.2000;0.0700;-0.7324;
997.5000;0.0781;-0.7192;
997.8000;0.0716;-0.7324;
998.1000;0.0716;-0.7435;
998.4000;0.0716;-0.7457;
998.7000;0.0708;-0.7501;
999.0000;0.0716;-0.7546;
999.3000;0.0643;-0.7701;
999.6000;0.0692;-0.7524;
999.9000;0.0708;-0.7435;
1000.2000;0.0716;-0.7391;
1000.5000;0.0724;-0.7324;
1000.8000;0.0765;-0.7236;
1001.1000;0.0692;-0.7457;
1001.4000;0.0716;-0.7413;
1001.7000;0.0724;-0.7369;
1002.0000;0.0749;-0.7280;
1002.3000;0.0733;-0.7324;
1002.6000;0.0659;-0.7568;
1002.9000;0.0708;-0.7524;
1003.2000;0.0708;-0.7546;
1003.5000;0.0700;-0.7678;
1003.8000;0.0773;-0.7479;
1004.1000;0.0773;-0.7524;
1004.4000;0.0700;-0.7678;
1004.7000;0.0708;-0.7701;
1005.0000;0.0667;-0.7701;
1005.3000;0.0806;-0.7391;
1005.6000;0.0684;-0.7634;
1005.9000;0.0708;-0.7501;
1006.2000;0.0741;-0.7324;
1006.5000;0.0716;-0.7302;
1006.8000;0.0651;-0.7568;
1007.1000;0.0716;-0.7457;
1007.4000;0.0692;-0.7479;
1007.7000;0.0724;-0.7369;
1008.0000;0.0700;-0.7435;
1008.3000;0.0676;-0.7524;
1008.6000;0.0667;-0.7435;
1008.9000;0.0700;-0.7413;
1009.2000;0.0708;-0.7501;
1009.5000;0.0724;-0.7391;
1009.8000;0.0749;-0.7324;
1010.1000;0.0700;-0.7501;
1010.4000;0.0708;-0.7546;
1010.7000;0.0733;-0.7479;
1011.0000;0.0635;-0.7656;
1011.3000;0.0716;-0.7568;
1011.6000;0.0757;-0.7501;
1011.9000;0.0700;-0.7656;
1012.2000;0.0716;-0.7612;
1012.5000;0.0700;-0.7634;
1012.8000;0.0733;-0.7634;
1013.1000;0.0741;-0.7656;
1013.4000;0.0692;-0.7590;
1013.7000;0.0700;-0.7479;
1014.0000;0.0659;-0.7546;
1014.3000;0.0700;-0.7501;
1014.6000;0.0692;-0.7457;
1014.9000;0.0700;-0.7457;
1015.2000;0.0716;-0.7524;
1015.5000;0.0708;-0.7479;
1015.8000;0.0692;-0.7501;
1016.1000;0.0692;-0.7524;
1016.4000;0.0700;-0.7546;
1016.7000;0.0716;-0.7479;
1017.0000;0.0749;-0.7413;
1017.3000;0.0684;-0.7501;
1017.6000;0.0733;-0.7457;
1017.9000;0.0667;-0.7656;
1018.2000;0.0733;-0.7501;
1018.5000;0.0741;-0.7457;
1018.8000;0.0749;-0.7479;
1019.1000;0.0765;-0.7479;
1019.4000;0.0643;-0.7833;
1019.7000;0.0724;-0.7612;
1020.0000;0.0855;-0.7302;
1020.3000;0.0749;-0.7612;
1020.6000;0.0708;-0.7723;
1020.9000;0.0757;-0.7546;
1021.2000;0.0790;-0.7435;
1021.5000;0.0594;-0.7922;
1021.8000;0.0741;-0.7612;
1022.1000;0.0659;-0.7745;
1022.4000;0.0684;-0.7546;
1022.7000;0.0700;-0.7546;
1023.0000;0.0749;-0.7479;
1023.3000;0.0741;-0.7479;
1023.6000;0.0749;-0.7413;
1023.9000;0.0692;-0.7457;
1024.2000;0.0708;-0.7347;
1024.5000;0.0708;-0.7435;
1024.8000;0.0716;-0.7590;
1025.1000;0.0676;-0.7590;
1025.4000;0.0700;-0.7568;
1025.7000;0.0700;-0.7501;
1026.0000;0.0716;-0.7546;
1026.3000;0.0676;-0.7612;
1026.6000;0.0741;-0.7479;
1026.9000;0.0716;-0.7568;
1027.2000;0.0733;-0.7568;
1027.5000;0.0667;-0.7745;
1027.8000;0.0708;-0.7524;
1028.1000;0.0716;-0.7457;
1028.4000;0.0765;-0.7413;
1028.7000;0.0692;-0.7501;
1029.0000;0.0716;-0.7479;
1029.3000;0.0716;-0.7524;
1029.6000;0.0724;-0.7501;
1029.9000;0.0741;-0.7457;
1030.2000;0.0724;-0.7435;
1030.5000;0.0716;-0.7413;
1030.8000;0.0700;-0.7479;
1031.1000;0.0692;-0.7479;
1031.4000;0.0708;-0.7347;
1031.7000;0.0724;-0.7347;
1032.0000;0.0733;-0.7369;
1032.3000;0.0724;-0.7413;
1032.6000;0.0716;-0.7413;
1032.9000;0.0724;-0.7413;
1033.2000;0.0757;-0.7258;
1033.5000;0.0733;-0.7236;
1033.8000;0.0733;-0.7214;
1034.1000;0.0700;-0.7391;
1034.4000;0.0708;-0.7391;
1034.7000;0.0724;-0.7391;
1035.0000;0.0741;-0.7347;
1035.3000;0.0700;-0.7479;
1035.6000;0.0700;-0.7501;
1035.9000;0.0716;-0.7435;
1036.2000;0.0724;-0.7524;
1036.5000;0.0700;-0.7634;
1036.8000;0.0700;-0.7656;
1037.1000;0.0708;-0.7634;
1037.4000;0.0700;-0.7568;
1037.7000;0.0733;-0.7590;
1038.0000;0.0667;-0.7701;
1038.3000;0.0741;-0.7457;
1038.6000;0.0814;-0.7391;
1038.9000;0.0708;-0.7634;
1039.2000;0.0757;-0.7524;
1039.5000;0.0724;-0.7501;
1039.8000;0.0692;-0.7479;
1040.1000;0.0757;-0.7347;
1040.4000;0.0724;-0.7413;
1040.7000;0.0716;-0.7413;
1041.0000;0.0716;-0.7501;
1041.3000;0.0765;-0.7236;
1041.6000;0.0716;-0.7369;
1041.9000;0.0684;-0.7479;
1042.2000;0.0749;-0.7280;
1042.5000;0.0716;-0.7369;
1042.8000;0.0676;-0.7479;
1043.1000;0.0700;-0.7435;
1043.4000;0.0716;-0.7479;
1043.7000;0.0627;-0.7701;
1044.0000;0.0700;-0.7568;
1044.3000;0.0790;-0.7302;
1044.6000;0.0708;-0.7546;
1044.9000;0.0716;-0.7590;
1045.2000;0.0708;-0.7612;
1045.5000;0.0676;-0.7745;
1045.8000;0.0716;-0.7656;
1046.1000;0.0700;-0.7612;
1046.4000;0.0708;-0.7568;
1046.7000;0.0716;-0.7656;
1047.0000;0.0724;-0.7678;
1047.3000;0.0708;-0.7701;
1047.6000;0.0708;-0.7701;
1047.9000;0.0716;-0.7656;
1048.2000;0.0692;-0.7701;
1048.5000;0.0692;-0.7701;
1048.8000;0.0724;-0.7701;
1049.1000;0.0716;-0.7656;
1049.4000;0.0733;-0.7612;
1049.7000;0.0724;-0.7590;
1050.0000;0.0667;-0.7701;
1050.3000;0.0733;-0.7568;
1050.6000;0.0716;-0.7524;
1050.9000;0.0724;-0.7479;
1051.2000;0.0716;-0.7479;
1051.5000;0.0724;-0.7546;
1051.8000;0.0716;-0.7524;
1052.1000;0.0684;-0.7568;
1052.4000;0.0708;-0.7546;
1052.7000;0.0757;-0.7479;
1053.0000;0.0716;-0.7501;
1053.3000;0.0724;-0.7524;
1053.6000;0.0700;-0.7678;
1053.9000;0.0700;-0.7678;
1054.2000;0.0700;-0.7634;
1054.5000;0.0659;-0.7811;
1054.8000;0.0716;-0.7701;
1055.1000;0.0700;-0.7678;
1055.4000;0.0676;-0.7767;
1055.7000;0.0724;-0.7678;
1056.0000;0.0871;-0.7302;
1056.3000;0.0733;-0.7656;
1056.6000;0.0724;-0.7634;
1056.9000;0.0716;-0.7590;
1057.2000;0.0700;-0.7590;
1057.5000;0.0700;-0.7546;
1057.8000;0.0716;-0.7457;
1058.1000;0.0724;-0.7457;
1058.4000;0.0733;-0.7413;
1058.7000;0.0741;-0.7369;
1059.0000;0.0724;-0.7435;
1059.3000;0.0741;-0.7413;
1059.6000;0.0627;-0.7656;
1059.9000;0.0716;-0.7501;
1060.2000;0.0708;-0.7568;
1060.5000;0.0781;-0.7324;
1060.8000;0.0724;-0.7457;
1061.1000;0.0741;-0.7391;
1061.4000;0.0716;-0.7501;
1061.7000;0.0700;-0.7568;
1062.0000;0.0733;-0.7501;
1062.3000;0.0716;-0.7634;
1062.6000;0.0708;-0.7656;
1062.9000;0.0871;-0.7125;
1063.2000;0.0733;-0.7391;
1063.5000;0.0733;-0.7369;
1063.8000;0.0724;-0.7347;
1064.1000;0.0733;-0.7258;
1064.4000;0.0741;-0.7280;
1064.7000;0.0724;-0.7347;
1065.0000;0.0733;-0.7347;
1065.3000;0.0716;-0.7369;
1065.6000;0.0700;-0.7457;
1065.9000;0.0659;-0.7634;
1066.2000;0.0667;-0.7678;
1066.5000;0.0708;-0.7634;
1066.8000;0.0716;-0.7678;
1067.1000;0.0716;-0.7524;
1067.4000;0.0570;-0.7723;
1067.7000;0.0741;-0.7347;
1068.0000;0.0716;-0.7391;
1068.3000;0.0700;-0.7457;
1068.6000;0.0741;-0.7435;
1068.9000;0.0708;-0.7479;
1069.2000;0.0741;-0.7391;
1069.5000;0.0716;-0.7501;
1069.8000;0.0708;-0.7568;
1070.1000;0.0724;-0.7612;
1070.4000;0.0716;-0.7501;
1070.7000;0.0733;-0.7369;
1071.0000;0.0724;-0.7302;
1071.3000;0.0733;-0.7280;
1071.6000;0.0716;-0.7302;
1071.9000;0.0684;-0.7391;
1072.2000;0.0724;-0.7347;
1072.5000;0.0716;-0.7347;
1072.8000;0.0724;-0.7324;
1073.1000;0.0724;-0.7302;
1073.4000;0.0798;-0.7170;
1073.7000;0.0716;-0.7324;
1074.0000;0.0716;-0.7324;
1074.3000;0.0708;-0.7369;
1074.6000;0.0724;-0.7369;
1074.9000;0.0733;-0.7369;
1075.2000;0.0716;-0.7369;
1075.5000;0.0757;-0.7214;
1075.8000;0.0781;-0.7192;
1076.1000;0.0692;-0.7391;
1076.4000;0.0692;-0.7479;
1076.7000;0.0684;-0.7479;
1077.0000;0.0684;-0.7501;
1077.3000;0.0708;-0.7501;
1077.6000;0.0741;-0.7391;
1077.9000;0.0708;-0.7457;
1078.2000;0.0724;-0.7457;
1078.5000;0.0765;-0.7324;
1078.8000;0.0814;-0.7280;
1079.1000;0.0692;-0.7546;
1079.4000;0.0700;-0.7590;
1079.7000;0.0700;-0.7590;
1080.0000;0.0594;-0.7833;
1080.3000;0.0749;-0.7413;
1080.6000;0.0700;-0.7435;
1080.9000;0.0741;-0.7413;
1081.2000;0.0822;-0.7236;
1081.5000;0.0708;-0.7457;
1081.8000;0.0716;-0.7501;
1082.1000;0.0716;-0.7524;
1082.4000;0.0716;-0.7457;
1082.7000;0.0716;-0.7524;
1083.0000;0.0741;-0.7435;
1083.3000;0.0708;-0.7435;
1083.6000;0.0716;-0.7369;
1083.9000;0.0708;-0.7391;
1084.2000;0.0724;-0.7369;
1084.5000;0.0700;-0.7457;
1084.8000;0.0733;-0.7457;
1085.1000;0.0733;-0.7435;
1085.4000;0.0708;-0.7479;
1085.7000;0.0716;-0.7435;
1086.0000;0.0724;-0.7347;
1086.3000;0.0692;-0.7391;
1086.6000;0.0806;-0.7147;
1086.9000;0.0781;-0.7103;
1087.2000;0.0708;-0.7369;
1087.5000;0.0692;-0.7413;
1087.8000;0.0724;-0.7214;
1088.1000;0.0757;-0.7170;
1088.4000;0.0700;-0.7258;
1088.7000;0.0716;-0.7170;
1089.0000;0.0635;-0.7302;
1089.3000;0.0781;-0.7081;
1089.6000;0.0781;-0.7125;
1089.9000;0.0773;-0.7103;
1090.2000;0.0708;-0.7236;
1090.5000;0.0643;-0.7413;
1090.8000;0.0708;-0.7214;
1091.1000;0.0716;-0.7214;
1091.4000;0.0651;-0.7347;
1091.7000;0.0716;-0.7214;
1092.0000;0.0708;-0.7170;
1092.3000;0.0708;-0.7125;
1092.6000;0.0700;-0.7214;
1092.9000;0.0716;-0.7214;
1093.2000;0.0733;-0.7236;
1093.5000;0.0741;-0.7324;
1093.8000;0.0684;-0.7413;
1094.1000;0.0741;-0.7347;
1094.4000;0.0716;-0.7413;
1094.7000;0.0716;-0.7479;
1095.0000;0.0667;-0.7568;
1095.3000;0.0708;-0.7524;
1095.6000;0.0733;-0.7435;
1095.9000;0.0708;-0.7479;
1096.2000;0.0708;-0.7391;
1096.5000;0.0684;-0.7324;
1096.8000;0.0724;-0.7258;
1097.1000;0.0716;-0.7214;
1097.4000;0.0757;-0.7147;
1097.7000;0.0716;-0.7302;
1098.0000;0.0700;-0.7347;
1098.3000;0.0700;-0.7391;
1098.6000;0.0692;-0.7479;
1098.9000;0.0692;-0.7479;
1099.2000;0.0733;-0.7347;
1099.5000;0.0708;-0.7347;
1099.8000;0.0724;-0.7413;
1100.1000;0.0724;-0.7369;
1100.4000;0.0822;-0.7192;
1100.7000;0.0724;-0.7391;
1101.0000;0.0716;-0.7457;
1101.3000;0.0741;-0.7391;
1101.6000;0.0716;-0.7413;
1101.9000;0.0724;-0.7457;
1102.2000;0.0716;-0.7546;
1102.5000;0.0700;-0.7590;
1102.8000;0.0716;-0.7435;
1103.1000;0.0708;-0.7501;
1103.4000;0.0676;-0.7546;
1103.7000;0.0708;-0.7524;
1104.0000;0.0684;-0.7634;
1104.3000;0.0708;-0.7546;
1104.6000;0.0724;-0.7501;
1104.9000;0.0741;-0.7457;
1105.2000;0.0700;-0.7568;
1105.5000;0.0716;-0.7524;
1105.8000;0.0708;-0.7634;
1106.1000;0.0708;-0.7568;
1106.4000;0.0708;-0.7524;
1106.7000;0.0724;-0.7479;
1107.0000;0.0724;-0.7524;
1107.3000;0.0684;-0.7634;
1107.6000;0.0684;-0.7634;
1107.9000;0.0741;-0.7479;
1108.2000;0.0676;-0.7656;
1108.5000;0.0700;-0.7568;
1108.8000;0.0733;-0.7347;
1109.1000;0.0716;-0.7391;
1109.4000;0.0716;-0.7302;
1109.7000;0.0700;-0.7391;
1110.0000;0.0708;-0.7347;
1110.3000;0.0692;-0.7347;
1110.6000;0.0749;-0.7302;
1110.9000;0.0806;-0.7081;
1111.2000;0.0708;-0.7324;
1111.5000;0.0692;-0.7413;
1111.8000;0.0692;-0.7413;
1112.1000;0.0659;-0.7413;
1112.4000;0.0757;-0.7236;
1112.7000;0.0708;-0.7302;
1113.0000;0.0724;-0.7302;
1113.3000;0.0716;-0.7280;
1113.6000;0.0830;-0.7103;
1113.9000;0.0700;-0.7324;
1114.2000;0.0733;-0.7280;
1114.5000;0.0806;-0.7081;
1114.8000;0.0700;-0.7214;
1115.1000;0.0627;-0.7435;
1115.4000;0.0708;-0.7258;
1115.7000;0.0716;-0.7302;
1116.0000;0.0716;-0.7347;
1116.3000;0.0700;-0.7391;
1116.6000;0.0798;-0.7192;
1116.9000;0.0716;-0.7391;
1117.2000;0.0724;-0.7413;
1117.5000;0.0708;-0.7479;
1117.8000;0.0724;-0.7524;
1118.1000;0.0716;-0.7568;
1118.4000;0.0773;-0.7391;
1118.7000;0.0741;-0.7457;
1119.0000;0.0716;-0.7457;
1119.3000;0.0724;-0.7413;
1119.6000;0.0724;-0.7369;
1119.9000;0.0594;-0.7678;
1120.2000;0.0700;-0.7524;
1120.5000;0.0692;-0.7590;
1120.8000;0.0708;-0.7568;
1121.1000;0.0708;-0.7634;
1121.4000;0.0741;-0.7524;
1121.7000;0.0708;-0.7612;
1122.0000;0.0757;-0.7546;
1122.3000;0.0724;-0.7546;
1122.6000;0.0708;-0.7612;
1122.9000;0.0676;-0.7656;
1123.2000;0.0724;-0.7612;
1123.5000;0.0724;-0.7678;
1123.8000;0.0724;-0.7678;
1124.1000;0.0708;-0.7701;
1124.4000;0.0676;-0.7656;
1124.7000;0.0716;-0.7457;
1125.0000;0.0724;-0.7501;
1125.3000;0.0708;-0.7524;
1125.6000;0.0700;-0.7479;
1125.9000;0.0716;-0.7546;
1126.2000;0.0716;-0.7568;
1126.5000;0.0741;-0.7501;
1126.8000;0.0733;-0.7501;
1127.1000;0.0765;-0.7413;
1127.4000;0.0781;-0.7302;
1127.7000;0.0741;-0.7391;
1128.0000;0.0700;-0.7479;
1128.3000;0.0724;-0.7457;
1128.6000;0.0733;-0.7391;
1128.9000;0.0724;-0.7391;
1129.2000;0.0749;-0.7258;
1129.5000;0.0716;-0.7369;
1129.8000;0.0724;-0.7413;
1130.1000;0.0643;-0.7634;
1130.4000;0.0733;-0.7457;
1130.7000;0.0692;-0.7524;
1131.0000;0.0733;-0.7369;
1131.3000;0.0741;-0.7347;
1131.6000;0.0545;-0.7745;
1131.9000;0.0749;-0.7302;
1132.2000;0.0659;-0.7347;
1132.5000;0.0741;-0.7192;
1132.8000;0.0700;-0.7258;
1133.1000;0.0676;-0.7369;
1133.4000;0.0700;-0.7413;
1133.7000;0.0741;-0.7347;
1134.0000;0.0741;-0.7236;
1134.3000;0.0790;-0.7192;
1134.6000;0.0586;-0.7612;
1134.9000;0.0602;-0.7612;
1135.2000;0.0692;-0.7479;
1135.5000;0.0643;-0.7546;
1135.8000;0.0741;-0.7236;
1136.1000;0.0627;-0.7501;
1136.4000;0.0765;-0.7125;
1136.7000;0.0676;-0.7435;
1137.0000;0.0790;-0.7258;
1137.3000;0.0741;-0.7435;
1137.6000;0.0830;-0.7236;
1137.9000;0.0643;-0.7678;
1138.2000;0.0724;-0.7501;
1138.5000;0.0708;-0.7656;
1138.8000;0.0692;-0.7634;
1139.1000;0.0700;-0.7612;
1139.4000;0.0716;-0.7590;
1139.7000;0.0724;-0.7590;
1140.0000;0.0692;-0.7568;
1140.3000;0.0716;-0.7524;
1140.6000;0.0708;-0.7524;
1140.9000;0.0684;-0.7612;
1141.2000;0.0733;-0.7501;
1141.5000;0.0716;-0.7479;
1141.8000;0.0741;-0.7524;
1142.1000;0.0684;-0.7590;
1142.4000;0.0716;-0.7546;
1142.7000;0.0700;-0.7634;
1143.0000;0.0724;-0.7612;
1143.3000;0.0741;-0.7546;
1143.6000;0.0733;-0.7479;
1143.9000;0.0741;-0.7501;
1144.2000;0.0708;-0.7546;
1144.5000;0.0733;-0.7501;
1144.8000;0.0724;-0.7479;
1145.1000;0.0700;-0.7501;
1145.4000;0.0635;-0.7656;
1145.7000;0.0724;-0.7524;
1146.0000;0.0651;-0.7656;
1146.3000;0.0733;-0.7546;
1146.6000;0.0692;-0.7568;
1146.9000;0.0700;-0.7546;
1147.2000;0.0700;-0.7568;
1147.5000;0.0724;-0.7546;
1147.8000;0.0814;-0.7302;
1148.1000;0.0708;-0.7546;
1148.4000;0.0716;-0.7501;
1148.7000;0.0716;-0.7524;
1149.0000;0.0741;-0.7435;
1149.3000;0.0724;-0.7435;
1149.6000;0.0700;-0.7413;
1149.9000;0.0676;-0.7457;
1150.2000;0.0692;-0.7391;
1150.5000;0.0684;-0.7501;
1150.8000;0.0700;-0.7435;
1151.1000;0.0716;-0.7369;
1151.4000;0.0708;-0.7391;
1151.7000;0.0733;-0.7347;
1152.0000;0.0700;-0.7479;
1152.3000;0.0716;-0.7413;
1152.6000;0.0700;-0.7435;
1152.9000;0.0733;-0.7302;
1153.2000;0.0659;-0.7413;
1153.5000;0.0700;-0.7413;
1153.8000;0.0724;-0.7413;
1154.1000;0.0667;-0.7457;
1154.4000;0.0716;-0.7347;
1154.7000;0.0733;-0.7214;
1155.0000;0.0676;-0.7413;
1155.3000;0.0724;-0.7369;
1155.6000;0.0724;-0.7302;
1155.9000;0.0798;-0.6992;
1156.2000;0.0724;-0.7258;
1156.5000;0.0716;-0.7280;
1156.8000;0.0798;-0.7192;
1157.1000;0.0692;-0.7369;
1157.4000;0.0733;-0.7103;
1157.7000;0.0741;-0.7147;
1158.0000;0.0724;-0.7192;
1158.3000;0.0700;-0.7369;
1158.6000;0.0708;-0.7391;
1158.9000;0.0708;-0.7324;
1159.2000;0.0724;-0.7280;
1159.5000;0.0716;-0.7280;
1159.8000;0.0708;-0.7302;
1160.1000;0.0716;-0.7280;
1160.4000;0.0716;-0.7280;
1160.7000;0.0700;-0.7369;
1161.0000;0.0822;-0.7059;
1161.3000;0.0684;-0.7324;
1161.6000;0.0684;-0.7347;
1161.9000;0.0716;-0.7280;
1162.2000;0.0708;-0.7280;
1162.5000;0.0700;-0.7280;
1162.8000;0.0724;-0.7258;
1163.1000;0.0716;-0.7280;
1163.4000;0.0700;-0.7302;
1163.7000;0.0708;-0.7347;
1164.0000;0.0724;-0.7347;
1164.3000;0.0733;-0.7280;
1164.6000;0.0708;-0.7302;
1164.9000;0.0724;-0.7280;
1165.2000;0.0716;-0.7324;
1165.5000;0.0716;-0.7302;
1165.8000;0.0716;-0.7369;
1166.1000;0.0692;-0.7457;
1166.4000;0.0708;-0.7347;
1166.7000;0.0733;-0.7280;
1167.0000;0.0684;-0.7302;
1167.3000;0.0773;-0.7125;
1167.6000;0.0716;-0.7236;
1167.9000;0.0749;-0.7192;
1168.2000;0.0733;-0.7214;
1168.5000;0.0708;-0.7147;
1168.8000;0.0708;-0.7170;
1169.1000;0.0708;-0.7214;
1169.4000;0.0643;-0.7391;
1169.7000;0.0700;-0.7324;
1170.0000;0.0708;-0.7236;
1170.3000;0.0733;-0.7302;
1170.6000;0.0724;-0.7324;
1170.9000;0.0716;-0.7369;
1171.2000;0.0708;-0.7369;
1171.5000;0.0692;-0.7413;
1171.8000;0.0733;-0.7435;
1172.1000;0.0700;-0.7501;
1172.4000;0.0724;-0.7324;
1172.7000;0.0741;-0.7214;
1173.0000;0.0724;-0.7214;
1173.3000;0.0749;-0.7302;
1173.6000;0.0724;-0.7413;
1173.9000;0.0708;-0.7457;
1174.2000;0.0724;-0.7501;
1174.5000;0.0741;-0.7457;
1174.8000;0.0716;-0.7391;
1175.1000;0.0757;-0.7214;
1175.4000;0.0708;-0.7369;
1175.7000;0.0708;-0.7280;
1176.0000;0.0684;-0.7391;
1176.3000;0.0724;-0.7324;
1176.6000;0.0692;-0.7391;
1176.9000;0.0741;-0.7125;
1177.2000;0.0749;-0.7125;
1177.5000;0.0659;-0.7413;
1177.8000;0.0749;-0.7170;
1178.1000;0.0733;-0.7170;
1178.4000;0.0773;-0.7059;
1178.7000;0.0708;-0.7302;
1179.0000;0.0716;-0.7324;
1179.3000;0.0708;-0.7369;
1179.6000;0.0716;-0.7324;
1179.9000;0.0700;-0.7347;
1180.2000;0.0700;-0.7347;
1180.5000;0.0741;-0.7324;
1180.8000;0.0733;-0.7280;
1181.1000;0.0708;-0.7214;
1181.4000;0.0724;-0.7302;
1181.7000;0.0733;-0.7236;
1182.0000;0.0716;-0.7280;
1182.3000;0.0724;-0.7258;
1182.6000;0.0798;-0.7103;
1182.9000;0.0684;-0.7457;
1183.2000;0.0733;-0.7258;
1183.5000;0.0741;-0.7170;
1183.8000;0.0708;-0.7147;
1184.1000;0.0716;-0.7103;
1184.4000;0.0700;-0.7103;
1184.7000;0.0708;-0.7147;
1185.0000;0.0651;-0.7369;
1185.3000;0.0765;-0.7170;
1185.6000;0.0741;-0.7214;
1185.9000;0.0716;-0.7324;
1186.2000;0.0676;-0.7479;
1186.5000;0.0692;-0.7391;
1186.8000;0.0724;-0.7324;
1187.1000;0.0708;-0.7347;
1187.4000;0.0708;-0.7413;
1187.7000;0.0700;-0.7524;
1188.0000;0.0716;-0.7568;
1188.3000;0.0708;-0.7501;
1188.6000;0.0733;-0.7347;
1188.9000;0.0700;-0.7479;
1189.2000;0.0716;-0.7435;
1189.5000;0.0724;-0.7457;
1189.8000;0.0716;-0.7435;
1190.1000;0.0716;-0.7413;
1190.4000;0.0716;-0.7391;
1190.7000;0.0733;-0.7302;
1191.0000;0.0741;-0.7214;
1191.3000;0.0790;-0.7125;
1191.6000;0.0708;-0.7457;
1191.9000;0.0724;-0.7413;
1192.2000;0.0700;-0.7413;
1192.5000;0.0781;-0.7147;
1192.8000;0.0724;-0.7324;
1193.1000;0.0716;-0.7302;
1193.4000;0.0741;-0.7280;
1193.7000;0.0724;-0.7280;
1194.0000;0.0716;-0.7236;
1194.3000;0.0716;-0.7214;
1194.6000;0.0733;-0.7236;
1194.9000;0.0700;-0.7302;
1195.2000;0.0692;-0.7391;
1195.5000;0.0749;-0.7103;
1195.8000;0.0724;-0.7214;
1196.1000;0.0724;-0.7214;
1196.4000;0.0700;-0.7258;
1196.7000;0.0708;-0.7258;
1197.0000;0.0757;-0.7103;
1197.3000;0.0708;-0.7170;
1197.6000;0.0700;-0.7192;
1197.9000;0.0684;-0.7192;
1198.2000;0.0733;-0.7147;
1198.5000;0.0708;-0.7170;
1198.8000;0.0716;-0.7280;
1199.1000;0.0724;-0.7324;
1199.4000;0.0741;-0.7324;
1199.7000;0.0733;-0.7413;
1200.0000;0.0716;-0.7501;
1200.3000;0.0700;-0.7457;
1200.6000;0.0700;-0.7479;
1200.9000;0.0676;-0.7524;
1201.2000;0.0708;-0.7457;
1201.5000;0.0708;-0.7457;
1201.8000;0.0716;-0.7435;
1202.1000;0.0757;-0.7302;
1202.4000;0.0716;-0.7369;
1202.7000;0.0700;-0.7302;
1203.0000;0.0716;-0.7324;
1203.3000;0.0757;-0.7236;
1203.6000;0.0692;-0.7280;
1203.9000;0.0724;-0.7170;
1204.2000;0.0749;-0.7081;
1204.5000;0.0749;-0.6992;
1204.8000;0.0700;-0.7125;
1205.1000;0.0716;-0.7103;
1205.4000;0.0733;-0.6992;
1205.7000;0.0651;-0.7147;
1206.0000;0.0724;-0.7037;
1206.3000;0.0692;-0.7170;
1206.6000;0.0692;-0.7192;
1206.9000;0.0716;-0.7103;
1207.2000;0.0692;-0.7236;
1207.5000;0.0733;-0.7103;
1207.8000;0.0716;-0.7059;
1208.1000;0.0741;-0.7015;
1208.4000;0.0700;-0.7125;
1208.7000;0.0733;-0.7037;
1209.0000;0.0676;-0.7214;
1209.3000;0.0716;-0.7125;
1209.6000;0.0749;-0.7103;
1209.9000;0.0716;-0.7125;
1210.2000;0.0847;-0.6793;
1210.5000;0.0855;-0.6793;
1210.8000;0.0684;-0.7236;
1211.1000;0.0757;-0.7170;
1211.4000;0.0741;-0.7302;
1211.7000;0.0724;-0.7302;
1212.0000;0.0724;-0.7369;
1212.3000;0.0733;-0.7280;
1212.6000;0.0749;-0.7258;
1212.9000;0.0716;-0.7236;
1213.2000;0.0716;-0.7236;
1213.5000;0.0716;-0.7258;
1213.8000;0.0667;-0.7413;
1214.1000;0.0700;-0.7369;
1214.4000;0.0741;-0.7324;
1214.7000;0.0692;-0.7479;
1215.0000;0.0806;-0.7147;
1215.3000;0.0741;-0.7192;
1215.6000;0.0700;-0.7302;
1215.9000;0.0700;-0.7302;
1216.2000;0.0708;-0.7236;
1216.5000;0.0708;-0.7280;
1216.8000;0.0724;-0.7369;
1217.1000;0.0741;-0.7302;
1217.4000;0.0716;-0.7347;
1217.7000;0.0733;-0.7347;
1218.0000;0.0708;-0.7391;
1218.3000;0.0643;-0.7501;
1218.6000;0.0708;-0.7347;
1218.9000;0.0716;-0.7347;
1219.2000;0.0716;-0.7302;
1219.5000;0.0676;-0.7457;
1219.8000;0.0724;-0.7391;
1220.1000;0.0716;-0.7457;
1220.4000;0.0716;-0.7479;
1220.7000;0.0716;-0.7457;
1221.0000;0.0700;-0.7524;
1221.3000;0.0716;-0.7479;
1221.6000;0.0700;-0.7457;
1221.9000;0.0692;-0.7524;
1222.2000;0.0724;-0.7546;
1222.5000;0.0708;-0.7501;
1222.8000;0.0716;-0.7479;
1223.1000;0.0716;-0.7479;
1223.4000;0.0708;-0.7391;
1223.7000;0.0741;-0.7280;
1224.0000;0.0692;-0.7347;
1224.3000;0.0716;-0.7369;
1224.6000;0.0724;-0.7369;
1224.9000;0.0724;-0.7391;
1225.2000;0.0716;-0.7413;
1225.5000;0.0741;-0.7258;
1225.8000;0.0716;-0.7324;
1226.1000;0.0651;-0.7501;
1226.4000;0.0741;-0.7192;
1226.7000;0.0716;-0.7258;
1227.0000;0.0716;-0.7280;
1227.3000;0.0724;-0.7324;
1227.6000;0.0724;-0.7369;
1227.9000;0.0667;-0.7568;
1228.2000;0.0724;-0.7435;
1228.5000;0.0692;-0.7524;
1228.8000;0.0724;-0.7457;
1229.1000;0.0757;-0.7413;
1229.4000;0.0716;-0.7457;
1229.7000;0.0798;-0.7258;
1230.0000;0.0733;-0.7302;
1230.3000;0.0733;-0.7302;
1230.6000;0.0724;-0.7280;
1230.9000;0.0716;-0.7324;
1231.2000;0.0708;-0.7369;
1231.5000;0.0692;-0.7413;
1231.8000;0.0643;-0.7435;
1232.1000;0.0676;-0.7524;
1232.4000;0.0700;-0.7501;
1232.7000;0.0863;-0.7081;
1233.0000;0.0692;-0.7590;
1233.3000;0.0692;-0.7590;
1233.6000;0.0716;-0.7524;
1233.9000;0.0708;-0.7524;
1234.2000;0.0700;-0.7524;
1234.5000;0.0708;-0.7634;
1234.8000;0.0790;-0.7435;
1235.1000;0.0700;-0.7723;
1235.4000;0.0733;-0.7612;
1235.7000;0.0692;-0.7634;
1236.0000;0.0798;-0.7324;
1236.3000;0.0733;-0.7369;
1236.6000;0.0733;-0.7302;
1236.9000;0.0716;-0.7369;
1237.2000;0.0708;-0.7391;
1237.5000;0.0749;-0.7280;
1237.8000;0.0684;-0.7479;
1238.1000;0.0684;-0.7568;
1238.4000;0.0700;-0.7479;
1238.7000;0.0700;-0.7501;
1239.0000;0.0708;-0.7435;
1239.3000;0.0700;-0.7479;
1239.6000;0.0708;-0.7457;
1239.9000;0.0716;-0.7479;
1240.2000;0.0741;-0.7457;
1240.5000;0.0716;-0.7501;
1240.8000;0.0700;-0.7546;
1241.1000;0.0692;-0.7524;
1241.4000;0.0692;-0.7524;
1241.7000;0.0733;-0.7435;
1242.0000;0.0708;-0.7524;
1242.3000;0.0757;-0.7524;
1242.6000;0.0724;-0.7524;
1242.9000;0.0716;-0.7435;
1243.2000;0.0733;-0.7435;
1243.5000;0.0733;-0.7413;
1243.8000;0.0749;-0.7347;
1244.1000;0.0749;-0.7302;
1244.4000;0.0619;-0.7590;
1244.7000;0.0716;-0.7280;
1245.0000;0.0708;-0.7236;
1245.3000;0.0676;-0.7302;
1245.6000;0.0798;-0.6948;
1245.9000;0.0708;-0.7125;
1246.2000;0.0692;-0.7170;
1246.5000;0.0700;-0.7236;
1246.8000;0.0724;-0.7192;
1247.1000;0.0716;-0.7236;
1247.4000;0.0643;-0.7501;
1247.7000;0.0716;-0.7413;
1248.0000;0.0692;-0.7435;
1248.3000;0.0684;-0.7435;
1248.6000;0.0692;-0.7413;
1248.9000;0.0749;-0.7302;
1249.2000;0.0708;-0.7369;
1249.5000;0.0733;-0.7324;
1249.8000;0.0749;-0.7147;
1250.1000;0.0749;-0.7081;
1250.4000;0.0749;-0.7081;
1250.7000;0.0716;-0.7236;
1251.0000;0.0781;-0.7059;
1251.3000;0.0692;-0.7280;
1251.6000;0.0708;-0.7280;
1251.9000;0.0733;-0.7147;
1252.2000;0.0749;-0.7103;
1252.5000;0.0659;-0.7324;
1252.8000;0.0733;-0.7214;
1253.1000;0.0757;-0.7103;
1253.4000;0.0733;-0.7236;
1253.7000;0.0724;-0.7280;
1254.0000;0.0716;-0.7258;
1254.3000;0.0741;-0.7214;
1254.6000;0.0749;-0.7258;
1254.9000;0.0708;-0.7347;
1255.2000;0.0676;-0.7413;
1255.5000;0.0684;-0.7347;
1255.8000;0.0708;-0.7302;
1256.1000;0.0708;-0.7324;
1256.4000;0.0651;-0.7457;
1256.7000;0.0708;-0.7413;
1257.0000;0.0765;-0.7369;
1257.3000;0.0708;-0.7524;
1257.6000;0.0700;-0.7435;
1257.9000;0.0741;-0.7369;
1258.2000;0.0716;-0.7479;
1258.5000;0.0692;-0.7524;
1258.8000;0.0700;-0.7501;
1259.1000;0.0708;-0.7413;
1259.4000;0.0716;-0.7413;
1259.7000;0.0700;-0.7435;
1260.0000;0.0643;-0.7612;
1260.3000;0.0716;-0.7347;
1260.6000;0.0716;-0.7369;
1260.9000;0.0749;-0.7324;
1261.2000;0.0733;-0.7347;
1261.5000;0.0716;-0.7369;
1261.8000;0.0733;-0.7324;
1262.1000;0.0684;-0.7369;
1262.4000;0.0708;-0.7302;
1262.7000;0.0635;-0.7435;
1263.0000;0.0692;-0.7280;
1263.3000;0.0724;-0.7302;
1263.6000;0.0716;-0.7347;
1263.9000;0.0741;-0.7413;
1264.2000;0.0716;-0.7479;
1264.5000;0.0798;-0.7324;
1264.8000;0.0716;-0.7435;
1265.1000;0.0700;-0.7457;
1265.4000;0.0708;-0.7413;
1265.7000;0.0741;-0.7258;
1266.0000;0.0716;-0.7214;
1266.3000;0.0667;-0.7369;
1266.6000;0.0733;-0.7236;
1266.9000;0.0724;-0.7258;
1267.2000;0.0733;-0.7347;
1267.5000;0.0724;-0.7347;
1267.8000;0.0684;-0.7369;
1268.1000;0.0733;-0.7236;
1268.4000;0.0611;-0.7546;
1268.7000;0.0643;-0.7501;
1269.0000;0.0716;-0.7391;
1269.3000;0.0700;-0.7391;
1269.6000;0.0790;-0.7192;
1269.9000;0.0708;-0.7280;
1270.2000;0.0676;-0.7391;
1270.5000;0.0708;-0.7324;
1270.8000;0.0692;-0.7302;
1271.1000;0.0692;-0.7347;
1271.4000;0.0741;-0.7236;
1271.7000;0.0667;-0.7391;
1272.0000;0.0708;-0.7258;
1272.3000;0.0765;-0.7214;
1272.6000;0.0716;-0.7324;
1272.9000;0.0708;-0.7347;
1273.2000;0.0700;-0.7347;
1273.5000;0.0708;-0.7347;
1273.8000;0.0724;-0.7280;
1274.1000;0.0724;-0.7369;
1274.4000;0.0724;-0.7369;
1274.7000;0.0724;-0.7435;
1275.0000;0.0733;-0.7369;
1275.3000;0.0700;-0.7391;
1275.6000;0.0700;-0.7391;
1275.9000;0.0724;-0.7302;
1276.2000;0.0716;-0.7369;
1276.5000;0.0708;-0.7413;
1276.8000;0.0716;-0.7457;
1277.1000;0.0659;-0.7524;
1277.4000;0.0724;-0.7369;
1277.7000;0.0733;-0.7347;
1278.0000;0.0733;-0.7170;
1278.3000;0.0749;-0.7125;
1278.6000;0.0708;-0.7324;
1278.9000;0.0700;-0.7347;
1279.2000;0.0708;-0.7369;
1279.5000;0.0708;-0.7435;
1279.8000;0.0733;-0.7280;
1280.1000;0.0700;-0.7391;
1280.4000;0.0733;-0.7369;
1280.7000;0.0749;-0.7324;
1281.0000;0.0700;-0.7413;
1281.3000;0.0667;-0.7546;
1281.6000;0.0708;-0.7457;
1281.9000;0.0692;-0.7479;
1282.2000;0.0838;-0.7059;
1282.5000;0.0700;-0.7347;
1282.8000;0.0708;-0.7280;
1283.1000;0.0708;-0.7258;
1283.4000;0.0667;-0.7347;
1283.7000;0.0724;-0.7280;
1284.0000;0.0855;-0.7059;
1284.3000;0.0684;-0.7413;
1284.6000;0.0716;-0.7302;
1284.9000;0.0773;-0.7170;
1285.2000;0.0692;-0.7324;
1285.5000;0.0700;-0.7347;
1285.8000;0.0708;-0.7391;
1286.1000;0.0741;-0.7413;
1286.4000;0.0700;-0.7524;
1286.7000;0.0700;-0.7501;
1287.0000;0.0724;-0.7479;
1287.3000;0.0781;-0.7391;
1287.6000;0.0708;-0.7568;
1287.9000;0.0676;-0.7634;
1288.2000;0.0733;-0.7457;
1288.5000;0.0716;-0.7413;
1288.8000;0.0741;-0.7435;
1289.1000;0.0724;-0.7391;
1289.4000;0.0700;-0.7435;
1289.7000;0.0724;-0.7369;
1290.0000;0.0716;-0.7369;
1290.3000;0.0700;-0.7457;
1290.6000;0.0741;-0.7369;
1290.9000;0.0692;-0.7457;
1291.2000;0.0635;-0.7524;
1291.5000;0.0643;-0.7501;
1291.8000;0.0684;-0.7435;
1292.1000;0.0700;-0.7413;
1292.4000;0.0741;-0.7280;
1292.7000;0.0733;-0.7302;
1293.0000;0.0708;-0.7413;
1293.3000;0.0692;-0.7479;
1293.6000;0.0733;-0.7457;
1293.9000;0.0716;-0.7501;
1294.2000;0.0708;-0.7612;
1294.5000;0.0700;-0.7612;
1294.8000;0.0716;-0.7634;
1295.1000;0.0716;-0.7678;
1295.4000;0.0716;-0.7568;
1295.7000;0.0700;-0.7546;
1296.0000;0.0708;-0.7501;
1296.3000;0.0724;-0.7501;
1296.6000;0.0724;-0.7501;
1296.9000;0.0716;-0.7568;
1297.2000;0.0700;-0.7524;
1297.5000;0.0749;-0.7457;
1297.8000;0.0724;-0.7501;
1298.1000;0.0781;-0.7413;
1298.4000;0.0716;-0.7612;
1298.7000;0.0733;-0.7501;
1299.0000;0.0733;-0.7524;
1299.3000;0.0798;-0.7236;
1299.6000;0.0700;-0.7457;
1299.9000;0.0733;-0.7369;
1300.2000;0.0724;-0.7347;
1300.5000;0.0724;-0.7369;
1300.8000;0.0700;-0.7435;
1301.1000;0.0724;-0.7391;
1301.4000;0.0716;-0.7391;
1301.7000;0.0733;-0.7391;
1302.0000;0.0716;-0.7435;
1302.3000;0.0708;-0.7391;
1302.6000;0.0757;-0.7280;
1302.9000;0.0716;-0.7501;
1303.2000;0.0716;-0.7590;
1303.5000;0.0724;-0.7612;
1303.8000;0.0798;-0.7501;
1304.1000;0.0700;-0.7723;
1304.4000;0.0684;-0.7678;
1304.7000;0.0708;-0.7612;
1305.0000;0.0733;-0.7501;
1305.3000;0.0724;-0.7656;
1305.6000;0.0716;-0.7656;
1305.9000;0.0716;-0.7701;
1306.2000;0.0920;-0.7192;
1306.5000;0.0700;-0.7590;
1306.8000;0.0708;-0.7568;
1307.1000;0.0724;-0.7435;
1307.4000;0.0798;-0.7347;
1307.7000;0.0708;-0.7568;
1308.0000;0.0716;-0.7479;
1308.3000;0.0716;-0.7457;
1308.6000;0.0716;-0.7501;
1308.9000;0.0733;-0.7391;
1309.2000;0.0724;-0.7457;
1309.5000;0.0708;-0.7435;
1309.8000;0.0724;-0.7435;
1310.1000;0.0708;-0.7479;
1310.4000;0.0700;-0.7435;
1310.7000;0.0724;-0.7413;
1311.0000;0.0676;-0.7524;
1311.3000;0.0749;-0.7413;
1311.6000;0.0724;-0.7479;
1311.9000;0.0700;-0.7546;
1312.2000;0.0724;-0.7479;
1312.5000;0.0684;-0.7413;
1312.8000;0.0716;-0.7347;
1313.1000;0.0708;-0.7369;
1313.4000;0.0733;-0.7347;
1313.7000;0.0684;-0.7413;
1314.0000;0.0708;-0.7302;
1314.3000;0.0708;-0.7347;
1314.6000;0.0684;-0.7457;
1314.9000;0.0716;-0.7391;
1315.2000;0.0676;-0.7391;
1315.5000;0.0724;-0.7214;
1315.8000;0.0692;-0.7302;
1316.1000;0.0700;-0.7347;
1316.4000;0.0724;-0.7369;
1316.7000;0.0716;-0.7435;
1317.0000;0.0716;-0.7457;
1317.3000;0.0708;-0.7524;
1317.6000;0.0724;-0.7479;
1317.9000;0.0716;-0.7413;
1318.2000;0.0708;-0.7457;
1318.5000;0.0700;-0.7546;
1318.8000;0.0741;-0.7457;
1319.1000;0.0733;-0.7324;
1319.4000;0.0708;-0.7324;
1319.7000;0.0724;-0.7347;
1320.0000;0.0716;-0.7324;
1320.3000;0.0741;-0.7170;
1320.6000;0.0765;-0.7214;
1320.9000;0.0716;-0.7347;
1321.2000;0.0724;-0.7413;
1321.5000;0.0716;-0.7501;
1321.8000;0.0724;-0.7546;
1322.1000;0.0757;-0.7501;
1322.4000;0.0708;-0.7656;
1322.7000;0.0708;-0.7568;
1323.0000;0.0733;-0.7524;
1323.3000;0.0700;-0.7546;
1323.6000;0.0781;-0.7347;
1323.9000;0.0733;-0.7457;
1324.2000;0.0790;-0.7347;
1324.5000;0.0765;-0.7479;
1324.8000;0.0716;-0.7656;
1325.1000;0.0570;-0.7966;
1325.4000;0.0700;-0.7656;
1325.7000;0.0741;-0.7634;
1326.0000;0.0806;-0.7457;
1326.3000;0.0716;-0.7656;
1326.6000;0.0773;-0.7435;
1326.9000;0.0708;-0.7479;
1327.2000;0.0724;-0.7479;
1327.5000;0.0749;-0.7435;
1327.8000;0.0700;-0.7479;
1328.1000;0.0716;-0.7479;
1328.4000;0.0716;-0.7501;
1328.7000;0.0724;-0.7347;
1329.0000;0.0724;-0.7324;
1329.3000;0.0790;-0.7125;
1329.6000;0.0733;-0.7280;
1329.9000;0.0724;-0.7236;
1330.2000;0.0676;-0.7324;
1330.5000;0.0700;-0.7324;
1330.8000;0.0708;-0.7324;
1331.1000;0.0692;-0.7302;
1331.4000;0.0643;-0.7391;
1331.7000;0.0716;-0.7280;
1332.0000;0.0716;-0.7258;
1332.3000;0.0724;-0.7324;
1332.6000;0.0716;-0.7347;
1332.9000;0.0700;-0.7369;
1333.2000;0.0716;-0.7302;
1333.5000;0.0708;-0.7280;
1333.8000;0.0667;-0.7369;
1334.1000;0.0733;-0.7192;
1334.4000;0.0733;-0.7192;
1334.7000;0.0716;-0.7258;
1335.0000;0.0716;-0.7258;
1335.3000;0.0692;-0.7324;
1335.6000;0.0724;-0.7236;
1335.9000;0.0708;-0.7192;
1336.2000;0.0692;-0.7214;
1336.5000;0.0716;-0.7081;
1336.8000;0.0700;-0.7125;
1337.1000;0.0716;-0.7170;
1337.4000;0.0724;-0.7280;
1337.7000;0.0708;-0.7347;
1338.0000;0.0741;-0.7236;
1338.3000;0.0749;-0.7236;
1338.6000;0.0708;-0.7391;
1338.9000;0.0700;-0.7457;
1339.2000;0.0781;-0.7258;
1339.5000;0.0724;-0.7280;
1339.8000;0.0708;-0.7369;
1340.1000;0.0684;-0.7391;
1340.4000;0.0716;-0.7413;
1340.7000;0.0708;-0.7479;
1341.0000;0.0708;-0.7369;
1341.3000;0.0773;-0.7214;
1341.6000;0.0724;-0.7347;
1341.9000;0.0724;-0.7258;
1342.2000;0.0684;-0.7280;
1342.5000;0.0692;-0.7302;
1342.8000;0.0716;-0.7280;
1343.1000;0.0611;-0.7634;
1343.4000;0.0700;-0.7524;
1343.7000;0.0716;-0.7501;
1344.0000;0.0830;-0.7103;
1344.3000;0.0692;-0.7369;
1344.6000;0.0716;-0.7258;
1344.9000;0.0619;-0.7501;
1345.2000;0.0716;-0.7236;
1345.5000;0.0684;-0.7347;
1345.8000;0.0676;-0.7347;
1346.1000;0.0700;-0.7302;
1346.4000;0.0692;-0.7347;
1346.7000;0.0716;-0.7280;
1347.0000;0.0806;-0.7081;
1347.3000;0.0667;-0.7369;
1347.6000;0.0627;-0.7501;
1347.9000;0.0692;-0.7391;
1348.2000;0.0814;-0.7103;
1348.5000;0.0716;-0.7391;
1348.8000;0.0700;-0.7302;
1349.1000;0.0741;-0.7258;
1349.4000;0.0676;-0.7347;
1349.7000;0.0635;-0.7369;
1350.0000;0.0716;-0.7170;
1350.3000;0.0708;-0.7147;
1350.6000;0.0708;-0.7170;
1350.9000;0.0708;-0.7170;
1351.2000;0.0708;-0.7192;
1351.5000;0.0724;-0.7192;
1351.8000;0.0700;-0.7324;
1352.1000;0.0708;-0.7302;
1352.4000;0.0700;-0.7369;
1352.7000;0.0708;-0.7347;
1353.0000;0.0716;-0.7347;
1353.3000;0.0700;-0.7435;
1353.6000;0.0724;-0.7391;
1353.9000;0.0708;-0.7347;
1354.2000;0.0692;-0.7280;
1354.5000;0.0700;-0.7280;
1354.8000;0.0716;-0.7258;
1355.1000;0.0724;-0.7302;
1355.4000;0.0708;-0.7280;
1355.7000;0.0724;-0.7236;
1356.0000;0.0781;-0.7081;
1356.3000;0.0716;-0.7369;
1356.6000;0.0692;-0.7413;
1356.9000;0.0700;-0.7324;
1357.2000;0.0700;-0.7347;
1357.5000;0.0733;-0.7258;
1357.8000;0.0700;-0.7324;
1358.1000;0.0708;-0.7280;
1358.4000;0.0700;-0.7302;
1358.7000;0.0708;-0.7258;
1359.0000;0.0611;-0.7501;
1359.3000;0.0733;-0.7214;
1359.6000;0.0700;-0.7324;
1359.9000;0.0724;-0.7302;
1360.2000;0.0700;-0.7280;
1360.5000;0.0700;-0.7369;
1360.8000;0.0790;-0.7125;
1361.1000;0.0765;-0.7280;
1361.4000;0.0700;-0.7413;
1361.7000;0.0716;-0.7391;
1362.0000;0.0684;-0.7479;
1362.3000;0.0741;-0.7347;
1362.6000;0.0684;-0.7546;
1362.9000;0.0724;-0.7413;
1363.2000;0.0741;-0.7391;
1363.5000;0.0684;-0.7524;
1363.8000;0.0781;-0.7214;
1364.1000;0.0757;-0.7258;
1364.4000;0.0692;-0.7347;
1364.7000;0.0749;-0.7214;
1365.0000;0.0741;-0.7302;
1365.3000;0.0716;-0.7457;
1365.6000;0.0667;-0.7678;
1365.9000;0.0733;-0.7524;
1366.2000;0.0692;-0.7634;
1366.5000;0.0700;-0.7678;
1366.8000;0.0700;-0.7678;
1367.1000;0.0643;-0.7767;
1367.4000;0.0667;-0.7634;
1367.7000;0.0741;-0.7479;
1368.0000;0.0724;-0.7413;
1368.3000;0.0692;-0.7457;
1368.6000;0.0733;-0.7258;
1368.9000;0.0724;-0.7258;
1369.2000;0.0733;-0.7147;
1369.5000;0.0716;-0.7103;
1369.8000;0.0708;-0.7125;
1370.1000;0.0700;-0.7125;
1370.4000;0.0700;-0.7103;
1370.7000;0.0716;-0.7103;
1371.0000;0.0724;-0.6992;
1371.3000;0.0724;-0.6992;
1371.6000;0.0716;-0.6992;
1371.9000;0.0692;-0.7037;
1372.2000;0.0733;-0.6904;
1372.5000;0.0749;-0.6992;
1372.8000;0.0716;-0.7147;
1373.1000;0.0708;-0.7236;
1373.4000;0.0716;-0.7280;
1373.7000;0.0806;-0.6970;
1374.0000;0.0708;-0.7214;
1374.3000;0.0781;-0.7125;
1374.6000;0.0716;-0.7236;
1374.9000;0.0716;-0.7302;
1375.2000;0.0676;-0.7347;
1375.5000;0.0724;-0.7170;
1375.8000;0.0716;-0.7192;
1376.1000;0.0708;-0.7236;
1376.4000;0.0724;-0.7302;
1376.7000;0.0757;-0.7280;
1377.0000;0.0716;-0.7347;
1377.3000;0.0716;-0.7369;
1377.6000;0.0684;-0.7479;
1377.9000;0.0741;-0.7302;
1378.2000;0.0692;-0.7501;
1378.5000;0.0724;-0.7435;
1378.8000;0.0724;-0.7413;
1379.1000;0.0724;-0.7413;
1379.4000;0.0724;-0.7280;
1379.7000;0.0708;-0.7324;
1380.0000;0.0684;-0.7457;
1380.3000;0.0700;-0.7369;
1380.6000;0.0684;-0.7479;
1380.9000;0.0716;-0.7413;
1381.2000;0.0708;-0.7435;
1381.5000;0.0724;-0.7347;
1381.8000;0.0724;-0.7479;
1382.1000;0.0708;-0.7501;
1382.4000;0.0700;-0.7413;
1382.7000;0.0733;-0.7302;
1383.0000;0.0700;-0.7280;
1383.3000;0.0741;-0.7081;
1383.6000;0.0692;-0.7192;
1383.9000;0.0692;-0.7236;
1384.2000;0.0855;-0.6860;
1384.5000;0.0708;-0.7280;
1384.8000;0.0700;-0.7258;
1385.1000;0.0765;-0.7125;
1385.4000;0.0798;-0.7059;
1385.7000;0.0700;-0.7280;
1386.0000;0.0676;-0.7258;
1386.3000;0.0855;-0.6904;
1386.6000;0.0724;-0.7214;
1386.9000;0.0733;-0.7170;
1387.2000;0.0716;-0.7192;
1387.5000;0.0733;-0.7147;
1387.8000;0.0733;-0.7147;
1388.1000;0.0724;-0.7125;
1388.4000;0.0733;-0.7147;
1388.7000;0.0724;-0.7147;
1389.0000;0.0733;-0.7103;
1389.3000;0.0708;-0.7103;
1389.6000;0.0798;-0.6948;
1389.9000;0.0716;-0.7236;
1390.2000;0.0700;-0.7258;
1390.5000;0.0724;-0.7302;
1390.8000;0.0700;-0.7413;
1391.1000;0.0749;-0.7236;
1391.4000;0.0716;-0.7369;
1391.7000;0.0700;-0.7413;
1392.0000;0.0659;-0.7568;
1392.3000;0.0708;-0.7546;
1392.6000;0.0716;-0.7568;
1392.9000;0.0724;-0.7546;
1393.2000;0.0733;-0.7457;
1393.5000;0.0700;-0.7457;
1393.8000;0.0700;-0.7457;
1394.1000;0.0724;-0.7347;
1394.4000;0.0708;-0.7435;
1394.7000;0.0708;-0.7457;
1395.0000;0.0692;-0.7501;
1395.3000;0.0724;-0.7524;
1395.6000;0.0724;-0.7612;
1395.9000;0.0700;-0.7612;
1396.2000;0.0716;-0.7612;
1396.5000;0.0716;-0.7568;
1396.8000;0.0724;-0.7435;
1397.1000;0.0708;-0.7435;
1397.4000;0.0700;-0.7457;
1397.7000;0.0708;-0.7391;
1398.0000;0.0716;-0.7302;
1398.3000;0.0684;-0.7324;
1398.6000;0.0708;-0.7280;
1398.9000;0.0716;-0.7324;
1399.2000;0.0708;-0.7369;
1399.5000;0.0716;-0.7324;
1399.8000;0.0716;-0.7324;
