time/ms;Fluo/V;P700 deltaI/I x10³;
-199.8000;0.0741;-0.8187;
-199.5000;0.0757;-0.8276;
-199.2000;0.0781;-0.8187;
-198.9000;0.0822;-0.8055;
-198.6000;0.0724;-0.8276;
-198.3000;0.0773;-0.8187;
-198.0000;0.0684;-0.8497;
-197.7000;0.0781;-0.8143;
-197.4000;0.0781;-0.8165;
-197.1000;0.0781;-0.8099;
-196.8000;0.0798;-0.8099;
-196.5000;0.0724;-0.8232;
-196.2000;0.0765;-0.8165;
-195.9000;0.0627;-0.8497;
-195.6000;0.0855;-0.8010;
-195.3000;0.0757;-0.8210;
-195.0000;0.0781;-0.8143;
-194.7000;0.0781;-0.8143;
-194.4000;0.0749;-0.8276;
-194.1000;0.0594;-0.8674;
-193.8000;0.0765;-0.8232;
-193.5000;0.0773;-0.8210;
-193.2000;0.0781;-0.8187;
-192.9000;0.0757;-0.8187;
-192.6000;0.0765;-0.8210;
-192.3000;0.0757;-0.8232;
-192.0000;0.0773;-0.8165;
-191.7000;0.0716;-0.8298;
-191.4000;0.0733;-0.8210;
-191.1000;0.0781;-0.8143;
-190.8000;0.0822;-0.8099;
-190.5000;0.0773;-0.8143;
-190.2000;0.0773;-0.8033;
-189.9000;0.0773;-0.8055;
-189.6000;0.0773;-0.8165;
-189.3000;0.0757;-0.8254;
-189.0000;0.0716;-0.8453;
-188.7000;0.0749;-0.8320;
-188.4000;0.0806;-0.8210;
-188.1000;0.0749;-0.8320;
-187.8000;0.0928;-0.7922;
-187.5000;0.0773;-0.8364;
-187.2000;0.0643;-0.8674;
-186.9000;0.0781;-0.8364;
-186.6000;0.0781;-0.8387;
-186.3000;0.0781;-0.8409;
-186.0000;0.0708;-0.8608;
-185.7000;0.0749;-0.8431;
-185.4000;0.0733;-0.8453;
-185.1000;0.0798;-0.8320;
-184.8000;0.0765;-0.8364;
-184.5000;0.0806;-0.8254;
-184.2000;0.0741;-0.8431;
-183.9000;0.0765;-0.8342;
-183.6000;0.0765;-0.8298;
-183.3000;0.0798;-0.8276;
-183.0000;0.0749;-0.8453;
-182.7000;0.0798;-0.8320;
-182.4000;0.0692;-0.8564;
-182.1000;0.0781;-0.8453;
-181.8000;0.0781;-0.8431;
-181.5000;0.0773;-0.8453;
-181.2000;0.0838;-0.8187;
-180.9000;0.0781;-0.8320;
-180.6000;0.0757;-0.8453;
-180.3000;0.0773;-0.8453;
-180.0000;0.0765;-0.8387;
-179.7000;0.0757;-0.8342;
-179.4000;0.0781;-0.8276;
-179.1000;0.0733;-0.8320;
-178.8000;0.0765;-0.8210;
-178.5000;0.0757;-0.8232;
-178.2000;0.0830;-0.8121;
-177.9000;0.0765;-0.8298;
-177.6000;0.0790;-0.8254;
-177.3000;0.0790;-0.8232;
-177.0000;0.0790;-0.8276;
-176.7000;0.0814;-0.8143;
-176.4000;0.0773;-0.8298;
-176.1000;0.0773;-0.8276;
-175.8000;0.0781;-0.8232;
-175.5000;0.0790;-0.8165;
-175.2000;0.0765;-0.8187;
-174.9000;0.0651;-0.8453;
-174.6000;0.0765;-0.8187;
-174.3000;0.0765;-0.8143;
-174.0000;0.0749;-0.8165;
-173.7000;0.0773;-0.8077;
-173.4000;0.0806;-0.8077;
-173.1000;0.0757;-0.8232;
-172.8000;0.0773;-0.8187;
-172.5000;0.0741;-0.8187;
-172.2000;0.0781;-0.8055;
-171.9000;0.0773;-0.8121;
-171.6000;0.0822;-0.7966;
-171.3000;0.0651;-0.8409;
-171.0000;0.0773;-0.8033;
-170.7000;0.0781;-0.8165;
-170.4000;0.0806;-0.8121;
-170.1000;0.0765;-0.8254;
-169.8000;0.0765;-0.8210;
-169.5000;0.0773;-0.8143;
-169.2000;0.0781;-0.8033;
-168.9000;0.0790;-0.8010;
-168.6000;0.0781;-0.7855;
-168.3000;0.0765;-0.7855;
-168.0000;0.0830;-0.7811;
-167.7000;0.0765;-0.8055;
-167.4000;0.0798;-0.8010;
-167.1000;0.0765;-0.8099;
-166.8000;0.0757;-0.8077;
-166.5000;0.0741;-0.8099;
-166.2000;0.0757;-0.8010;
-165.9000;0.0781;-0.7878;
-165.6000;0.0781;-0.7855;
-165.3000;0.0765;-0.7922;
-165.0000;0.0863;-0.7678;
-164.7000;0.0586;-0.8431;
-164.4000;0.0798;-0.7922;
-164.1000;0.0765;-0.8010;
-163.8000;0.0773;-0.8055;
-163.5000;0.0798;-0.7944;
-163.2000;0.0879;-0.7745;
-162.9000;0.0773;-0.7944;
-162.6000;0.0749;-0.7966;
-162.3000;0.0765;-0.7966;
-162.0000;0.0765;-0.7922;
-161.7000;0.0741;-0.7966;
-161.4000;0.0724;-0.8055;
-161.1000;0.0781;-0.7922;
-160.8000;0.0749;-0.7966;
-160.5000;0.0790;-0.7988;
-160.2000;0.0724;-0.8121;
-159.9000;0.0773;-0.8077;
-159.6000;0.0838;-0.7944;
-159.3000;0.0790;-0.8033;
-159.0000;0.0749;-0.8143;
-158.7000;0.0765;-0.8055;
-158.4000;0.0757;-0.8010;
-158.1000;0.0798;-0.7922;
-157.8000;0.0765;-0.7966;
-157.5000;0.0700;-0.8143;
-157.2000;0.0830;-0.7878;
-156.9000;0.0765;-0.8077;
-156.6000;0.0765;-0.8121;
-156.3000;0.0757;-0.8099;
-156.0000;0.0765;-0.8077;
-155.7000;0.0798;-0.7988;
-155.4000;0.0814;-0.7944;
-155.1000;0.0781;-0.7988;
-154.8000;0.0781;-0.8010;
-154.5000;0.0749;-0.8033;
-154.2000;0.0757;-0.8033;
-153.9000;0.0790;-0.8010;
-153.6000;0.0773;-0.8010;
-153.3000;0.0765;-0.7988;
-153.0000;0.0773;-0.7900;
-152.7000;0.0887;-0.7501;
-152.4000;0.0757;-0.7811;
-152.1000;0.0781;-0.7789;
-151.8000;0.0806;-0.7678;
-151.5000;0.0757;-0.7811;
-151.2000;0.0765;-0.7900;
-150.9000;0.0749;-0.7988;
-150.6000;0.0749;-0.7966;
-150.3000;0.0773;-0.7966;
-150.0000;0.0765;-0.7966;
-149.7000;0.0773;-0.7988;
-149.4000;0.0757;-0.8033;
-149.1000;0.0765;-0.7988;
-148.8000;0.0781;-0.7966;
-148.5000;0.0741;-0.8010;
-148.2000;0.0806;-0.7811;
-147.9000;0.0651;-0.8210;
-147.6000;0.0798;-0.7833;
-147.3000;0.0684;-0.8099;
-147.0000;0.0781;-0.7900;
-146.7000;0.0749;-0.7944;
-146.4000;0.0790;-0.7900;
-146.1000;0.0773;-0.7944;
-145.8000;0.0781;-0.7922;
-145.5000;0.0781;-0.7944;
-145.2000;0.0749;-0.7922;
-144.9000;0.0765;-0.7900;
-144.6000;0.0700;-0.8099;
-144.3000;0.0765;-0.7966;
-144.0000;0.0773;-0.7988;
-143.7000;0.0741;-0.8077;
-143.4000;0.0773;-0.7966;
-143.1000;0.0684;-0.8165;
-142.8000;0.0749;-0.8055;
-142.5000;0.0814;-0.7855;
-142.2000;0.0749;-0.7988;
-141.9000;0.0765;-0.8033;
-141.6000;0.0757;-0.8077;
-141.3000;0.0757;-0.8077;
-141.0000;0.0773;-0.8121;
-140.7000;0.0773;-0.8077;
-140.4000;0.0749;-0.8099;
-140.1000;0.0773;-0.7988;
-139.8000;0.0749;-0.8099;
-139.5000;0.0757;-0.8099;
-139.2000;0.0773;-0.8033;
-138.9000;0.0781;-0.7966;
-138.6000;0.0765;-0.8033;
-138.3000;0.0773;-0.8010;
-138.0000;0.0773;-0.7966;
-137.7000;0.0773;-0.7966;
-137.4000;0.0773;-0.7922;
-137.1000;0.0757;-0.7900;
-136.8000;0.0757;-0.7767;
-136.5000;0.0749;-0.7767;
-136.2000;0.0692;-0.7878;
-135.9000;0.0757;-0.7745;
-135.6000;0.0773;-0.7811;
-135.3000;0.0765;-0.7833;
-135.0000;0.0765;-0.7900;
-134.7000;0.0741;-0.7988;
-134.4000;0.0749;-0.7966;
-134.1000;0.0741;-0.7966;
-133.8000;0.0741;-0.7944;
-133.5000;0.0741;-0.7944;
-133.2000;0.0749;-0.7922;
-132.9000;0.0773;-0.7900;
-132.6000;0.0757;-0.7988;
-132.3000;0.0765;-0.7922;
-132.0000;0.0765;-0.8010;
-131.7000;0.0749;-0.8055;
-131.4000;0.0773;-0.8010;
-131.1000;0.0798;-0.7922;
-130.8000;0.0741;-0.8033;
-130.5000;0.0765;-0.7900;
-130.2000;0.0765;-0.7789;
-129.9000;0.0765;-0.7855;
-129.6000;0.0741;-0.7900;
-129.3000;0.0765;-0.7789;
-129.0000;0.0757;-0.7966;
-128.7000;0.0798;-0.8055;
-128.4000;0.0781;-0.8010;
-128.1000;0.0798;-0.7944;
-127.8000;0.0790;-0.7966;
-127.5000;0.0790;-0.7966;
-127.2000;0.0773;-0.7922;
-126.9000;0.0757;-0.7966;
-126.6000;0.0757;-0.7922;
-126.3000;0.0773;-0.7922;
-126.0000;0.0757;-0.7833;
-125.7000;0.0757;-0.7855;
-125.4000;0.0749;-0.7855;
-125.1000;0.0733;-0.7878;
-124.8000;0.0757;-0.7833;
-124.5000;0.0757;-0.7811;
-124.2000;0.0741;-0.7922;
-123.9000;0.0773;-0.7789;
-123.6000;0.0790;-0.7723;
-123.3000;0.0806;-0.7678;
-123.0000;0.0757;-0.7745;
-122.7000;0.0757;-0.7745;
-122.4000;0.0798;-0.7590;
-122.1000;0.0749;-0.7656;
-121.8000;0.0724;-0.7745;
-121.5000;0.0765;-0.7678;
-121.2000;0.0749;-0.7723;
-120.9000;0.0765;-0.7723;
-120.6000;0.0741;-0.7833;
-120.3000;0.0684;-0.7966;
-120.0000;0.0773;-0.7701;
-119.7000;0.0773;-0.7745;
-119.4000;0.0716;-0.7833;
-119.1000;0.0741;-0.7855;
-118.8000;0.0781;-0.7789;
-118.5000;0.0765;-0.7833;
-118.2000;0.0765;-0.7855;
-117.9000;0.0773;-0.7878;
-117.6000;0.0773;-0.7855;
-117.3000;0.0659;-0.8121;
-117.0000;0.0757;-0.7833;
-116.7000;0.0773;-0.7811;
-116.4000;0.0757;-0.7789;
-116.1000;0.0765;-0.7767;
-115.8000;0.0765;-0.7811;
-115.5000;0.0757;-0.7855;
-115.2000;0.0790;-0.7811;
-114.9000;0.0773;-0.7767;
-114.6000;0.0773;-0.7745;
-114.3000;0.0798;-0.7656;
-114.0000;0.0765;-0.7701;
-113.7000;0.0790;-0.7767;
-113.4000;0.0773;-0.7833;
-113.1000;0.0765;-0.7811;
-112.8000;0.0773;-0.7723;
-112.5000;0.0773;-0.7701;
-112.2000;0.0822;-0.7612;
-111.9000;0.0765;-0.7723;
-111.6000;0.0708;-0.7900;
-111.3000;0.0757;-0.7789;
-111.0000;0.0757;-0.7855;
-110.7000;0.0749;-0.7878;
-110.4000;0.0790;-0.7701;
-110.1000;0.0773;-0.7767;
-109.8000;0.0773;-0.7833;
-109.5000;0.0757;-0.7855;
-109.2000;0.0724;-0.7922;
-108.9000;0.0765;-0.7878;
-108.6000;0.0781;-0.7855;
-108.3000;0.0798;-0.7855;
-108.0000;0.0749;-0.7855;
-107.7000;0.0651;-0.8033;
-107.4000;0.0781;-0.7767;
-107.1000;0.0765;-0.7745;
-106.8000;0.0757;-0.7701;
-106.5000;0.0757;-0.7701;
-106.2000;0.0822;-0.7590;
-105.9000;0.0830;-0.7656;
-105.6000;0.0757;-0.7767;
-105.3000;0.0741;-0.7789;
-105.0000;0.0765;-0.7723;
-104.7000;0.0781;-0.7678;
-104.4000;0.0773;-0.7723;
-104.1000;0.0830;-0.7546;
-103.8000;0.0781;-0.7701;
-103.5000;0.0814;-0.7612;
-103.2000;0.0757;-0.7701;
-102.9000;0.0765;-0.7745;
-102.6000;0.0790;-0.7745;
-102.3000;0.0757;-0.7723;
-102.0000;0.0757;-0.7789;
-101.7000;0.0733;-0.7767;
-101.4000;0.0781;-0.7767;
-101.1000;0.0830;-0.7723;
-100.8000;0.0757;-0.7789;
-100.5000;0.0781;-0.7723;
-100.2000;0.0741;-0.7878;
-99.9000;0.0757;-0.7855;
-99.6000;0.0773;-0.7789;
-99.3000;0.0757;-0.7811;
-99.0000;0.0773;-0.7811;
-98.7000;0.0765;-0.7900;
-98.4000;0.0765;-0.7944;
-98.1000;0.0765;-0.7944;
-97.8000;0.0773;-0.7900;
-97.5000;0.0773;-0.7878;
-97.2000;0.0749;-0.7855;
-96.9000;0.0765;-0.7900;
-96.6000;0.0773;-0.7900;
-96.3000;0.0838;-0.7656;
-96.0000;0.0692;-0.8099;
-95.7000;0.0757;-0.7833;
-95.4000;0.0765;-0.7767;
-95.1000;0.0822;-0.7656;
-94.8000;0.0773;-0.7855;
-94.5000;0.0733;-0.7988;
-94.2000;0.0863;-0.7723;
-93.9000;0.0757;-0.8010;
-93.6000;0.0773;-0.8033;
-93.3000;0.0773;-0.8055;
-93.0000;0.0781;-0.8099;
-92.7000;0.0733;-0.8143;
-92.4000;0.0765;-0.8055;
-92.1000;0.0806;-0.7944;
-91.8000;0.0765;-0.7966;
-91.5000;0.0757;-0.7988;
-91.2000;0.0773;-0.7878;
-90.9000;0.0765;-0.7922;
-90.6000;0.0757;-0.7878;
-90.3000;0.0724;-0.7966;
-90.0000;0.0757;-0.7811;
-89.7000;0.0773;-0.7811;
-89.4000;0.0724;-0.7988;
-89.1000;0.0765;-0.7922;
-88.8000;0.0765;-0.7988;
-88.5000;0.0806;-0.7833;
-88.2000;0.0765;-0.7900;
-87.9000;0.0757;-0.7900;
-87.6000;0.0733;-0.7966;
-87.3000;0.0790;-0.7855;
-87.0000;0.0773;-0.7922;
-86.7000;0.0773;-0.7855;
-86.4000;0.0684;-0.8010;
-86.1000;0.0749;-0.7900;
-85.8000;0.0757;-0.7833;
-85.5000;0.0749;-0.7855;
-85.2000;0.0781;-0.7833;
-84.9000;0.0773;-0.7789;
-84.6000;0.0773;-0.7789;
-84.3000;0.0773;-0.7833;
-84.0000;0.0765;-0.7944;
-83.7000;0.0773;-0.8033;
-83.4000;0.0757;-0.7988;
-83.1000;0.0790;-0.7833;
-82.8000;0.0773;-0.7833;
-82.5000;0.0716;-0.8010;
-82.2000;0.0806;-0.7767;
-81.9000;0.0749;-0.7922;
-81.6000;0.0765;-0.7855;
-81.3000;0.0757;-0.7811;
-81.0000;0.0838;-0.7590;
-80.7000;0.0790;-0.7745;
-80.4000;0.0773;-0.7789;
-80.1000;0.0643;-0.8210;
-79.8000;0.0757;-0.7900;
-79.5000;0.0757;-0.7833;
-79.2000;0.0765;-0.7811;
-78.9000;0.0838;-0.7767;
-78.6000;0.0790;-0.7944;
-78.3000;0.0757;-0.7988;
-78.0000;0.0773;-0.7900;
-77.7000;0.0773;-0.8010;
-77.4000;0.0790;-0.8077;
-77.1000;0.0781;-0.8033;
-76.8000;0.0790;-0.8077;
-76.5000;0.0773;-0.8055;
-76.2000;0.0757;-0.8055;
-75.9000;0.0773;-0.8033;
-75.6000;0.0790;-0.7988;
-75.3000;0.0741;-0.8121;
-75.0000;0.0765;-0.8077;
-74.7000;0.0798;-0.7966;
-74.4000;0.0692;-0.8210;
-74.1000;0.0781;-0.8010;
-73.8000;0.0757;-0.8010;
-73.5000;0.0773;-0.7855;
-73.2000;0.0741;-0.7855;
-72.9000;0.0765;-0.7789;
-72.6000;0.0765;-0.7878;
-72.3000;0.0765;-0.7922;
-72.0000;0.0692;-0.8187;
-71.7000;0.0790;-0.7966;
-71.4000;0.0773;-0.7878;
-71.1000;0.0692;-0.7988;
-70.8000;0.0757;-0.7900;
-70.5000;0.0757;-0.7944;
-70.2000;0.0765;-0.7944;
-69.9000;0.0765;-0.7900;
-69.6000;0.0773;-0.7855;
-69.3000;0.0749;-0.7900;
-69.0000;0.0765;-0.7833;
-68.7000;0.0838;-0.7634;
-68.4000;0.0773;-0.7855;
-68.1000;0.0790;-0.7789;
-67.8000;0.0781;-0.7855;
-67.5000;0.0757;-0.7900;
-67.2000;0.0757;-0.7833;
-66.9000;0.0773;-0.7767;
-66.6000;0.0773;-0.7811;
-66.3000;0.0757;-0.7878;
-66.0000;0.0765;-0.7855;
-65.7000;0.0773;-0.7811;
-65.4000;0.0716;-0.7988;
-65.1000;0.0781;-0.7944;
-64.8000;0.0863;-0.7789;
-64.5000;0.0773;-0.7900;
-64.2000;0.0814;-0.7745;
-63.9000;0.0781;-0.7855;
-63.6000;0.0757;-0.7944;
-63.3000;0.0757;-0.7900;
-63.0000;0.0773;-0.7922;
-62.7000;0.0765;-0.7878;
-62.4000;0.0708;-0.8143;
-62.1000;0.0765;-0.7988;
-61.8000;0.0781;-0.8055;
-61.5000;0.0773;-0.8077;
-61.2000;0.0790;-0.8010;
-60.9000;0.0757;-0.8033;
-60.6000;0.0781;-0.7922;
-60.3000;0.0741;-0.8033;
-60.0000;0.0773;-0.7922;
-59.7000;0.0757;-0.7988;
-59.4000;0.0806;-0.7833;
-59.1000;0.0790;-0.7878;
-58.8000;0.0765;-0.7988;
-58.5000;0.0765;-0.7966;
-58.2000;0.0798;-0.7922;
-57.9000;0.0781;-0.7878;
-57.6000;0.0806;-0.7878;
-57.3000;0.0773;-0.7922;
-57.0000;0.0920;-0.7568;
-56.7000;0.0806;-0.7789;
-56.4000;0.0838;-0.7767;
-56.1000;0.0863;-0.7745;
-55.8000;0.0790;-0.7922;
-55.5000;0.0773;-0.7966;
-55.2000;0.0822;-0.7944;
-54.9000;0.0667;-0.8342;
-54.6000;0.0773;-0.8055;
-54.3000;0.0773;-0.8033;
-54.0000;0.0765;-0.7988;
-53.7000;0.0765;-0.8010;
-53.4000;0.0765;-0.7922;
-53.1000;0.0773;-0.7811;
-52.8000;0.0781;-0.7723;
-52.5000;0.0790;-0.7745;
-52.2000;0.0741;-0.7966;
-51.9000;0.0773;-0.7833;
-51.6000;0.0879;-0.7590;
-51.3000;0.0749;-0.7855;
-51.0000;0.0765;-0.7833;
-50.7000;0.0814;-0.7767;
-50.4000;0.0749;-0.7922;
-50.1000;0.0757;-0.7988;
-49.8000;0.0741;-0.8055;
-49.5000;0.0684;-0.8298;
-49.2000;0.0659;-0.8298;
-48.9000;0.0773;-0.7988;
-48.6000;0.0749;-0.8077;
-48.3000;0.0749;-0.8033;
-48.0000;0.0684;-0.8165;
-47.7000;0.0765;-0.8055;
-47.4000;0.0773;-0.8010;
-47.1000;0.0790;-0.7988;
-46.8000;0.0765;-0.8055;
-46.5000;0.0773;-0.8010;
-46.2000;0.0749;-0.7988;
-45.9000;0.0749;-0.8033;
-45.6000;0.0765;-0.7966;
-45.3000;0.0822;-0.7811;
-45.0000;0.0781;-0.7767;
-44.7000;0.0700;-0.7988;
-44.4000;0.0773;-0.7811;
-44.1000;0.0798;-0.7855;
-43.8000;0.0773;-0.7966;
-43.5000;0.0749;-0.7966;
-43.2000;0.0773;-0.7944;
-42.9000;0.0741;-0.8010;
-42.6000;0.0871;-0.7745;
-42.3000;0.0773;-0.7966;
-42.0000;0.0757;-0.8033;
-41.7000;0.0790;-0.7922;
-41.4000;0.0790;-0.7966;
-41.1000;0.0757;-0.7988;
-40.8000;0.0757;-0.8055;
-40.5000;0.0765;-0.8077;
-40.2000;0.0765;-0.7988;
-39.9000;0.0749;-0.8033;
-39.6000;0.0773;-0.7988;
-39.3000;0.0757;-0.8055;
-39.0000;0.0790;-0.7966;
-38.7000;0.0822;-0.7944;
-38.4000;0.0708;-0.8232;
-38.1000;0.0741;-0.8143;
-37.8000;0.0773;-0.7988;
-37.5000;0.0781;-0.8010;
-37.2000;0.0749;-0.8099;
-36.9000;0.0781;-0.7922;
-36.6000;0.0716;-0.8099;
-36.3000;0.0765;-0.7966;
-36.0000;0.0773;-0.7944;
-35.7000;0.0733;-0.7988;
-35.4000;0.0757;-0.7966;
-35.1000;0.0781;-0.7900;
-34.8000;0.0700;-0.8143;
-34.5000;0.0781;-0.8010;
-34.2000;0.0887;-0.7745;
-33.9000;0.0765;-0.8121;
-33.6000;0.0798;-0.8055;
-33.3000;0.0822;-0.8077;
-33.0000;0.0781;-0.8099;
-32.7000;0.0749;-0.8099;
-32.4000;0.0757;-0.8077;
-32.1000;0.0928;-0.7634;
-31.8000;0.0749;-0.8033;
-31.5000;0.0765;-0.8077;
-31.2000;0.0667;-0.8254;
-30.9000;0.0790;-0.8033;
-30.6000;0.0773;-0.8033;
-30.3000;0.0781;-0.7988;
-30.0000;0.0765;-0.7944;
-29.7000;0.0798;-0.7878;
-29.4000;0.0798;-0.7878;
-29.1000;0.0733;-0.8077;
-28.8000;0.0822;-0.7922;
-28.5000;0.0773;-0.8077;
-28.2000;0.0781;-0.8121;
-27.9000;0.0757;-0.8165;
-27.6000;0.0806;-0.8033;
-27.3000;0.0790;-0.8055;
-27.0000;0.0773;-0.8077;
-26.7000;0.0855;-0.7900;
-26.4000;0.0830;-0.7900;
-26.1000;0.0765;-0.8033;
-25.8000;0.0757;-0.8099;
-25.5000;0.0708;-0.8254;
-25.2000;0.0741;-0.8187;
-24.9000;0.0765;-0.8143;
-24.6000;0.0676;-0.8342;
-24.3000;0.0741;-0.8077;
-24.0000;0.0749;-0.8055;
-23.7000;0.0798;-0.7988;
-23.4000;0.0838;-0.7855;
-23.1000;0.0684;-0.8276;
-22.8000;0.0806;-0.8010;
-22.5000;0.0749;-0.8121;
-22.2000;0.0773;-0.8055;
-21.9000;0.0749;-0.8099;
-21.6000;0.0749;-0.8121;
-21.3000;0.0765;-0.8077;
-21.0000;0.0757;-0.8143;
-20.7000;0.0773;-0.8121;
-20.4000;0.0749;-0.8232;
-20.1000;0.0733;-0.8298;
-19.8000;0.0765;-0.8210;
-19.5000;0.0765;-0.8077;
-19.2000;0.0765;-0.8033;
-18.9000;0.0733;-0.8055;
-18.6000;0.0765;-0.8033;
-18.3000;0.0920;-0.7701;
-18.0000;0.0781;-0.8055;
-17.7000;0.0773;-0.8033;
-17.4000;0.0708;-0.8165;
-17.1000;0.0749;-0.8033;
-16.8000;0.0773;-0.7966;
-16.5000;0.0757;-0.7966;
-16.2000;0.0790;-0.7811;
-15.9000;0.0765;-0.7811;
-15.6000;0.0765;-0.7811;
-15.3000;0.0749;-0.7966;
-15.0000;0.0765;-0.7922;
-14.7000;0.0781;-0.7944;
-14.4000;0.0765;-0.7900;
-14.1000;0.0773;-0.7900;
-13.8000;0.0773;-0.7789;
-13.5000;0.0798;-0.7701;
-13.2000;0.0790;-0.7745;
-12.9000;0.0781;-0.7789;
-12.6000;0.0757;-0.7944;
-12.3000;0.0830;-0.7833;
-12.0000;0.0765;-0.7900;
-11.7000;0.0749;-0.7944;
-11.4000;0.0757;-0.7900;
-11.1000;0.0773;-0.7855;
-10.8000;0.0741;-0.7900;
-10.5000;0.0773;-0.7944;
-10.2000;0.0806;-0.7811;
-9.9000;0.0724;-0.8077;
-9.6000;0.0822;-0.7855;
-9.3000;0.0757;-0.8033;
-9.0000;0.0749;-0.8055;
-8.7000;0.0798;-0.7922;
-8.4000;0.0806;-0.7878;
-8.1000;0.0871;-0.7656;
-7.8000;0.0749;-0.7922;
-7.5000;0.0765;-0.8010;
-7.2000;0.0765;-0.8077;
-6.9000;0.0765;-0.8121;
-6.6000;0.0741;-0.8143;
-6.3000;0.0733;-0.8187;
-6.0000;0.0781;-0.8055;
-5.7000;0.0781;-0.8010;
-5.4000;0.0773;-0.7944;
-5.1000;0.0749;-0.8010;
-4.8000;0.0749;-0.8055;
-4.5000;0.0724;-0.8077;
-4.2000;0.0765;-0.7966;
-3.9000;0.0765;-0.8010;
-3.6000;0.0733;-0.8121;
-3.3000;0.0741;-0.8077;
-3.0000;0.0757;-0.7988;
-2.7000;0.0773;-0.8010;
-2.4000;0.0757;-0.8033;
-2.1000;0.0757;-0.8010;
-1.8000;0.0781;-0.7922;
-1.5000;0.0757;-0.7944;
-1.2000;0.0765;-0.8010;
-0.9000;0.0773;-0.8010;
-0.6000;0.0765;-0.7900;
-0.3000;0.0781;-0.7833;
0.0000;0.0781;-0.7833;
0.3000;0.0757;-0.7878;
0.6000;0.0863;-0.7524;
0.9000;0.0798;-0.7678;
1.2000;0.0781;-0.7701;
1.5000;0.0822;-0.7612;
1.8000;0.0838;-0.7501;
2.1000;0.0838;-0.7479;
2.4000;0.0830;-0.7501;
2.7000;0.0855;-0.7435;
3.0000;0.0855;-0.7280;
3.3000;0.0863;-0.7192;
3.6000;0.0822;-0.7214;
3.9000;0.0847;-0.7147;
4.2000;0.0830;-0.7170;
4.5000;0.0798;-0.7170;
4.8000;0.0871;-0.6948;
5.1000;0.0863;-0.6904;
5.4000;0.0855;-0.6882;
5.7000;0.0855;-0.6860;
6.0000;0.0838;-0.6815;
6.3000;0.0863;-0.6860;
6.6000;0.0871;-0.6926;
6.9000;0.0855;-0.6882;
7.2000;0.0871;-0.6771;
7.5000;0.0830;-0.6815;
7.8000;0.0871;-0.6683;
8.1000;0.0847;-0.6771;
8.4000;0.0871;-0.6793;
8.7000;0.0863;-0.6771;
9.0000;0.0863;-0.6838;
9.3000;0.0855;-0.6948;
9.6000;0.0838;-0.6948;
9.9000;0.0863;-0.6882;
10.2000;0.0847;-0.6970;
10.5000;0.0871;-0.6926;
10.8000;0.0871;-0.6749;
11.1000;0.0871;-0.6771;
11.4000;0.0781;-0.6882;
11.7000;0.0887;-0.6528;
12.0000;0.0895;-0.6506;
12.3000;0.0855;-0.6683;
12.6000;0.0879;-0.6683;
12.9000;0.0863;-0.6793;
13.2000;0.0855;-0.6771;
13.5000;0.0928;-0.6705;
13.8000;0.0855;-0.6904;
14.1000;0.0855;-0.6793;
14.4000;0.0814;-0.6860;
14.7000;0.0863;-0.6793;
15.0000;0.0871;-0.6815;
15.3000;0.0912;-0.6616;
15.6000;0.0871;-0.6771;
15.9000;0.0855;-0.6838;
16.2000;0.0838;-0.6904;
16.5000;0.0847;-0.6926;
16.8000;0.0822;-0.6992;
17.1000;0.0871;-0.6793;
17.4000;0.0879;-0.6793;
17.7000;0.0879;-0.6771;
18.0000;0.0871;-0.6793;
18.3000;0.0887;-0.6815;
18.6000;0.0863;-0.6838;
18.9000;0.0863;-0.6860;
19.2000;0.0863;-0.6904;
19.5000;0.0879;-0.6838;
19.8000;0.0822;-0.7015;
20.1000;0.0855;-0.6882;
20.4000;0.0863;-0.6860;
20.7000;0.0838;-0.6882;
21.0000;0.0879;-0.6771;
21.3000;0.0871;-0.6838;
21.6000;0.0855;-0.6838;
21.9000;0.0830;-0.6815;
22.2000;0.0863;-0.6683;
22.5000;0.0855;-0.6815;
22.8000;0.0920;-0.6638;
23.1000;0.0887;-0.6838;
23.4000;0.0887;-0.6793;
23.7000;0.0887;-0.6838;
24.0000;0.0887;-0.6882;
24.3000;0.0871;-0.6904;
24.6000;0.0879;-0.6882;
24.9000;0.0887;-0.6970;
25.2000;0.0871;-0.6926;
25.5000;0.0871;-0.6904;
25.8000;0.0879;-0.6860;
26.1000;0.0871;-0.6793;
26.4000;0.0928;-0.6638;
26.7000;0.0904;-0.6705;
27.0000;0.0887;-0.6727;
27.3000;0.0879;-0.6705;
27.6000;0.0944;-0.6572;
27.9000;0.0879;-0.6815;
28.2000;0.0871;-0.6838;
28.5000;0.0936;-0.6594;
28.8000;0.0863;-0.6771;
29.1000;0.0887;-0.6771;
29.4000;0.0961;-0.6616;
29.7000;0.0863;-0.6904;
30.0000;0.0863;-0.6882;
30.3000;0.0847;-0.6926;
30.6000;0.0855;-0.6882;
30.9000;0.0895;-0.6705;
31.2000;0.0871;-0.6771;
31.5000;0.0847;-0.6815;
31.8000;0.0871;-0.6771;
32.1000;0.0863;-0.6838;
32.4000;0.0887;-0.6705;
32.7000;0.0879;-0.6638;
33.0000;0.0871;-0.6749;
33.3000;0.0879;-0.6771;
33.6000;0.0749;-0.7081;
33.9000;0.0863;-0.6860;
34.2000;0.0871;-0.6838;
34.5000;0.0847;-0.6992;
34.8000;0.0904;-0.6815;
35.1000;0.0871;-0.6948;
35.4000;0.0847;-0.6992;
35.7000;0.0887;-0.6860;
36.0000;0.0830;-0.7015;
36.3000;0.0871;-0.6904;
36.6000;0.0895;-0.6793;
36.9000;0.0887;-0.6771;
37.2000;0.0855;-0.6948;
37.5000;0.0863;-0.6992;
37.8000;0.0830;-0.7170;
38.1000;0.0879;-0.7059;
38.4000;0.0773;-0.7236;
38.7000;0.0887;-0.6904;
39.0000;0.0863;-0.6882;
39.3000;0.0871;-0.6904;
39.6000;0.0847;-0.6948;
39.9000;0.0863;-0.6860;
40.2000;0.0871;-0.6904;
40.5000;0.0863;-0.6926;
40.8000;0.0871;-0.6882;
41.1000;0.0871;-0.6904;
41.4000;0.0920;-0.6860;
41.7000;0.0838;-0.7125;
42.0000;0.0895;-0.6970;
42.3000;0.0806;-0.7214;
42.6000;0.0887;-0.6970;
42.9000;0.0936;-0.6838;
43.2000;0.0912;-0.6838;
43.5000;0.0871;-0.6926;
43.8000;0.1034;-0.6572;
44.1000;0.0871;-0.7015;
44.4000;0.0847;-0.7037;
44.7000;0.0879;-0.6882;
45.0000;0.0887;-0.6904;
45.3000;0.0830;-0.7103;
45.6000;0.0879;-0.7015;
45.9000;0.0773;-0.7214;
46.2000;0.0879;-0.6926;
46.5000;0.0895;-0.6904;
46.8000;0.0871;-0.6970;
47.1000;0.0895;-0.6926;
47.4000;0.0895;-0.6926;
47.7000;0.0895;-0.6904;
48.0000;0.0904;-0.6926;
48.3000;0.0887;-0.6926;
48.6000;0.0855;-0.6992;
48.9000;0.0855;-0.6970;
49.2000;0.0863;-0.6904;
49.5000;0.0887;-0.6815;
49.8000;0.0912;-0.6771;
50.1000;0.0887;-0.6815;
50.4000;0.0904;-0.6727;
50.7000;0.0863;-0.6838;
51.0000;0.0863;-0.6882;
51.3000;0.0871;-0.6904;
51.6000;0.0879;-0.6860;
51.9000;0.0855;-0.6838;
52.2000;0.0977;-0.6594;
52.5000;0.0855;-0.6948;
52.8000;0.0879;-0.6926;
53.1000;0.0855;-0.7037;
53.4000;0.0879;-0.6948;
53.7000;0.0912;-0.6882;
54.0000;0.0887;-0.6860;
54.3000;0.0887;-0.6904;
54.6000;0.0879;-0.6860;
54.9000;0.0863;-0.6838;
55.2000;0.0879;-0.6771;
55.5000;0.0871;-0.6838;
55.8000;0.0895;-0.6771;
56.1000;0.0847;-0.6793;
56.4000;0.0847;-0.6815;
56.7000;0.0912;-0.6616;
57.0000;0.0871;-0.6705;
57.3000;0.0928;-0.6616;
57.6000;0.0912;-0.6638;
57.9000;0.0887;-0.6638;
58.2000;0.0887;-0.6683;
58.5000;0.0887;-0.6638;
58.8000;0.0920;-0.6550;
59.1000;0.0887;-0.6616;
59.4000;0.0871;-0.6661;
59.7000;0.0790;-0.6815;
60.0000;0.0806;-0.6882;
60.3000;0.0863;-0.6661;
60.6000;0.0855;-0.6705;
60.9000;0.0847;-0.6616;
61.2000;0.0887;-0.6550;
61.5000;0.0847;-0.6661;
61.8000;0.0781;-0.6904;
62.1000;0.0806;-0.6815;
62.4000;0.0814;-0.6904;
62.7000;0.0920;-0.6616;
63.0000;0.0887;-0.6749;
63.3000;0.0830;-0.6948;
63.6000;0.0863;-0.6860;
63.9000;0.0895;-0.6815;
64.2000;0.0847;-0.6904;
64.5000;0.0773;-0.7103;
64.8000;0.0887;-0.6838;
65.1000;0.0855;-0.6904;
65.4000;0.0895;-0.6815;
65.7000;0.0904;-0.6771;
66.0000;0.0887;-0.6727;
66.3000;0.0871;-0.6771;
66.6000;0.0977;-0.6506;
66.9000;0.0895;-0.6882;
67.2000;0.0879;-0.6904;
67.5000;0.0977;-0.6594;
67.8000;0.0895;-0.6749;
68.1000;0.0879;-0.6749;
68.4000;0.0871;-0.6838;
68.7000;0.0871;-0.6838;
69.0000;0.0879;-0.6838;
69.3000;0.0904;-0.6771;
69.6000;0.0871;-0.6860;
69.9000;0.0822;-0.7059;
70.2000;0.0944;-0.6815;
70.5000;0.0952;-0.6793;
70.8000;0.0863;-0.7015;
71.1000;0.0871;-0.6992;
71.4000;0.0895;-0.6926;
71.7000;0.0879;-0.6992;
72.0000;0.0887;-0.6970;
72.3000;0.0798;-0.7147;
72.6000;0.0879;-0.7037;
72.9000;0.0912;-0.6948;
73.2000;0.0912;-0.6904;
73.5000;0.0895;-0.6926;
73.8000;0.0879;-0.6992;
74.1000;0.0887;-0.6948;
74.4000;0.0895;-0.6970;
74.7000;0.0871;-0.7037;
75.0000;0.0895;-0.6992;
75.3000;0.0863;-0.7081;
75.6000;0.0879;-0.7015;
75.9000;0.0879;-0.7103;
76.2000;0.0871;-0.7103;
76.5000;0.0895;-0.7103;
76.8000;0.0887;-0.7147;
77.1000;0.0887;-0.7081;
77.4000;0.0863;-0.7214;
77.7000;0.0855;-0.7214;
78.0000;0.0895;-0.6992;
78.3000;0.0847;-0.7103;
78.6000;0.0879;-0.6992;
78.9000;0.0887;-0.7059;
79.2000;0.0904;-0.7015;
79.5000;0.0879;-0.6992;
79.8000;0.0879;-0.7015;
80.1000;0.0879;-0.7059;
80.4000;0.0928;-0.6882;
80.7000;0.0863;-0.6970;
81.0000;0.0879;-0.6904;
81.3000;0.0879;-0.6926;
81.6000;0.0895;-0.6860;
81.9000;0.0855;-0.7015;
82.2000;0.0887;-0.6992;
82.5000;0.0920;-0.6882;
82.8000;0.0855;-0.7081;
83.1000;0.0887;-0.6992;
83.4000;0.0944;-0.6749;
83.7000;0.0741;-0.7214;
84.0000;0.0920;-0.6860;
84.3000;0.0887;-0.6860;
84.6000;0.0912;-0.6838;
84.9000;0.0887;-0.6926;
85.2000;0.0887;-0.6970;
85.5000;0.0871;-0.6992;
85.8000;0.0879;-0.6904;
86.1000;0.0879;-0.6815;
86.4000;0.0863;-0.6793;
86.7000;0.0895;-0.6705;
87.0000;0.0912;-0.6683;
87.3000;0.0895;-0.6749;
87.6000;0.0912;-0.6705;
87.9000;0.0879;-0.6771;
88.2000;0.0863;-0.6771;
88.5000;0.0879;-0.6793;
88.8000;0.0944;-0.6638;
89.1000;0.0887;-0.6749;
89.4000;0.0806;-0.6992;
89.7000;0.0912;-0.6727;
90.0000;0.0838;-0.6904;
90.3000;0.0895;-0.6771;
90.6000;0.0904;-0.6793;
90.9000;0.0887;-0.6838;
91.2000;0.0887;-0.6815;
91.5000;0.0895;-0.6727;
91.8000;0.0887;-0.6705;
92.1000;0.0895;-0.6661;
92.4000;0.0912;-0.6638;
92.7000;0.0855;-0.6793;
93.0000;0.0863;-0.6771;
93.3000;0.0879;-0.6771;
93.6000;0.0936;-0.6638;
93.9000;0.0863;-0.6882;
94.2000;0.0847;-0.6948;
94.5000;0.0887;-0.6882;
94.8000;0.0879;-0.6838;
95.1000;0.0879;-0.6815;
95.4000;0.0863;-0.6838;
95.7000;0.0879;-0.6749;
96.0000;0.0895;-0.6705;
96.3000;0.0887;-0.6793;
96.6000;0.0887;-0.6882;
96.9000;0.0887;-0.6793;
97.2000;0.0961;-0.6661;
97.5000;0.0912;-0.6860;
97.8000;0.1001;-0.6550;
98.1000;0.0887;-0.6882;
98.4000;0.0855;-0.6992;
98.7000;0.0928;-0.6904;
99.0000;0.0887;-0.6992;
99.3000;0.0879;-0.6992;
99.6000;0.0895;-0.6992;
99.9000;0.0879;-0.7103;
100.2000;0.0895;-0.7059;
100.5000;0.0863;-0.7103;
100.8000;0.0887;-0.7059;
101.1000;0.0887;-0.7103;
101.4000;0.0920;-0.7015;
101.7000;0.0879;-0.7081;
102.0000;0.0895;-0.6948;
102.3000;0.0928;-0.6838;
102.6000;0.0895;-0.6948;
102.9000;0.0871;-0.7015;
103.2000;0.0879;-0.7081;
103.5000;0.0887;-0.7037;
103.8000;0.0879;-0.7059;
104.1000;0.0863;-0.7015;
104.4000;0.0904;-0.6926;
104.7000;0.0863;-0.6948;
105.0000;0.0895;-0.6815;
105.3000;0.0838;-0.6882;
105.6000;0.0879;-0.6771;
105.9000;0.0895;-0.6815;
106.2000;0.0871;-0.6904;
106.5000;0.0920;-0.6815;
106.8000;0.0887;-0.6926;
107.1000;0.0952;-0.6661;
107.4000;0.0944;-0.6793;
107.7000;0.0830;-0.7037;
108.0000;0.0871;-0.6904;
108.3000;0.0847;-0.7015;
108.6000;0.0887;-0.6860;
108.9000;0.0879;-0.6860;
109.2000;0.0863;-0.6904;
109.5000;0.0830;-0.7037;
109.8000;0.0895;-0.6815;
110.1000;0.0871;-0.6948;
110.4000;0.0855;-0.6992;
110.7000;0.0895;-0.6992;
111.0000;0.0863;-0.7059;
111.3000;0.0904;-0.6904;
111.6000;0.0879;-0.7015;
111.9000;0.0871;-0.7081;
112.2000;0.0993;-0.6793;
112.5000;0.0895;-0.6992;
112.8000;0.0879;-0.7037;
113.1000;0.0879;-0.6926;
113.4000;0.0879;-0.6948;
113.7000;0.0879;-0.7015;
114.0000;0.0871;-0.6970;
114.3000;0.0887;-0.6970;
114.6000;0.0944;-0.6771;
114.9000;0.0887;-0.6904;
115.2000;0.0871;-0.6970;
115.5000;0.0887;-0.6904;
115.8000;0.0830;-0.6948;
116.1000;0.0871;-0.6882;
116.4000;0.0855;-0.6948;
116.7000;0.0871;-0.6793;
117.0000;0.0879;-0.6705;
117.3000;0.0887;-0.6705;
117.6000;0.0871;-0.6749;
117.9000;0.0863;-0.6838;
118.2000;0.0895;-0.6793;
118.5000;0.0879;-0.6793;
118.8000;0.0895;-0.6683;
119.1000;0.0879;-0.6727;
119.4000;0.0871;-0.6771;
119.7000;0.0887;-0.6705;
120.0000;0.0895;-0.6771;
120.3000;0.0961;-0.6594;
120.6000;0.0814;-0.6970;
120.9000;0.0912;-0.6661;
121.2000;0.0904;-0.6572;
121.5000;0.0912;-0.6550;
121.8000;0.0838;-0.6749;
122.1000;0.0879;-0.6661;
122.4000;0.0895;-0.6683;
122.7000;0.0920;-0.6661;
123.0000;0.0904;-0.6749;
123.3000;0.0904;-0.6793;
123.6000;0.0904;-0.6860;
123.9000;0.0871;-0.6926;
124.2000;0.0895;-0.6970;
124.5000;0.0887;-0.6882;
124.8000;0.0887;-0.6860;
125.1000;0.0887;-0.6838;
125.4000;0.0887;-0.6860;
125.7000;0.0887;-0.6948;
126.0000;0.0887;-0.6948;
126.3000;0.0895;-0.6926;
126.6000;0.0912;-0.6838;
126.9000;0.0920;-0.6749;
127.2000;0.0887;-0.6838;
127.5000;0.0887;-0.6838;
127.8000;0.0863;-0.6793;
128.1000;0.0887;-0.6705;
128.4000;0.0879;-0.6860;
128.7000;0.0887;-0.6860;
129.0000;0.0887;-0.6882;
129.3000;0.0838;-0.7170;
129.6000;0.0895;-0.7081;
129.9000;0.0879;-0.7037;
130.2000;0.0879;-0.6882;
130.5000;0.0895;-0.6815;
130.8000;0.0871;-0.6793;
131.1000;0.0855;-0.6815;
131.4000;0.0757;-0.6992;
131.7000;0.0879;-0.6793;
132.0000;0.0790;-0.7037;
132.3000;0.0855;-0.6838;
132.6000;0.0887;-0.6683;
132.9000;0.0879;-0.6815;
133.2000;0.0879;-0.6771;
133.5000;0.0904;-0.6727;
133.8000;0.0912;-0.6683;
134.1000;0.0879;-0.6882;
134.4000;0.0871;-0.6882;
134.7000;0.0863;-0.6793;
135.0000;0.0879;-0.6749;
135.3000;0.0863;-0.6904;
135.6000;0.0871;-0.6904;
135.9000;0.0904;-0.6815;
136.2000;0.0879;-0.6793;
136.5000;0.0887;-0.6815;
136.8000;0.0904;-0.6793;
137.1000;0.0871;-0.6815;
137.4000;0.0928;-0.6705;
137.7000;0.0887;-0.6860;
138.0000;0.0790;-0.7103;
138.3000;0.0993;-0.6572;
138.6000;0.0895;-0.6882;
138.9000;0.0814;-0.7081;
139.2000;0.0830;-0.6992;
139.5000;0.0895;-0.6904;
139.8000;0.0928;-0.6771;
140.1000;0.0879;-0.6904;
140.4000;0.0969;-0.6727;
140.7000;0.0847;-0.6926;
141.0000;0.0944;-0.6661;
141.3000;0.0879;-0.6838;
141.6000;0.0887;-0.6860;
141.9000;0.0904;-0.6705;
142.2000;0.0895;-0.6727;
142.5000;0.0904;-0.6727;
142.8000;0.0928;-0.6638;
143.1000;0.0912;-0.6638;
143.4000;0.0871;-0.6771;
143.7000;0.0895;-0.6683;
144.0000;0.0904;-0.6705;
144.3000;0.0887;-0.6749;
144.6000;0.0904;-0.6749;
144.9000;0.0863;-0.6860;
145.2000;0.0961;-0.6638;
145.5000;0.0887;-0.6926;
145.8000;0.0936;-0.6860;
146.1000;0.0879;-0.7059;
146.4000;0.0863;-0.7081;
146.7000;0.0879;-0.7059;
147.0000;0.0879;-0.6970;
147.3000;0.0920;-0.6904;
147.6000;0.0871;-0.6926;
147.9000;0.0904;-0.6860;
148.2000;0.0887;-0.6882;
148.5000;0.0912;-0.6793;
148.8000;0.0912;-0.6749;
149.1000;0.0871;-0.6860;
149.4000;0.0830;-0.7037;
149.7000;0.0895;-0.6860;
150.0000;0.0879;-0.6860;
150.3000;0.0887;-0.6904;
150.6000;0.0814;-0.7059;
150.9000;0.0871;-0.6838;
151.2000;0.0855;-0.6926;
151.5000;0.0847;-0.6992;
151.8000;0.0887;-0.6970;
152.1000;0.0887;-0.6948;
152.4000;0.0863;-0.7015;
152.7000;0.0879;-0.6926;
153.0000;0.0879;-0.7059;
153.3000;0.0887;-0.7103;
153.6000;0.0879;-0.7147;
153.9000;0.0855;-0.7147;
154.2000;0.0887;-0.7103;
154.5000;0.0920;-0.7037;
154.8000;0.0895;-0.7037;
155.1000;0.0887;-0.7103;
155.4000;0.0871;-0.7147;
155.7000;0.0904;-0.7037;
156.0000;0.0887;-0.7059;
156.3000;0.0904;-0.7059;
156.6000;0.0879;-0.7059;
156.9000;0.0904;-0.7037;
157.2000;0.0871;-0.7125;
157.5000;0.0863;-0.7059;
157.8000;0.0855;-0.7037;
158.1000;0.0904;-0.6882;
158.4000;0.0920;-0.6838;
158.7000;0.0928;-0.6727;
159.0000;0.0855;-0.6882;
159.3000;0.0961;-0.6683;
159.6000;0.0904;-0.6793;
159.9000;0.0912;-0.6727;
160.2000;0.0855;-0.6838;
160.5000;0.0855;-0.6838;
160.8000;0.0887;-0.6860;
161.1000;0.0847;-0.6992;
161.4000;0.0822;-0.7059;
161.7000;0.0887;-0.6882;
162.0000;0.0895;-0.6860;
162.3000;0.0936;-0.6793;
162.6000;0.0879;-0.6948;
162.9000;0.0855;-0.6970;
163.2000;0.0887;-0.6948;
163.5000;0.0977;-0.6705;
163.8000;0.0895;-0.6904;
164.1000;0.0871;-0.6926;
164.4000;0.0822;-0.6948;
164.7000;0.0830;-0.6948;
165.0000;0.0863;-0.6904;
165.3000;0.0969;-0.6638;
165.6000;0.0887;-0.6815;
165.9000;0.0855;-0.6882;
166.2000;0.0895;-0.6815;
166.5000;0.0887;-0.6860;
166.8000;0.0871;-0.6948;
167.1000;0.0879;-0.6948;
167.4000;0.0871;-0.6926;
167.7000;0.0879;-0.7037;
168.0000;0.0879;-0.7081;
168.3000;0.0863;-0.7037;
168.6000;0.0887;-0.6904;
168.9000;0.0887;-0.6948;
169.2000;0.0863;-0.7081;
169.5000;0.0871;-0.6992;
169.8000;0.0822;-0.7059;
170.1000;0.0912;-0.6860;
170.4000;0.0879;-0.7015;
170.7000;0.0855;-0.7015;
171.0000;0.0871;-0.6970;
171.3000;0.0895;-0.6948;
171.6000;0.0904;-0.6904;
171.9000;0.0871;-0.6948;
172.2000;0.0920;-0.6815;
172.5000;0.0895;-0.6904;
172.8000;0.0863;-0.6904;
173.1000;0.0863;-0.7037;
173.4000;0.0920;-0.6838;
173.7000;0.0895;-0.6882;
174.0000;0.0879;-0.6926;
174.3000;0.0871;-0.6882;
174.6000;0.0814;-0.7015;
174.9000;0.0855;-0.6771;
175.2000;0.0887;-0.6727;
175.5000;0.0944;-0.6661;
175.8000;0.0830;-0.6926;
176.1000;0.0952;-0.6572;
176.4000;0.0895;-0.6749;
176.7000;0.0879;-0.6793;
177.0000;0.0871;-0.6860;
177.3000;0.0871;-0.6860;
177.6000;0.0863;-0.6904;
177.9000;0.0871;-0.6926;
178.2000;0.0936;-0.6771;
178.5000;0.0904;-0.6815;
178.8000;0.0879;-0.6904;
179.1000;0.0912;-0.6838;
179.4000;0.0887;-0.6970;
179.7000;0.0871;-0.6948;
180.0000;0.0912;-0.6948;
180.3000;0.0847;-0.7103;
180.6000;0.0895;-0.6948;
180.9000;0.0895;-0.6948;
181.2000;0.0895;-0.6860;
181.5000;0.0895;-0.6815;
181.8000;0.0871;-0.6838;
182.1000;0.0912;-0.6793;
182.4000;0.0871;-0.6860;
182.7000;0.0871;-0.6992;
183.0000;0.0879;-0.7059;
183.3000;0.0904;-0.7015;
183.6000;0.0961;-0.6926;
183.9000;0.0871;-0.7125;
184.2000;0.0855;-0.7170;
184.5000;0.0912;-0.7103;
184.8000;0.0879;-0.7147;
185.1000;0.0871;-0.7147;
185.4000;0.0895;-0.7103;
185.7000;0.0871;-0.7037;
186.0000;0.0895;-0.6948;
186.3000;0.0879;-0.7037;
186.6000;0.0887;-0.6970;
186.9000;0.0871;-0.6970;
187.2000;0.0887;-0.7015;
187.5000;0.0879;-0.7059;
187.8000;0.0871;-0.6992;
188.1000;0.0765;-0.7236;
188.4000;0.0871;-0.6970;
188.7000;0.0871;-0.7037;
189.0000;0.0887;-0.7037;
189.3000;0.0912;-0.6948;
189.6000;0.0887;-0.7015;
189.9000;0.0887;-0.6992;
190.2000;0.0871;-0.7015;
190.5000;0.0895;-0.7037;
190.8000;0.0879;-0.7147;
191.1000;0.0969;-0.6882;
191.4000;0.0912;-0.6992;
191.7000;0.0920;-0.6926;
192.0000;0.0871;-0.6970;
192.3000;0.0904;-0.6904;
192.6000;0.0904;-0.6860;
192.9000;0.0912;-0.6882;
193.2000;0.0879;-0.7059;
193.5000;0.0871;-0.7037;
193.8000;0.0887;-0.7059;
194.1000;0.0887;-0.7103;
194.4000;0.0895;-0.7125;
194.7000;0.0847;-0.7236;
195.0000;0.0904;-0.7192;
195.3000;0.0887;-0.7302;
195.6000;0.0887;-0.7258;
195.9000;0.0887;-0.7192;
196.2000;0.0863;-0.7258;
196.5000;0.0887;-0.7214;
196.8000;0.0871;-0.7324;
197.1000;0.0855;-0.7302;
197.4000;0.0871;-0.7280;
197.7000;0.0847;-0.7258;
198.0000;0.0936;-0.7015;
198.3000;0.0895;-0.7125;
198.6000;0.0904;-0.7125;
198.9000;0.0985;-0.6948;
199.2000;0.0895;-0.7170;
199.5000;0.0895;-0.7125;
199.8000;0.0863;-0.7147;
200.1000;0.0871;-0.7170;
200.4000;0.0944;-0.6926;
200.7000;0.0879;-0.6970;
201.0000;0.0920;-0.6948;
201.3000;0.0887;-0.7037;
201.6000;0.0895;-0.7037;
201.9000;0.1001;-0.6815;
202.2000;0.0871;-0.7059;
202.5000;0.0912;-0.7015;
202.8000;0.0887;-0.7103;
203.1000;0.0920;-0.6992;
203.4000;0.0879;-0.7037;
203.7000;0.0920;-0.6970;
204.0000;0.0879;-0.7103;
204.3000;0.0887;-0.7170;
204.6000;0.0904;-0.7214;
204.9000;0.0838;-0.7391;
205.2000;0.0895;-0.7280;
205.5000;0.0879;-0.7258;
205.8000;0.0879;-0.7258;
206.1000;0.0887;-0.7302;
206.4000;0.0887;-0.7280;
206.7000;0.0944;-0.7147;
207.0000;0.0895;-0.7369;
207.3000;0.0887;-0.7280;
207.6000;0.0781;-0.7457;
207.9000;0.0887;-0.7170;
208.2000;0.0871;-0.7170;
208.5000;0.0887;-0.7103;
208.8000;0.0855;-0.7258;
209.1000;0.0904;-0.7081;
209.4000;0.0879;-0.7170;
209.7000;0.0838;-0.7258;
210.0000;0.0887;-0.7236;
210.3000;0.0887;-0.7258;
210.6000;0.0863;-0.7347;
210.9000;0.0871;-0.7324;
211.2000;0.0814;-0.7479;
211.5000;0.0847;-0.7324;
211.8000;0.0871;-0.7258;
212.1000;0.0879;-0.7214;
212.4000;0.0887;-0.7147;
212.7000;0.0887;-0.7125;
213.0000;0.0895;-0.7103;
213.3000;0.0879;-0.7103;
213.6000;0.0920;-0.7015;
213.9000;0.0855;-0.7192;
214.2000;0.0887;-0.7059;
214.5000;0.0895;-0.6926;
214.8000;0.0887;-0.6926;
215.1000;0.0887;-0.6882;
215.4000;0.0887;-0.6926;
215.7000;0.0961;-0.6815;
216.0000;0.0879;-0.6992;
216.3000;0.0855;-0.6926;
216.6000;0.0895;-0.6815;
216.9000;0.0879;-0.6838;
217.2000;0.0895;-0.6815;
217.5000;0.0887;-0.6838;
217.8000;0.0847;-0.6860;
218.1000;0.0879;-0.6771;
218.4000;0.0895;-0.6727;
218.7000;0.0904;-0.6771;
219.0000;0.0887;-0.6860;
219.3000;0.0904;-0.6882;
219.6000;0.0887;-0.6904;
219.9000;0.0871;-0.6882;
220.2000;0.0830;-0.6992;
220.5000;0.0887;-0.6926;
220.8000;0.0855;-0.7103;
221.1000;0.0863;-0.7015;
221.4000;0.0879;-0.6970;
221.7000;0.0847;-0.7103;
222.0000;0.0871;-0.6992;
222.3000;0.0855;-0.6970;
222.6000;0.0944;-0.6793;
222.9000;0.0879;-0.6860;
223.2000;0.0887;-0.6882;
223.5000;0.0871;-0.7015;
223.8000;0.0879;-0.7059;
224.1000;0.0936;-0.6926;
224.4000;0.0838;-0.7125;
224.7000;0.0895;-0.6948;
225.0000;0.0814;-0.7214;
225.3000;0.0879;-0.7103;
225.6000;0.0847;-0.7214;
225.9000;0.0879;-0.7170;
226.2000;0.0887;-0.7081;
226.5000;0.0895;-0.7037;
226.8000;0.0904;-0.7015;
227.1000;0.0879;-0.7037;
227.4000;0.0879;-0.6992;
227.7000;0.0912;-0.6948;
228.0000;0.0895;-0.7059;
228.3000;0.0936;-0.7037;
228.6000;0.0887;-0.7125;
228.9000;0.0887;-0.7037;
229.2000;0.0887;-0.7103;
229.5000;0.0904;-0.7081;
229.8000;0.0895;-0.7125;
230.1000;0.0879;-0.7147;
230.4000;0.0879;-0.7103;
230.7000;0.0952;-0.6904;
231.0000;0.0887;-0.7147;
231.3000;0.0879;-0.7103;
231.6000;0.0895;-0.7037;
231.9000;0.0895;-0.7037;
232.2000;0.0879;-0.6992;
232.5000;0.0814;-0.7214;
232.8000;0.0871;-0.7147;
233.1000;0.0887;-0.6992;
233.4000;0.0904;-0.6882;
233.7000;0.0887;-0.6904;
234.0000;0.0863;-0.6926;
234.3000;0.0871;-0.6926;
234.6000;0.0871;-0.6970;
234.9000;0.0863;-0.7037;
235.2000;0.0871;-0.7081;
235.5000;0.0904;-0.7015;
235.8000;0.0912;-0.6948;
236.1000;0.0887;-0.7015;
236.4000;0.0871;-0.7037;
236.7000;0.0895;-0.6970;
237.0000;0.0879;-0.7015;
237.3000;0.0855;-0.7015;
237.6000;0.0887;-0.6882;
237.9000;0.0904;-0.6882;
238.2000;0.0871;-0.7015;
238.5000;0.0904;-0.7037;
238.8000;0.0895;-0.7170;
239.1000;0.0855;-0.7147;
239.4000;0.0904;-0.6992;
239.7000;0.0847;-0.7147;
240.0000;0.0879;-0.7081;
240.3000;0.0895;-0.6992;
240.6000;0.0944;-0.6904;
240.9000;0.0871;-0.7059;
241.2000;0.0895;-0.7037;
241.5000;0.0765;-0.7302;
241.8000;0.0895;-0.7015;
242.1000;0.0912;-0.7037;
242.4000;0.0936;-0.7015;
242.7000;0.0895;-0.7170;
243.0000;0.0887;-0.7170;
243.3000;0.0887;-0.7170;
243.6000;0.0887;-0.7192;
243.9000;0.0879;-0.7214;
244.2000;0.0887;-0.7236;
244.5000;0.0887;-0.7170;
244.8000;0.0887;-0.7081;
245.1000;0.0887;-0.7081;
245.4000;0.0879;-0.7081;
245.7000;0.0993;-0.6815;
246.0000;0.1026;-0.6749;
246.3000;0.0863;-0.7147;
246.6000;0.0912;-0.6992;
246.9000;0.0879;-0.7125;
247.2000;0.0879;-0.7103;
247.5000;0.0781;-0.7324;
247.8000;0.0887;-0.7103;
248.1000;0.0733;-0.7479;
248.4000;0.0912;-0.7059;
248.7000;0.0887;-0.7059;
249.0000;0.0838;-0.7170;
249.3000;0.0806;-0.7280;
249.6000;0.0855;-0.7236;
249.9000;0.0887;-0.7147;
250.2000;0.0806;-0.7236;
250.5000;0.0879;-0.7037;
250.8000;0.0895;-0.7103;
251.1000;0.0904;-0.7125;
251.4000;0.0920;-0.7015;
251.7000;0.0863;-0.7103;
252.0000;0.0912;-0.6926;
252.3000;0.0879;-0.6948;
252.6000;0.0912;-0.6948;
252.9000;0.0879;-0.7059;
253.2000;0.0904;-0.7015;
253.5000;0.0944;-0.6926;
253.8000;0.0904;-0.6948;
254.1000;0.0887;-0.6992;
254.4000;0.0895;-0.6970;
254.7000;0.0895;-0.7015;
255.0000;0.0879;-0.7081;
255.3000;0.0871;-0.7125;
255.6000;0.0781;-0.7347;
255.9000;0.0879;-0.7081;
256.2000;0.0887;-0.7037;
256.5000;0.0879;-0.7015;
256.8000;0.0887;-0.6970;
257.1000;0.0920;-0.6926;
257.4000;0.0879;-0.7015;
257.7000;0.0936;-0.6926;
258.0000;0.0879;-0.7037;
258.3000;0.0887;-0.7081;
258.6000;0.0879;-0.7125;
258.9000;0.0895;-0.7037;
259.2000;0.0912;-0.6948;
259.5000;0.0912;-0.7015;
259.8000;0.0871;-0.7037;
260.1000;0.0887;-0.7015;
260.4000;0.0879;-0.7037;
260.7000;0.0871;-0.7059;
261.0000;0.0904;-0.6904;
261.3000;0.0871;-0.6992;
261.6000;0.0952;-0.6815;
261.9000;0.0887;-0.6970;
262.2000;0.0879;-0.6970;
262.5000;0.0887;-0.6926;
262.8000;0.0887;-0.7015;
263.1000;0.0895;-0.6992;
263.4000;0.0895;-0.7015;
263.7000;0.0904;-0.6970;
264.0000;0.0969;-0.6749;
264.3000;0.0920;-0.6793;
264.6000;0.0887;-0.6904;
264.9000;0.0887;-0.6948;
265.2000;0.0895;-0.6948;
265.5000;0.0912;-0.6948;
265.8000;0.0895;-0.6970;
266.1000;0.0904;-0.6948;
266.4000;0.0879;-0.6970;
266.7000;0.0879;-0.6992;
267.0000;0.0895;-0.6992;
267.3000;0.0879;-0.7081;
267.6000;0.0904;-0.7103;
267.9000;0.0895;-0.7081;
268.2000;0.0879;-0.6992;
268.5000;0.0814;-0.7103;
268.8000;0.0879;-0.6926;
269.1000;0.0871;-0.6970;
269.4000;0.0871;-0.6882;
269.7000;0.1042;-0.6484;
270.0000;0.0798;-0.7059;
270.3000;0.0887;-0.6815;
270.6000;0.0871;-0.6815;
270.9000;0.0887;-0.6793;
271.2000;0.0895;-0.6838;
271.5000;0.0920;-0.6815;
271.8000;0.0773;-0.7214;
272.1000;0.0855;-0.7059;
272.4000;0.0887;-0.6992;
272.7000;0.0904;-0.6970;
273.0000;0.0879;-0.7015;
273.3000;0.0887;-0.7037;
273.6000;0.0863;-0.7103;
273.9000;0.0887;-0.7015;
274.2000;0.0863;-0.7081;
274.5000;0.0855;-0.7125;
274.8000;0.0895;-0.7081;
275.1000;0.0887;-0.7059;
275.4000;0.0757;-0.7280;
275.7000;0.0887;-0.7037;
276.0000;0.0871;-0.7147;
276.3000;0.0871;-0.7081;
276.6000;0.0895;-0.6948;
276.9000;0.0822;-0.7059;
277.2000;0.0895;-0.6882;
277.5000;0.0961;-0.6705;
277.8000;0.0879;-0.6970;
278.1000;0.0871;-0.7081;
278.4000;0.0879;-0.7037;
278.7000;0.0838;-0.7037;
279.0000;0.0904;-0.6882;
279.3000;0.0757;-0.7125;
279.6000;0.0871;-0.6860;
279.9000;0.0895;-0.6860;
280.2000;0.0895;-0.6904;
280.5000;0.0863;-0.7059;
280.8000;0.0887;-0.7059;
281.1000;0.0887;-0.7037;
281.4000;0.0904;-0.6970;
281.7000;0.0871;-0.7059;
282.0000;0.0879;-0.6904;
282.3000;0.0879;-0.6926;
282.6000;0.0904;-0.6882;
282.9000;0.0871;-0.6904;
283.2000;0.0879;-0.6860;
283.5000;0.0871;-0.6970;
283.8000;0.0814;-0.7236;
284.1000;0.0887;-0.7081;
284.4000;0.0847;-0.7170;
284.7000;0.0871;-0.7192;
285.0000;0.0871;-0.7192;
285.3000;0.0887;-0.7147;
285.6000;0.0887;-0.7170;
285.9000;0.0895;-0.7103;
286.2000;0.0879;-0.7170;
286.5000;0.0879;-0.7081;
286.8000;0.0969;-0.6749;
287.1000;0.0863;-0.7037;
287.4000;0.0895;-0.6992;
287.7000;0.0887;-0.6992;
288.0000;0.0887;-0.7015;
288.3000;0.0830;-0.7214;
288.6000;0.0806;-0.7258;
288.9000;0.0855;-0.7170;
289.2000;0.0912;-0.7125;
289.5000;0.0936;-0.7037;
289.8000;0.0887;-0.7103;
290.1000;0.0887;-0.7147;
290.4000;0.0798;-0.7214;
290.7000;0.0887;-0.6926;
291.0000;0.0887;-0.6948;
291.3000;0.0879;-0.6948;
291.6000;0.0895;-0.6882;
291.9000;0.0855;-0.6970;
292.2000;0.0879;-0.6948;
292.5000;0.0920;-0.6882;
292.8000;0.0895;-0.6948;
293.1000;0.0895;-0.6882;
293.4000;0.0773;-0.7347;
293.7000;0.0936;-0.6926;
294.0000;0.0887;-0.7103;
294.3000;0.0895;-0.7081;
294.6000;0.0749;-0.7457;
294.9000;0.0863;-0.7214;
295.2000;0.0871;-0.7147;
295.5000;0.0887;-0.7192;
295.8000;0.0904;-0.7236;
296.1000;0.0928;-0.7103;
296.4000;0.0936;-0.7103;
296.7000;0.0904;-0.7125;
297.0000;0.0847;-0.7236;
297.3000;0.0838;-0.7192;
297.6000;0.0855;-0.7059;
297.9000;0.0871;-0.7015;
298.2000;0.0895;-0.6970;
298.5000;0.0887;-0.6992;
298.8000;0.0871;-0.6992;
299.1000;0.0887;-0.6970;
299.4000;0.0863;-0.6926;
299.7000;0.0879;-0.6948;
300.0000;0.0879;-0.7037;
300.3000;0.0871;-0.7037;
300.6000;0.0879;-0.7059;
300.9000;0.0895;-0.6970;
301.2000;0.0871;-0.7059;
301.5000;0.0887;-0.7081;
301.8000;0.0879;-0.7015;
302.1000;0.0863;-0.7081;
302.4000;0.0830;-0.7147;
302.7000;0.0887;-0.7103;
303.0000;0.0863;-0.7147;
303.3000;0.0871;-0.7236;
303.6000;0.0887;-0.7170;
303.9000;0.0912;-0.7192;
304.2000;0.0887;-0.7214;
304.5000;0.0912;-0.7103;
304.8000;0.0871;-0.7170;
305.1000;0.0871;-0.7147;
305.4000;0.0871;-0.7147;
305.7000;0.0879;-0.7170;
306.0000;0.0871;-0.7147;
306.3000;0.0871;-0.7103;
306.6000;0.0895;-0.7037;
306.9000;0.0952;-0.6904;
307.2000;0.0822;-0.7103;
307.5000;0.0887;-0.7081;
307.8000;0.0904;-0.7015;
308.1000;0.0904;-0.6992;
308.4000;0.0928;-0.7015;
308.7000;0.0855;-0.7192;
309.0000;0.0928;-0.6926;
309.3000;0.0879;-0.6948;
309.6000;0.0838;-0.7059;
309.9000;0.0936;-0.6882;
310.2000;0.0822;-0.7192;
310.5000;0.0871;-0.7037;
310.8000;0.0741;-0.7302;
311.1000;0.0887;-0.6926;
311.4000;0.0879;-0.6926;
311.7000;0.0936;-0.6882;
312.0000;0.0912;-0.6992;
312.3000;0.0887;-0.7059;
312.6000;0.1001;-0.6771;
312.9000;0.0895;-0.6992;
313.2000;0.0879;-0.7037;
313.5000;0.0887;-0.7037;
313.8000;0.0863;-0.6970;
314.1000;0.0863;-0.6992;
314.4000;0.0920;-0.6860;
314.7000;0.0912;-0.6904;
315.0000;0.0895;-0.6926;
315.3000;0.0871;-0.7015;
315.6000;0.0871;-0.7059;
315.9000;0.0952;-0.6926;
316.2000;0.0871;-0.7081;
316.5000;0.0912;-0.6904;
316.8000;0.0871;-0.7015;
317.1000;0.0871;-0.6992;
317.4000;0.0887;-0.6970;
317.7000;0.0871;-0.6992;
318.0000;0.0904;-0.7059;
318.3000;0.0887;-0.7170;
318.6000;0.0895;-0.7214;
318.9000;0.0887;-0.7280;
319.2000;0.0879;-0.7236;
319.5000;0.0887;-0.7147;
319.8000;0.0912;-0.7015;
320.1000;0.0887;-0.7059;
320.4000;0.0904;-0.7059;
320.7000;0.0879;-0.7103;
321.0000;0.0879;-0.7059;
321.3000;0.0879;-0.7037;
321.6000;0.0887;-0.7059;
321.9000;0.0895;-0.7037;
322.2000;0.0936;-0.6860;
322.5000;0.0912;-0.6992;
322.8000;0.0863;-0.7059;
323.1000;0.0895;-0.7015;
323.4000;0.0895;-0.6904;
323.7000;0.0936;-0.6838;
324.0000;0.0871;-0.7015;
324.3000;0.0895;-0.6904;
324.6000;0.0887;-0.6926;
324.9000;0.0904;-0.6970;
325.2000;0.0855;-0.7059;
325.5000;0.0920;-0.6992;
325.8000;0.0863;-0.7081;
326.1000;0.0822;-0.7170;
326.4000;0.0879;-0.7015;
326.7000;0.0936;-0.6970;
327.0000;0.0887;-0.7037;
327.3000;0.0895;-0.7059;
327.6000;0.0871;-0.7125;
327.9000;0.0855;-0.7147;
328.2000;0.0887;-0.7125;
328.5000;0.0912;-0.7059;
328.8000;0.0879;-0.7081;
329.1000;0.0879;-0.7147;
329.4000;0.0895;-0.7081;
329.7000;0.0855;-0.7147;
330.0000;0.0863;-0.7192;
330.3000;0.0806;-0.7435;
330.6000;0.0871;-0.7302;
330.9000;0.0936;-0.7147;
331.2000;0.0879;-0.7324;
331.5000;0.0855;-0.7391;
331.8000;0.0838;-0.7435;
332.1000;0.0904;-0.7369;
332.4000;0.0871;-0.7457;
332.7000;0.0879;-0.7302;
333.0000;0.0887;-0.7192;
333.3000;0.0887;-0.7192;
333.6000;0.0904;-0.7125;
333.9000;0.0936;-0.7081;
334.2000;0.0944;-0.7059;
334.5000;0.0912;-0.7103;
334.8000;0.0838;-0.7280;
335.1000;0.0863;-0.7147;
335.4000;0.0928;-0.7015;
335.7000;0.0895;-0.7103;
336.0000;0.0887;-0.7103;
336.3000;0.0871;-0.7081;
336.6000;0.0871;-0.7125;
336.9000;0.0952;-0.6904;
337.2000;0.0904;-0.6948;
337.5000;0.0879;-0.6970;
337.8000;0.0887;-0.6948;
338.1000;0.0871;-0.6992;
338.4000;0.0887;-0.7037;
338.7000;0.0871;-0.7081;
339.0000;0.0895;-0.6970;
339.3000;0.0879;-0.7037;
339.6000;0.0814;-0.7258;
339.9000;0.0855;-0.7147;
340.2000;0.0863;-0.7125;
340.5000;0.0855;-0.7170;
340.8000;0.0871;-0.7081;
341.1000;0.1001;-0.6793;
341.4000;0.0863;-0.7081;
341.7000;0.0871;-0.6992;
342.0000;0.0904;-0.6926;
342.3000;0.0928;-0.6904;
342.6000;0.0904;-0.6992;
342.9000;0.0879;-0.7015;
343.2000;0.0904;-0.6926;
343.5000;0.0863;-0.6970;
343.8000;0.0887;-0.6904;
344.1000;0.0871;-0.6948;
344.4000;0.0822;-0.7170;
344.7000;0.0887;-0.6970;
345.0000;0.0871;-0.7081;
345.3000;0.0863;-0.7125;
345.6000;0.0879;-0.7015;
345.9000;0.0879;-0.6948;
346.2000;0.0855;-0.6992;
346.5000;0.0912;-0.6815;
346.8000;0.0887;-0.6860;
347.1000;0.0887;-0.6992;
347.4000;0.0928;-0.6860;
347.7000;0.0887;-0.7103;
348.0000;0.0887;-0.7015;
348.3000;0.0944;-0.6860;
348.6000;0.0855;-0.6992;
348.9000;0.0871;-0.6948;
349.2000;0.0879;-0.6926;
349.5000;0.0822;-0.7059;
349.8000;0.0912;-0.6882;
350.1000;0.0871;-0.6992;
350.4000;0.0855;-0.7059;
350.7000;0.0944;-0.6860;
351.0000;0.0912;-0.7015;
351.3000;0.0912;-0.7015;
351.6000;0.0847;-0.7103;
351.9000;0.0855;-0.7103;
352.2000;0.0895;-0.6948;
352.5000;0.0904;-0.6970;
352.8000;0.0895;-0.6970;
353.1000;0.0871;-0.6992;
353.4000;0.0871;-0.7059;
353.7000;0.0879;-0.6970;
354.0000;0.0895;-0.6992;
354.3000;0.0887;-0.7015;
354.6000;0.0879;-0.7015;
354.9000;0.0912;-0.6926;
355.2000;0.0887;-0.7015;
355.5000;0.0871;-0.6992;
355.8000;0.0887;-0.6992;
356.1000;0.0863;-0.7059;
356.4000;0.0863;-0.7037;
356.7000;0.0895;-0.7015;
357.0000;0.0895;-0.6926;
357.3000;0.0904;-0.6970;
357.6000;0.0838;-0.7059;
357.9000;0.0936;-0.6793;
358.2000;0.0871;-0.6970;
358.5000;0.0912;-0.6926;
358.8000;0.0912;-0.6948;
359.1000;0.0895;-0.6948;
359.4000;0.0895;-0.7015;
359.7000;0.0912;-0.6970;
360.0000;0.0871;-0.7125;
360.3000;0.0895;-0.6992;
360.6000;0.0871;-0.7015;
360.9000;0.0838;-0.7037;
361.2000;0.0847;-0.7037;
361.5000;0.0855;-0.7059;
361.8000;0.0887;-0.6992;
362.1000;0.0887;-0.6926;
362.4000;0.0806;-0.7147;
362.7000;0.0887;-0.6838;
363.0000;0.0928;-0.6860;
363.3000;0.0863;-0.7059;
363.6000;0.0920;-0.6970;
363.9000;0.0920;-0.6970;
364.2000;0.0855;-0.7103;
364.5000;0.0904;-0.7015;
364.8000;0.0863;-0.7125;
365.1000;0.0855;-0.7147;
365.4000;0.0879;-0.7170;
365.7000;0.0814;-0.7302;
366.0000;0.0887;-0.7081;
366.3000;0.0838;-0.7037;
366.6000;0.0895;-0.6904;
366.9000;0.0871;-0.7037;
367.2000;0.0822;-0.7214;
367.5000;0.0879;-0.7147;
367.8000;0.0871;-0.7192;
368.1000;0.0887;-0.7192;
368.4000;0.1050;-0.6727;
368.7000;0.0814;-0.7280;
369.0000;0.0895;-0.7059;
369.3000;0.0904;-0.6992;
369.6000;0.0944;-0.6860;
369.9000;0.0895;-0.7037;
370.2000;0.0847;-0.7170;
370.5000;0.0879;-0.7081;
370.8000;0.0904;-0.7015;
371.1000;0.0871;-0.7125;
371.4000;0.0871;-0.7192;
371.7000;0.0887;-0.7170;
372.0000;0.0879;-0.7081;
372.3000;0.0920;-0.6992;
372.6000;0.0855;-0.7147;
372.9000;0.0871;-0.7147;
373.2000;0.0863;-0.7103;
373.5000;0.0847;-0.7081;
373.8000;0.0879;-0.7037;
374.1000;0.0879;-0.7081;
374.4000;0.0879;-0.7015;
374.7000;0.0887;-0.6926;
375.0000;0.0871;-0.7015;
375.3000;0.0904;-0.6992;
375.6000;0.0895;-0.6948;
375.9000;0.0871;-0.6970;
376.2000;0.0863;-0.6970;
376.5000;0.0895;-0.6904;
376.8000;0.0895;-0.7015;
377.1000;0.0895;-0.7059;
377.4000;0.0887;-0.7059;
377.7000;0.0887;-0.7037;
378.0000;0.0822;-0.7280;
378.3000;0.0879;-0.7081;
378.6000;0.0895;-0.7103;
378.9000;0.0838;-0.7302;
379.2000;0.0879;-0.7170;
379.5000;0.0904;-0.7192;
379.8000;0.0879;-0.7258;
380.1000;0.0879;-0.7236;
380.4000;0.0936;-0.7125;
380.7000;0.0879;-0.7192;
381.0000;0.0871;-0.7214;
381.3000;0.0871;-0.7170;
381.6000;0.0838;-0.7302;
381.9000;0.0895;-0.7059;
382.2000;0.0871;-0.7103;
382.5000;0.0855;-0.7125;
382.8000;0.0855;-0.7125;
383.1000;0.0863;-0.7147;
383.4000;0.0904;-0.7059;
383.7000;0.0887;-0.7103;
384.0000;0.0887;-0.7081;
384.3000;0.0895;-0.7147;
384.6000;0.0895;-0.7214;
384.9000;0.0887;-0.7214;
385.2000;0.0904;-0.7236;
385.5000;0.0879;-0.7214;
385.8000;0.0904;-0.7214;
386.1000;0.0871;-0.7236;
386.4000;0.0920;-0.7081;
386.7000;0.0871;-0.7081;
387.0000;0.0798;-0.7302;
387.3000;0.0895;-0.7103;
387.6000;0.0895;-0.7125;
387.9000;0.0757;-0.7435;
388.2000;0.0904;-0.7081;
388.5000;0.0879;-0.7125;
388.8000;0.0928;-0.7081;
389.1000;0.0855;-0.7258;
389.4000;0.0863;-0.7302;
389.7000;0.0936;-0.7059;
390.0000;0.0863;-0.7214;
390.3000;0.0863;-0.7192;
390.6000;0.0887;-0.7170;
390.9000;0.0904;-0.7147;
391.2000;0.0887;-0.7170;
391.5000;0.0847;-0.7192;
391.8000;0.0904;-0.7059;
392.1000;0.0887;-0.7015;
392.4000;0.0952;-0.6749;
392.7000;0.0863;-0.7059;
393.0000;0.0879;-0.7015;
393.3000;0.0871;-0.6926;
393.6000;0.0904;-0.6860;
393.9000;0.0879;-0.6948;
394.2000;0.0969;-0.6683;
394.5000;0.0830;-0.6970;
394.8000;0.0920;-0.6749;
395.1000;0.0863;-0.6926;
395.4000;0.0871;-0.6948;
395.7000;0.0855;-0.7125;
396.0000;0.0887;-0.7103;
396.3000;0.0895;-0.7037;
396.6000;0.0871;-0.7059;
396.9000;0.0904;-0.6926;
397.2000;0.0887;-0.7037;
397.5000;0.0904;-0.7059;
397.8000;0.0887;-0.7059;
398.1000;0.0895;-0.7081;
398.4000;0.0895;-0.6992;
398.7000;0.0887;-0.7059;
399.0000;0.0895;-0.6992;
399.3000;0.0977;-0.6749;
399.6000;0.0928;-0.6860;
399.9000;0.0879;-0.7037;
400.2000;0.0887;-0.7059;
400.5000;0.0879;-0.7059;
400.8000;0.0847;-0.7125;
401.1000;0.0830;-0.7236;
401.4000;0.0887;-0.7081;
401.7000;0.0912;-0.7015;
402.0000;0.0887;-0.7103;
402.3000;0.0887;-0.7037;
402.6000;0.0871;-0.7103;
402.9000;0.0952;-0.6838;
403.2000;0.0904;-0.6992;
403.5000;0.0904;-0.7037;
403.8000;0.0961;-0.6992;
404.1000;0.0863;-0.7214;
404.4000;0.0806;-0.7347;
404.7000;0.0904;-0.7103;
405.0000;0.0928;-0.7037;
405.3000;0.0879;-0.7236;
405.6000;0.0879;-0.7170;
405.9000;0.0904;-0.7037;
406.2000;0.0830;-0.7214;
406.5000;0.0855;-0.7170;
406.8000;0.0871;-0.7103;
407.1000;0.0904;-0.7037;
407.4000;0.0765;-0.7391;
407.7000;0.0871;-0.7170;
408.0000;0.0879;-0.7125;
408.3000;0.0904;-0.7081;
408.6000;0.0887;-0.7059;
408.9000;0.0912;-0.7037;
409.2000;0.0895;-0.7015;
409.5000;0.0871;-0.6970;
409.8000;0.0887;-0.6948;
410.1000;0.0895;-0.6970;
410.4000;0.0920;-0.6882;
410.7000;0.0920;-0.6815;
411.0000;0.0879;-0.6926;
411.3000;0.0904;-0.6838;
411.6000;0.0952;-0.6749;
411.9000;0.0887;-0.6926;
412.2000;0.0879;-0.6860;
412.5000;0.0887;-0.6882;
412.8000;0.0871;-0.7015;
413.1000;0.0895;-0.6948;
413.4000;0.0887;-0.6992;
413.7000;0.0863;-0.7015;
414.0000;0.0871;-0.7059;
414.3000;0.0879;-0.7103;
414.6000;0.0895;-0.7037;
414.9000;0.0879;-0.7037;
415.2000;0.0863;-0.7103;
415.5000;0.0895;-0.7059;
415.8000;0.0871;-0.7147;
416.1000;0.0887;-0.7125;
416.4000;0.0895;-0.7103;
416.7000;0.0887;-0.7103;
417.0000;0.0887;-0.7059;
417.3000;0.0895;-0.7103;
417.6000;0.0895;-0.7236;
417.9000;0.0895;-0.7236;
418.2000;0.0879;-0.7214;
418.5000;0.0887;-0.7103;
418.8000;0.0895;-0.7125;
419.1000;0.0887;-0.7081;
419.4000;0.0895;-0.7081;
419.7000;0.0855;-0.7170;
420.0000;0.0879;-0.7059;
420.3000;0.0814;-0.7170;
420.6000;0.0887;-0.6992;
420.9000;0.0879;-0.7037;
421.2000;0.0912;-0.7059;
421.5000;0.0871;-0.7147;
421.8000;0.0855;-0.7214;
422.1000;0.0887;-0.7125;
422.4000;0.0895;-0.7125;
422.7000;0.0912;-0.7081;
423.0000;0.0822;-0.7258;
423.3000;0.0879;-0.7103;
423.6000;0.0847;-0.7236;
423.9000;0.0895;-0.7059;
424.2000;0.0887;-0.7081;
424.5000;0.0887;-0.7037;
424.8000;0.0904;-0.6904;
425.1000;0.0887;-0.6970;
425.4000;0.0895;-0.6926;
425.7000;0.0985;-0.6683;
426.0000;0.0944;-0.6683;
426.3000;0.0928;-0.6727;
426.6000;0.0952;-0.6572;
426.9000;0.0879;-0.6683;
427.2000;0.0863;-0.6705;
427.5000;0.0887;-0.6705;
427.8000;0.0912;-0.6683;
428.1000;0.0879;-0.6838;
428.4000;0.0912;-0.6771;
428.7000;0.0961;-0.6793;
429.0000;0.0936;-0.6838;
429.3000;0.0838;-0.7015;
429.6000;0.0904;-0.6860;
429.9000;0.0871;-0.6904;
430.2000;0.0879;-0.6970;
430.5000;0.0887;-0.7037;
430.8000;0.0895;-0.7015;
431.1000;0.0895;-0.7015;
431.4000;0.0887;-0.6970;
431.7000;0.0879;-0.7015;
432.0000;0.0871;-0.6992;
432.3000;0.0863;-0.6926;
432.6000;0.0871;-0.6992;
432.9000;0.0895;-0.6904;
433.2000;0.0895;-0.6948;
433.5000;0.0936;-0.6815;
433.8000;0.0879;-0.6992;
434.1000;0.0879;-0.7037;
434.4000;0.0887;-0.7037;
434.7000;0.0887;-0.7037;
435.0000;0.0830;-0.7236;
435.3000;0.0879;-0.7147;
435.6000;0.0920;-0.7170;
435.9000;0.0895;-0.7302;
436.2000;0.0887;-0.7347;
436.5000;0.0912;-0.7324;
436.8000;0.0871;-0.7280;
437.1000;0.0863;-0.7324;
437.4000;0.0879;-0.7214;
437.7000;0.0895;-0.7214;
438.0000;0.0879;-0.7324;
438.3000;0.0871;-0.7302;
438.6000;0.0920;-0.7170;
438.9000;0.0912;-0.7125;
439.2000;0.0879;-0.7170;
439.5000;0.0904;-0.7081;
439.8000;0.0838;-0.7192;
440.1000;0.0879;-0.7103;
440.4000;0.0904;-0.7059;
440.7000;0.0904;-0.7059;
441.0000;0.0838;-0.7324;
441.3000;0.0879;-0.7214;
441.6000;0.0879;-0.7214;
441.9000;0.0830;-0.7413;
442.2000;0.0863;-0.7324;
442.5000;0.0790;-0.7501;
442.8000;0.0887;-0.7236;
443.1000;0.0830;-0.7391;
443.4000;0.0871;-0.7258;
443.7000;0.0904;-0.7147;
444.0000;0.0871;-0.7192;
444.3000;0.0879;-0.7214;
444.6000;0.0887;-0.7147;
444.9000;0.0887;-0.7059;
445.2000;0.0863;-0.7103;
445.5000;0.0871;-0.6992;
445.8000;0.0887;-0.6948;
446.1000;0.0887;-0.6970;
446.4000;0.0871;-0.7037;
446.7000;0.0887;-0.7103;
447.0000;0.0863;-0.7147;
447.3000;0.0879;-0.7081;
447.6000;0.0830;-0.7125;
447.9000;0.0920;-0.6970;
448.2000;0.0887;-0.7170;
448.5000;0.0838;-0.7391;
448.8000;0.0879;-0.7302;
449.1000;0.0847;-0.7479;
449.4000;0.0904;-0.7258;
449.7000;0.0871;-0.7324;
450.0000;0.0887;-0.7258;
450.3000;0.0887;-0.7170;
450.6000;0.0838;-0.7347;
450.9000;0.0765;-0.7391;
451.2000;0.0879;-0.7147;
451.5000;0.0912;-0.7059;
451.8000;0.0904;-0.7059;
452.1000;0.0879;-0.7103;
452.4000;0.0798;-0.7324;
452.7000;0.0871;-0.7170;
453.0000;0.0944;-0.6992;
453.3000;0.0895;-0.7103;
453.6000;0.0895;-0.7103;
453.9000;0.0912;-0.7125;
454.2000;0.0814;-0.7280;
454.5000;0.0863;-0.7236;
454.8000;0.0887;-0.7103;
455.1000;0.0855;-0.7280;
455.4000;0.0781;-0.7457;
455.7000;0.0887;-0.7081;
456.0000;0.0928;-0.6926;
456.3000;0.0887;-0.7037;
456.6000;0.0904;-0.7081;
456.9000;0.0887;-0.7059;
457.2000;0.0904;-0.6992;
457.5000;0.0814;-0.7147;
457.8000;0.0895;-0.6992;
458.1000;0.0871;-0.7081;
458.4000;0.0879;-0.7015;
458.7000;0.0879;-0.7037;
459.0000;0.0969;-0.6860;
459.3000;0.0904;-0.6992;
459.6000;0.0871;-0.6948;
459.9000;0.0855;-0.6992;
460.2000;0.0871;-0.6992;
460.5000;0.0798;-0.7192;
460.8000;0.0847;-0.7170;
461.1000;0.0961;-0.6970;
461.4000;0.1026;-0.6860;
461.7000;0.0855;-0.7391;
462.0000;0.0871;-0.7391;
462.3000;0.0806;-0.7524;
462.6000;0.0887;-0.7324;
462.9000;0.0879;-0.7324;
463.2000;0.0790;-0.7501;
463.5000;0.0895;-0.7280;
463.8000;0.0887;-0.7369;
464.1000;0.0887;-0.7280;
464.4000;0.0895;-0.7236;
464.7000;0.0920;-0.7170;
465.0000;0.0879;-0.7192;
465.3000;0.0855;-0.7236;
465.6000;0.0920;-0.7059;
465.9000;0.0887;-0.7103;
466.2000;0.0887;-0.7081;
466.5000;0.0895;-0.7059;
466.8000;0.0879;-0.7147;
467.1000;0.0806;-0.7302;
467.4000;0.0887;-0.7103;
467.7000;0.0871;-0.7081;
468.0000;0.0904;-0.6948;
468.3000;0.0887;-0.6904;
468.6000;0.0895;-0.6815;
468.9000;0.0895;-0.6882;
469.2000;0.0879;-0.6904;
469.5000;0.0887;-0.6904;
469.8000;0.0871;-0.6926;
470.1000;0.0863;-0.6948;
470.4000;0.0855;-0.6926;
470.7000;0.0871;-0.6838;
471.0000;0.0863;-0.6882;
471.3000;0.0887;-0.6904;
471.6000;0.0895;-0.6838;
471.9000;0.0871;-0.6948;
472.2000;0.0863;-0.7037;
472.5000;0.0879;-0.6970;
472.8000;0.0887;-0.6904;
473.1000;0.0871;-0.7037;
473.4000;0.0920;-0.6904;
473.7000;0.0871;-0.7059;
474.0000;0.0757;-0.7302;
474.3000;0.0895;-0.6948;
474.6000;0.0871;-0.6992;
474.9000;0.0863;-0.6948;
475.2000;0.0871;-0.6926;
475.5000;0.0887;-0.6970;
475.8000;0.0855;-0.7059;
476.1000;0.0879;-0.7059;
476.4000;0.0920;-0.6926;
476.7000;0.0895;-0.6926;
477.0000;0.0871;-0.6970;
477.3000;0.0863;-0.6970;
477.6000;0.0879;-0.6948;
477.9000;0.0879;-0.7015;
478.2000;0.0871;-0.7125;
478.5000;0.0887;-0.7015;
478.8000;0.0855;-0.7059;
479.1000;0.0895;-0.6904;
479.4000;0.0871;-0.6948;
479.7000;0.0765;-0.7170;
480.0000;0.0863;-0.7059;
480.3000;0.0871;-0.7147;
480.6000;0.0871;-0.7125;
480.9000;0.0887;-0.7103;
481.2000;0.0879;-0.7081;
481.5000;0.0879;-0.7103;
481.8000;0.0944;-0.6926;
482.1000;0.0895;-0.7103;
482.4000;0.0895;-0.7081;
482.7000;0.1018;-0.6771;
483.0000;0.0863;-0.7192;
483.3000;0.0912;-0.7015;
483.6000;0.0879;-0.7015;
483.9000;0.0895;-0.6970;
484.2000;0.0895;-0.6948;
484.5000;0.0847;-0.7103;
484.8000;0.0830;-0.7192;
485.1000;0.0912;-0.6970;
485.4000;0.0847;-0.7125;
485.7000;0.0838;-0.7103;
486.0000;0.0847;-0.7103;
486.3000;0.0855;-0.7103;
486.6000;0.0993;-0.6705;
486.9000;0.0887;-0.6838;
487.2000;0.0912;-0.6860;
487.5000;0.0814;-0.7147;
487.8000;0.0887;-0.7081;
488.1000;0.0895;-0.7037;
488.4000;0.0847;-0.7103;
488.7000;0.0936;-0.6948;
489.0000;0.0863;-0.7103;
489.3000;0.0887;-0.6948;
489.6000;0.0912;-0.6860;
489.9000;0.0887;-0.6882;
490.2000;0.0904;-0.6904;
490.5000;0.0895;-0.6904;
490.8000;0.0879;-0.6970;
491.1000;0.0879;-0.7015;
491.4000;0.0895;-0.6926;
491.7000;0.0887;-0.6904;
492.0000;0.0904;-0.6904;
492.3000;0.0920;-0.6882;
492.6000;0.0895;-0.6992;
492.9000;0.0895;-0.7015;
493.2000;0.0879;-0.7059;
493.5000;0.0912;-0.6926;
493.8000;0.0879;-0.6992;
494.1000;0.0887;-0.6992;
494.4000;0.0895;-0.7037;
494.7000;0.0887;-0.7037;
495.0000;0.0838;-0.7192;
495.3000;0.0920;-0.6992;
495.6000;0.0838;-0.7170;
495.9000;0.0887;-0.7125;
496.2000;0.0904;-0.7037;
496.5000;0.0887;-0.7081;
496.8000;0.0895;-0.7103;
497.1000;0.0879;-0.7081;
497.4000;0.0895;-0.7103;
497.7000;0.0904;-0.7059;
498.0000;0.0855;-0.7125;
498.3000;0.0879;-0.7103;
498.6000;0.0887;-0.7125;
498.9000;0.0871;-0.7170;
499.2000;0.0887;-0.7214;
499.5000;0.0879;-0.7302;
499.8000;0.0920;-0.7214;
500.1000;0.0904;-0.7147;
500.4000;0.0895;-0.7170;
500.7000;0.0969;-0.7015;
501.0000;0.0904;-0.7170;
501.3000;0.0879;-0.7280;
501.6000;0.0928;-0.7081;
501.9000;0.0887;-0.7192;
502.2000;0.0757;-0.7457;
502.5000;0.0871;-0.7258;
502.8000;0.0904;-0.7103;
503.1000;0.0871;-0.7192;
503.4000;0.0895;-0.7081;
503.7000;0.0855;-0.7125;
504.0000;0.0830;-0.7103;
504.3000;0.0895;-0.6970;
504.6000;0.0887;-0.6926;
504.9000;0.0887;-0.6970;
505.2000;0.0920;-0.6793;
505.5000;0.0863;-0.6860;
505.8000;0.0871;-0.6882;
506.1000;0.0895;-0.6926;
506.4000;0.0887;-0.7081;
506.7000;0.0961;-0.6882;
507.0000;0.0879;-0.6992;
507.3000;0.0887;-0.6926;
507.6000;0.0912;-0.6882;
507.9000;0.0904;-0.6882;
508.2000;0.0879;-0.6926;
508.5000;0.0977;-0.6705;
508.8000;0.0895;-0.6926;
509.1000;0.0912;-0.6904;
509.4000;0.0887;-0.6926;
509.7000;0.0798;-0.7081;
510.0000;0.0879;-0.6926;
510.3000;0.0912;-0.6860;
510.6000;0.0879;-0.6882;
510.9000;0.0895;-0.6948;
511.2000;0.0879;-0.6992;
511.5000;0.0830;-0.7081;
511.8000;0.0855;-0.7015;
512.1000;0.0887;-0.7015;
512.4000;0.0887;-0.6992;
512.7000;0.0912;-0.6926;
513.0000;0.0879;-0.6992;
513.3000;0.0830;-0.7103;
513.6000;0.0944;-0.6815;
513.9000;0.0887;-0.6904;
514.2000;0.0961;-0.6749;
514.5000;0.0879;-0.6882;
514.8000;0.0855;-0.6882;
515.1000;0.0895;-0.6838;
515.4000;0.0879;-0.6926;
515.7000;0.0879;-0.6926;
516.0000;0.0871;-0.6948;
516.3000;0.0879;-0.6926;
516.6000;0.0887;-0.6926;
516.9000;0.0733;-0.7236;
517.2000;0.0863;-0.6970;
517.5000;0.0871;-0.6926;
517.8000;0.0895;-0.6860;
518.1000;0.0871;-0.6838;
518.4000;0.0944;-0.6705;
518.7000;0.0887;-0.6838;
519.0000;0.0855;-0.6948;
519.3000;0.0830;-0.7059;
519.6000;0.0936;-0.6815;
519.9000;0.0765;-0.7258;
520.2000;0.0887;-0.6992;
520.5000;0.0887;-0.6904;
520.8000;0.0814;-0.7103;
521.1000;0.0871;-0.6926;
521.4000;0.0863;-0.6882;
521.7000;0.0895;-0.6860;
522.0000;0.0871;-0.6860;
522.3000;0.0879;-0.6882;
522.6000;0.0814;-0.7037;
522.9000;0.0895;-0.6771;
523.2000;0.0879;-0.6860;
523.5000;0.0871;-0.6838;
523.8000;0.0904;-0.6683;
524.1000;0.0887;-0.6749;
524.4000;0.0887;-0.6793;
524.7000;0.0879;-0.6860;
525.0000;0.0863;-0.6860;
525.3000;0.1050;-0.6417;
525.6000;0.0871;-0.6860;
525.9000;0.0879;-0.6860;
526.2000;0.0871;-0.6882;
526.5000;0.0871;-0.6882;
526.8000;0.0879;-0.6860;
527.1000;0.0879;-0.6948;
527.4000;0.0879;-0.6926;
527.7000;0.0920;-0.6793;
528.0000;0.0920;-0.6838;
528.3000;0.0904;-0.6771;
528.6000;0.0887;-0.6815;
528.9000;0.0904;-0.6771;
529.2000;0.0871;-0.6948;
529.5000;0.0855;-0.7125;
529.8000;0.0895;-0.7037;
530.1000;0.0920;-0.6948;
530.4000;0.0887;-0.6926;
530.7000;0.0863;-0.7015;
531.0000;0.0879;-0.6992;
531.3000;0.0871;-0.7059;
531.6000;0.0887;-0.6992;
531.9000;0.0887;-0.6948;
532.2000;0.0863;-0.7037;
532.5000;0.0895;-0.7059;
532.8000;0.0887;-0.7081;
533.1000;0.0920;-0.7081;
533.4000;0.0879;-0.7192;
533.7000;0.0887;-0.7103;
534.0000;0.0912;-0.7059;
534.3000;0.0928;-0.7103;
534.6000;0.0887;-0.7081;
534.9000;0.0887;-0.7103;
535.2000;0.0871;-0.7125;
535.5000;0.0887;-0.7059;
535.8000;0.0855;-0.7147;
536.1000;0.0863;-0.7192;
536.4000;0.0879;-0.7059;
536.7000;0.0871;-0.7015;
537.0000;0.0904;-0.6948;
537.3000;0.0871;-0.7015;
537.6000;0.0887;-0.6948;
537.9000;0.0887;-0.6882;
538.2000;0.0887;-0.6948;
538.5000;0.0871;-0.6992;
538.8000;0.0871;-0.6948;
539.1000;0.0887;-0.6838;
539.4000;0.0928;-0.6771;
539.7000;0.0920;-0.6793;
540.0000;0.0855;-0.6882;
540.3000;0.0887;-0.6727;
540.6000;0.0879;-0.6771;
540.9000;0.0912;-0.6838;
541.2000;0.0887;-0.6882;
541.5000;0.0855;-0.6970;
541.8000;0.1066;-0.6572;
542.1000;0.0871;-0.7037;
542.4000;0.0871;-0.7081;
542.7000;0.0887;-0.7015;
543.0000;0.0879;-0.6992;
543.3000;0.0887;-0.6948;
543.6000;0.0879;-0.6860;
543.9000;0.0944;-0.6705;
544.2000;0.0879;-0.6838;
544.5000;0.0928;-0.6683;
544.8000;0.0879;-0.6771;
545.1000;0.0871;-0.6860;
545.4000;0.0879;-0.6838;
545.7000;0.0952;-0.6616;
546.0000;0.0871;-0.6749;
546.3000;0.0863;-0.6882;
546.6000;0.0904;-0.6838;
546.9000;0.0895;-0.6860;
547.2000;0.0904;-0.6793;
547.5000;0.0936;-0.6683;
547.8000;0.0895;-0.6860;
548.1000;0.0879;-0.6882;
548.4000;0.0895;-0.6904;
548.7000;0.0871;-0.6904;
549.0000;0.0912;-0.6815;
549.3000;0.0879;-0.6904;
549.6000;0.0887;-0.6948;
549.9000;0.0863;-0.7037;
550.2000;0.0871;-0.6948;
550.5000;0.0847;-0.6882;
550.8000;0.0871;-0.6882;
551.1000;0.0879;-0.6992;
551.4000;0.0773;-0.7391;
551.7000;0.0879;-0.7214;
552.0000;0.0895;-0.7192;
552.3000;0.0879;-0.7192;
552.6000;0.0757;-0.7501;
552.9000;0.0879;-0.7214;
553.2000;0.0855;-0.7147;
553.5000;0.0879;-0.7192;
553.8000;0.0863;-0.7192;
554.1000;0.0887;-0.7103;
554.4000;0.0895;-0.7059;
554.7000;0.0871;-0.7103;
555.0000;0.0887;-0.7081;
555.3000;0.0830;-0.7147;
555.6000;0.0904;-0.6926;
555.9000;0.0871;-0.7037;
556.2000;0.0895;-0.7059;
556.5000;0.0879;-0.7170;
556.8000;0.0879;-0.7081;
557.1000;0.0904;-0.7081;
557.4000;0.0855;-0.7214;
557.7000;0.0855;-0.7391;
558.0000;0.0887;-0.7280;
558.3000;0.0895;-0.7170;
558.6000;0.0904;-0.7037;
558.9000;0.0871;-0.6992;
559.2000;0.0879;-0.6970;
559.5000;0.0904;-0.6926;
559.8000;0.0895;-0.6948;
560.1000;0.0879;-0.6948;
560.4000;0.0871;-0.6904;
560.7000;0.0879;-0.6771;
561.0000;0.0879;-0.6815;
561.3000;0.0904;-0.6793;
561.6000;0.0879;-0.6815;
561.9000;0.0847;-0.6793;
562.2000;0.0887;-0.6793;
562.5000;0.0855;-0.6860;
562.8000;0.0855;-0.6838;
563.1000;0.0863;-0.6860;
563.4000;0.0879;-0.6815;
563.7000;0.0887;-0.6815;
564.0000;0.0871;-0.6793;
564.3000;0.0838;-0.6926;
564.6000;0.0855;-0.6793;
564.9000;0.0871;-0.6749;
565.2000;0.0887;-0.6683;
565.5000;0.0871;-0.6705;
565.8000;0.0871;-0.6705;
566.1000;0.0847;-0.6705;
566.4000;0.0871;-0.6705;
566.7000;0.0871;-0.6661;
567.0000;0.0879;-0.6727;
567.3000;0.0895;-0.6771;
567.6000;0.0855;-0.6926;
567.9000;0.0895;-0.6860;
568.2000;0.0904;-0.6749;
568.5000;0.0952;-0.6616;
568.8000;0.0887;-0.6705;
569.1000;0.0895;-0.6705;
569.4000;0.0912;-0.6749;
569.7000;0.0879;-0.6793;
570.0000;0.0895;-0.6727;
570.3000;0.0879;-0.6815;
570.6000;0.0847;-0.6882;
570.9000;0.0887;-0.6838;
571.2000;0.0895;-0.6838;
571.5000;0.0887;-0.6749;
571.8000;0.0879;-0.6815;
572.1000;0.0879;-0.6838;
572.4000;0.0847;-0.6904;
572.7000;0.0887;-0.6904;
573.0000;0.0895;-0.6882;
573.3000;0.0879;-0.6815;
573.6000;0.1018;-0.6506;
573.9000;0.0895;-0.6793;
574.2000;0.0871;-0.6882;
574.5000;0.0757;-0.7170;
574.8000;0.0879;-0.6948;
575.1000;0.0879;-0.6860;
575.4000;0.0879;-0.6815;
575.7000;0.0895;-0.6727;
576.0000;0.0855;-0.6815;
576.3000;0.0871;-0.6793;
576.6000;0.0863;-0.6771;
576.9000;0.0871;-0.6749;
577.2000;0.0887;-0.6793;
577.5000;0.0887;-0.6926;
577.8000;0.0847;-0.6992;
578.1000;0.0879;-0.6970;
578.4000;0.0879;-0.6904;
578.7000;0.0879;-0.6904;
579.0000;0.0879;-0.6970;
579.3000;0.0904;-0.6970;
579.6000;0.0895;-0.6992;
579.9000;0.0830;-0.7037;
580.2000;0.0887;-0.6948;
580.5000;0.0887;-0.6793;
580.8000;0.0863;-0.6815;
581.1000;0.0871;-0.6749;
581.4000;0.0895;-0.6749;
581.7000;0.0895;-0.6860;
582.0000;0.0855;-0.6948;
582.3000;0.0871;-0.6970;
582.6000;0.0887;-0.6948;
582.9000;0.0879;-0.6992;
583.2000;0.0887;-0.6970;
583.5000;0.0863;-0.7015;
583.8000;0.0879;-0.6992;
584.1000;0.0879;-0.7037;
584.4000;0.0863;-0.7037;
584.7000;0.0879;-0.6926;
585.0000;0.0904;-0.6882;
585.3000;0.0724;-0.7302;
585.6000;0.0887;-0.6860;
585.9000;0.0863;-0.6926;
586.2000;0.0863;-0.6948;
586.5000;0.0847;-0.7015;
586.8000;0.0879;-0.6904;
587.1000;0.0871;-0.6815;
587.4000;0.0879;-0.6727;
587.7000;0.0879;-0.6727;
588.0000;0.0871;-0.6771;
588.3000;0.0733;-0.7125;
588.6000;0.0904;-0.6727;
588.9000;0.0928;-0.6661;
589.2000;0.0879;-0.6749;
589.5000;0.0895;-0.6771;
589.8000;0.0887;-0.6860;
590.1000;0.0895;-0.6815;
590.4000;0.0887;-0.6838;
590.7000;0.0724;-0.7369;
591.0000;0.0944;-0.6838;
591.3000;0.0855;-0.7081;
591.6000;0.0904;-0.6948;
591.9000;0.0847;-0.7170;
592.2000;0.0904;-0.7059;
592.5000;0.0904;-0.7081;
592.8000;0.0920;-0.7081;
593.1000;0.0879;-0.7125;
593.4000;0.0822;-0.7280;
593.7000;0.0879;-0.7103;
594.0000;0.0887;-0.6948;
594.3000;0.0879;-0.6970;
594.6000;0.0871;-0.6948;
594.9000;0.0863;-0.6948;
595.2000;0.0879;-0.6992;
595.5000;0.0944;-0.6793;
595.8000;0.0863;-0.6992;
596.1000;0.0871;-0.7081;
596.4000;0.0871;-0.7059;
596.7000;0.0863;-0.7125;
597.0000;0.0863;-0.7214;
597.3000;0.0887;-0.7125;
597.6000;0.0773;-0.7413;
597.9000;0.0822;-0.7214;
598.2000;0.0814;-0.7236;
598.5000;0.0716;-0.7413;
598.8000;0.0895;-0.7059;
599.1000;0.0879;-0.7147;
599.4000;0.0855;-0.7214;
599.7000;0.0879;-0.7125;
600.0000;0.0863;-0.7147;
600.3000;0.0814;-0.7324;
600.6000;0.0863;-0.7192;
600.9000;0.0822;-0.7347;
601.2000;0.0871;-0.7125;
601.5000;0.0830;-0.7280;
601.8000;0.0879;-0.7192;
602.1000;0.0838;-0.7413;
602.4000;0.0879;-0.7369;
602.7000;0.0879;-0.7413;
603.0000;0.0847;-0.7568;
603.3000;0.0855;-0.7524;
603.6000;0.0814;-0.7590;
603.9000;0.0830;-0.7656;
604.2000;0.0847;-0.7612;
604.5000;0.0855;-0.7656;
604.8000;0.0830;-0.7678;
605.1000;0.0822;-0.7767;
605.4000;0.0822;-0.7900;
605.7000;0.0822;-0.7811;
606.0000;0.0806;-0.7811;
606.3000;0.0830;-0.7767;
606.6000;0.0855;-0.7745;
606.9000;0.0838;-0.7789;
607.2000;0.0611;-0.8387;
607.5000;0.0790;-0.8055;
607.8000;0.0822;-0.8077;
608.1000;0.0798;-0.8143;
608.4000;0.0798;-0.8165;
608.7000;0.0895;-0.7922;
609.0000;0.0773;-0.8055;
609.3000;0.0855;-0.7833;
609.6000;0.0798;-0.8033;
609.9000;0.0798;-0.8077;
610.2000;0.0847;-0.7966;
610.5000;0.0798;-0.8033;
610.8000;0.0773;-0.8121;
611.1000;0.0790;-0.8010;
611.4000;0.0749;-0.8055;
611.7000;0.0781;-0.8055;
612.0000;0.0781;-0.8077;
612.3000;0.0765;-0.8055;
612.6000;0.0806;-0.7922;
612.9000;0.0781;-0.7944;
613.2000;0.0765;-0.7988;
613.5000;0.0773;-0.8010;
613.8000;0.0724;-0.8121;
614.1000;0.0838;-0.7878;
614.4000;0.0814;-0.7900;
614.7000;0.0765;-0.8010;
615.0000;0.0781;-0.8010;
615.3000;0.0708;-0.8187;
615.6000;0.0847;-0.7900;
615.9000;0.0749;-0.8143;
616.2000;0.0790;-0.8077;
616.5000;0.0806;-0.8033;
616.8000;0.0602;-0.8475;
617.1000;0.0651;-0.8431;
617.4000;0.0757;-0.8099;
617.7000;0.0773;-0.8099;
618.0000;0.0757;-0.8276;
618.3000;0.0790;-0.8210;
618.6000;0.0781;-0.8121;
618.9000;0.0757;-0.8077;
619.2000;0.0749;-0.8165;
619.5000;0.0822;-0.8055;
619.8000;0.0765;-0.8165;
620.1000;0.0749;-0.8254;
620.4000;0.0676;-0.8409;
620.7000;0.0781;-0.8298;
621.0000;0.0765;-0.8387;
621.3000;0.0765;-0.8364;
621.6000;0.0724;-0.8519;
621.9000;0.0749;-0.8342;
622.2000;0.0806;-0.8232;
622.5000;0.0724;-0.8364;
622.8000;0.0757;-0.8210;
623.1000;0.0667;-0.8519;
623.4000;0.0838;-0.8121;
623.7000;0.0757;-0.8364;
624.0000;0.0765;-0.8276;
624.3000;0.0765;-0.8320;
624.6000;0.0757;-0.8364;
624.9000;0.0757;-0.8276;
625.2000;0.0741;-0.8254;
625.5000;0.0790;-0.8121;
625.8000;0.0708;-0.8276;
626.1000;0.0749;-0.8298;
626.4000;0.0757;-0.8276;
626.7000;0.0741;-0.8320;
627.0000;0.0765;-0.8276;
627.3000;0.0733;-0.8387;
627.6000;0.0749;-0.8320;
627.9000;0.0790;-0.8121;
628.2000;0.0806;-0.8055;
628.5000;0.0781;-0.8121;
628.8000;0.0765;-0.8187;
629.1000;0.0765;-0.8210;
629.4000;0.0757;-0.8254;
629.7000;0.0708;-0.8364;
630.0000;0.0814;-0.8121;
630.3000;0.0757;-0.8254;
630.6000;0.0773;-0.8165;
630.9000;0.0749;-0.8210;
631.2000;0.0765;-0.8232;
631.5000;0.0757;-0.8165;
631.8000;0.0749;-0.8099;
632.1000;0.0790;-0.8010;
632.4000;0.0733;-0.8099;
632.7000;0.0765;-0.7988;
633.0000;0.0765;-0.7966;
633.3000;0.0757;-0.8055;
633.6000;0.0798;-0.7944;
633.9000;0.0684;-0.8254;
634.2000;0.0765;-0.8055;
634.5000;0.0757;-0.8099;
634.8000;0.0798;-0.8055;
635.1000;0.0765;-0.8232;
635.4000;0.0749;-0.8387;
635.7000;0.0733;-0.8475;
636.0000;0.0773;-0.8342;
636.3000;0.0708;-0.8497;
636.6000;0.0716;-0.8541;
636.9000;0.0806;-0.8232;
637.2000;0.0765;-0.8276;
637.5000;0.0749;-0.8387;
637.8000;0.0700;-0.8364;
638.1000;0.0749;-0.8232;
638.4000;0.0716;-0.8298;
638.7000;0.0749;-0.8298;
639.0000;0.0741;-0.8276;
639.3000;0.0749;-0.8320;
639.6000;0.0757;-0.8254;
639.9000;0.0757;-0.8276;
640.2000;0.0749;-0.8364;
640.5000;0.0700;-0.8475;
640.8000;0.0806;-0.8232;
641.1000;0.0733;-0.8364;
641.4000;0.0773;-0.8298;
641.7000;0.0749;-0.8342;
642.0000;0.0741;-0.8298;
642.3000;0.0822;-0.8055;
642.6000;0.0773;-0.8143;
642.9000;0.0741;-0.8254;
643.2000;0.0765;-0.8254;
643.5000;0.0741;-0.8342;
643.8000;0.0749;-0.8320;
644.1000;0.0749;-0.8320;
644.4000;0.0741;-0.8320;
644.7000;0.0741;-0.8409;
645.0000;0.0741;-0.8320;
645.3000;0.0749;-0.8187;
645.6000;0.0741;-0.8254;
645.9000;0.0741;-0.8298;
646.2000;0.0765;-0.8143;
646.5000;0.0781;-0.8165;
646.8000;0.0757;-0.8254;
647.1000;0.0757;-0.8254;
647.4000;0.0733;-0.8342;
647.7000;0.0781;-0.8187;
648.0000;0.0749;-0.8165;
648.3000;0.0692;-0.8320;
648.6000;0.0716;-0.8232;
648.9000;0.0733;-0.8210;
649.2000;0.0749;-0.8187;
649.5000;0.0733;-0.8320;
649.8000;0.0733;-0.8298;
650.1000;0.0741;-0.8276;
650.4000;0.0733;-0.8364;
650.7000;0.0781;-0.8298;
651.0000;0.0765;-0.8342;
651.3000;0.0684;-0.8497;
651.6000;0.0741;-0.8320;
651.9000;0.0741;-0.8320;
652.2000;0.0586;-0.8652;
652.5000;0.0749;-0.8276;
652.8000;0.0700;-0.8254;
653.1000;0.0724;-0.8165;
653.4000;0.0708;-0.8276;
653.7000;0.0692;-0.8298;
654.0000;0.0765;-0.8055;
654.3000;0.0741;-0.8099;
654.6000;0.0773;-0.8077;
654.9000;0.0724;-0.8187;
655.2000;0.0716;-0.8254;
655.5000;0.0741;-0.8232;
655.8000;0.0741;-0.8254;
656.1000;0.0733;-0.8276;
656.4000;0.0724;-0.8276;
656.7000;0.0741;-0.8165;
657.0000;0.0741;-0.8143;
657.3000;0.0700;-0.8254;
657.6000;0.0741;-0.8232;
657.9000;0.0749;-0.8121;
658.2000;0.0708;-0.8232;
658.5000;0.0733;-0.8187;
658.8000;0.0773;-0.8010;
659.1000;0.0765;-0.8055;
659.4000;0.0724;-0.8099;
659.7000;0.0749;-0.8143;
660.0000;0.0790;-0.8077;
660.3000;0.0749;-0.8210;
660.6000;0.0724;-0.8276;
660.9000;0.0733;-0.8187;
661.2000;0.0733;-0.8165;
661.5000;0.0724;-0.8210;
661.8000;0.0798;-0.8010;
662.1000;0.0741;-0.8077;
662.4000;0.0716;-0.8010;
662.7000;0.0733;-0.7900;
663.0000;0.0692;-0.7988;
663.3000;0.0724;-0.7944;
663.6000;0.0749;-0.7922;
663.9000;0.0749;-0.8033;
664.2000;0.0814;-0.7900;
664.5000;0.0749;-0.8055;
664.8000;0.0708;-0.8077;
665.1000;0.0871;-0.7701;
665.4000;0.0700;-0.8010;
665.7000;0.0716;-0.8033;
666.0000;0.0798;-0.7811;
666.3000;0.0757;-0.7855;
666.6000;0.0724;-0.7811;
666.9000;0.0749;-0.7855;
667.2000;0.0765;-0.7922;
667.5000;0.0749;-0.7900;
667.8000;0.0733;-0.7966;
668.1000;0.0724;-0.8055;
668.4000;0.0757;-0.7966;
668.7000;0.0716;-0.8099;
669.0000;0.0749;-0.8033;
669.3000;0.0733;-0.8099;
669.6000;0.0798;-0.7922;
669.9000;0.0749;-0.7966;
670.2000;0.0716;-0.7966;
670.5000;0.0700;-0.8033;
670.8000;0.0708;-0.8010;
671.1000;0.0757;-0.7944;
671.4000;0.0724;-0.8033;
671.7000;0.0741;-0.7944;
672.0000;0.0708;-0.8055;
672.3000;0.0749;-0.7966;
672.6000;0.0724;-0.7988;
672.9000;0.0741;-0.7966;
673.2000;0.0684;-0.8121;
673.5000;0.0692;-0.8010;
673.8000;0.0733;-0.7855;
674.1000;0.0741;-0.7855;
674.4000;0.0741;-0.7855;
674.7000;0.0676;-0.7966;
675.0000;0.0724;-0.7944;
675.3000;0.0912;-0.7612;
675.6000;0.0741;-0.8077;
675.9000;0.0733;-0.8077;
676.2000;0.0692;-0.8055;
676.5000;0.0733;-0.7900;
676.8000;0.0781;-0.7767;
677.1000;0.0773;-0.7833;
677.4000;0.0765;-0.7922;
677.7000;0.0806;-0.7878;
678.0000;0.0708;-0.8254;
678.3000;0.0741;-0.8187;
678.6000;0.0741;-0.8187;
678.9000;0.0798;-0.8033;
679.2000;0.0716;-0.8254;
679.5000;0.0757;-0.8165;
679.8000;0.0733;-0.8232;
680.1000;0.0749;-0.8210;
680.4000;0.0724;-0.8254;
680.7000;0.0733;-0.8254;
681.0000;0.0741;-0.8210;
681.3000;0.0757;-0.8232;
681.6000;0.0733;-0.8210;
681.9000;0.0724;-0.8210;
682.2000;0.0700;-0.8276;
682.5000;0.0724;-0.8210;
682.8000;0.0733;-0.8210;
683.1000;0.0724;-0.8143;
683.4000;0.0733;-0.8121;
683.7000;0.0741;-0.8187;
684.0000;0.0724;-0.8187;
684.3000;0.0757;-0.8165;
684.6000;0.0773;-0.8121;
684.9000;0.0684;-0.8364;
685.2000;0.0757;-0.8232;
685.5000;0.0724;-0.8320;
685.8000;0.0716;-0.8342;
686.1000;0.0733;-0.8298;
686.4000;0.0757;-0.8187;
686.7000;0.0733;-0.8254;
687.0000;0.0700;-0.8364;
687.3000;0.0635;-0.8519;
687.6000;0.0749;-0.8099;
687.9000;0.0741;-0.8077;
688.2000;0.0855;-0.7767;
688.5000;0.0765;-0.7988;
688.8000;0.0733;-0.8187;
689.1000;0.0749;-0.8187;
689.4000;0.0724;-0.8342;
689.7000;0.0749;-0.8165;
690.0000;0.0708;-0.8364;
690.3000;0.0749;-0.8342;
690.6000;0.0692;-0.8564;
690.9000;0.0741;-0.8387;
691.2000;0.0724;-0.8497;
691.5000;0.0757;-0.8475;
691.8000;0.0733;-0.8431;
692.1000;0.0716;-0.8541;
692.4000;0.0749;-0.8431;
692.7000;0.0741;-0.8387;
693.0000;0.0749;-0.8475;
693.3000;0.0749;-0.8519;
693.6000;0.0692;-0.8630;
693.9000;0.0733;-0.8519;
694.2000;0.0749;-0.8541;
694.5000;0.0733;-0.8541;
694.8000;0.0733;-0.8453;
695.1000;0.0733;-0.8519;
695.4000;0.0700;-0.8608;
695.7000;0.0741;-0.8564;
696.0000;0.0716;-0.8608;
696.3000;0.0700;-0.8630;
696.6000;0.0749;-0.8519;
696.9000;0.0757;-0.8431;
697.2000;0.0692;-0.8409;
697.5000;0.0676;-0.8519;
697.8000;0.0741;-0.8387;
698.1000;0.0733;-0.8431;
698.4000;0.0741;-0.8431;
698.7000;0.0724;-0.8541;
699.0000;0.0741;-0.8453;
699.3000;0.0733;-0.8387;
699.6000;0.0741;-0.8320;
699.9000;0.0586;-0.8674;
700.2000;0.0733;-0.8320;
700.5000;0.0741;-0.8364;
700.8000;0.0708;-0.8475;
701.1000;0.0733;-0.8387;
701.4000;0.0708;-0.8387;
701.7000;0.0741;-0.8320;
702.0000;0.0733;-0.8298;
702.3000;0.0733;-0.8409;
702.6000;0.0684;-0.8475;
702.9000;0.0724;-0.8364;
703.2000;0.0790;-0.8254;
703.5000;0.0724;-0.8364;
703.8000;0.0700;-0.8453;
704.1000;0.0733;-0.8453;
704.4000;0.0716;-0.8519;
704.7000;0.0749;-0.8453;
705.0000;0.0716;-0.8453;
705.3000;0.0741;-0.8320;
705.6000;0.0684;-0.8475;
705.9000;0.0814;-0.8143;
706.2000;0.0790;-0.8232;
706.5000;0.0700;-0.8431;
706.8000;0.0798;-0.8276;
707.1000;0.0741;-0.8475;
707.4000;0.0749;-0.8342;
707.7000;0.0741;-0.8409;
708.0000;0.0773;-0.8320;
708.3000;0.0724;-0.8431;
708.6000;0.0871;-0.8055;
708.9000;0.0651;-0.8652;
709.2000;0.0741;-0.8387;
709.5000;0.0830;-0.8121;
709.8000;0.0733;-0.8232;
710.1000;0.0741;-0.8210;
710.4000;0.0773;-0.8121;
710.7000;0.0741;-0.8210;
711.0000;0.0733;-0.8276;
711.3000;0.0781;-0.8077;
711.6000;0.0741;-0.8165;
711.9000;0.0724;-0.8055;
712.2000;0.0798;-0.7922;
712.5000;0.0716;-0.8143;
712.8000;0.0692;-0.8210;
713.1000;0.0733;-0.8099;
713.4000;0.0757;-0.8099;
713.7000;0.0757;-0.8033;
714.0000;0.0708;-0.8121;
714.3000;0.0733;-0.8010;
714.6000;0.0798;-0.7833;
714.9000;0.0733;-0.7944;
715.2000;0.0724;-0.7966;
715.5000;0.0716;-0.8010;
715.8000;0.0716;-0.8077;
716.1000;0.0692;-0.8187;
716.4000;0.0635;-0.8298;
716.7000;0.0749;-0.8010;
717.0000;0.0667;-0.8165;
717.3000;0.0724;-0.8033;
717.6000;0.0700;-0.8143;
717.9000;0.0757;-0.8121;
718.2000;0.0757;-0.8165;
718.5000;0.0741;-0.8121;
718.8000;0.0716;-0.8121;
719.1000;0.0708;-0.8143;
719.4000;0.0708;-0.8143;
719.7000;0.0733;-0.8121;
720.0000;0.0724;-0.8165;
720.3000;0.0724;-0.8187;
720.6000;0.0733;-0.8143;
720.9000;0.0733;-0.8165;
721.2000;0.0724;-0.8121;
721.5000;0.0716;-0.8099;
721.8000;0.0724;-0.8055;
722.1000;0.0733;-0.8033;
722.4000;0.0708;-0.8077;
722.7000;0.0724;-0.8143;
723.0000;0.0741;-0.8121;
723.3000;0.0749;-0.8121;
723.6000;0.0578;-0.8497;
723.9000;0.0855;-0.7878;
724.2000;0.0724;-0.8143;
724.5000;0.0741;-0.8121;
724.8000;0.0741;-0.8143;
725.1000;0.0724;-0.8210;
725.4000;0.0749;-0.8165;
725.7000;0.0741;-0.8143;
726.0000;0.0724;-0.8055;
726.3000;0.0692;-0.8187;
726.6000;0.0716;-0.8099;
726.9000;0.0733;-0.8033;
727.2000;0.0798;-0.7922;
727.5000;0.0724;-0.8121;
727.8000;0.0700;-0.8143;
728.1000;0.0716;-0.8099;
728.4000;0.0757;-0.8099;
728.7000;0.0741;-0.8143;
729.0000;0.0781;-0.8055;
729.3000;0.0578;-0.8431;
729.6000;0.0830;-0.7833;
729.9000;0.0627;-0.8187;
730.2000;0.0570;-0.8387;
730.5000;0.0733;-0.8010;
730.8000;0.0822;-0.7767;
731.1000;0.0708;-0.8033;
731.4000;0.0741;-0.8033;
731.7000;0.0790;-0.7944;
732.0000;0.0716;-0.8143;
732.3000;0.0749;-0.8077;
732.6000;0.0749;-0.8099;
732.9000;0.0708;-0.8143;
733.2000;0.0724;-0.8143;
733.5000;0.0724;-0.8232;
733.8000;0.0708;-0.8254;
734.1000;0.0724;-0.8232;
734.4000;0.0741;-0.8254;
734.7000;0.0765;-0.8143;
735.0000;0.0741;-0.8165;
735.3000;0.0716;-0.8210;
735.6000;0.0716;-0.8276;
735.9000;0.0716;-0.8276;
736.2000;0.0741;-0.8254;
736.5000;0.0667;-0.8387;
736.8000;0.0716;-0.8276;
737.1000;0.0733;-0.8276;
737.4000;0.0733;-0.8232;
737.7000;0.0716;-0.8298;
738.0000;0.0741;-0.8165;
738.3000;0.0765;-0.8077;
738.6000;0.0741;-0.8187;
738.9000;0.0724;-0.8143;
739.2000;0.0724;-0.8077;
739.5000;0.0741;-0.7966;
739.8000;0.0733;-0.7922;
740.1000;0.0733;-0.7966;
740.4000;0.0733;-0.7944;
740.7000;0.0724;-0.7944;
741.0000;0.0733;-0.7878;
741.3000;0.0708;-0.7900;
741.6000;0.0749;-0.7900;
741.9000;0.0716;-0.7944;
742.2000;0.0684;-0.8077;
742.5000;0.0708;-0.8099;
742.8000;0.0700;-0.8099;
743.1000;0.0733;-0.8033;
743.4000;0.0757;-0.7988;
743.7000;0.0659;-0.8165;
744.0000;0.0716;-0.8055;
744.3000;0.0716;-0.8077;
744.6000;0.0741;-0.8033;
744.9000;0.0733;-0.8077;
745.2000;0.0724;-0.7988;
745.5000;0.0716;-0.8077;
745.8000;0.0733;-0.8055;
746.1000;0.0708;-0.8143;
746.4000;0.0716;-0.8143;
746.7000;0.0716;-0.8121;
747.0000;0.0716;-0.8143;
747.3000;0.0716;-0.8143;
747.6000;0.0684;-0.8232;
747.9000;0.0814;-0.7900;
748.2000;0.0716;-0.8165;
748.5000;0.0651;-0.8320;
748.8000;0.0741;-0.8165;
749.1000;0.0741;-0.8210;
749.4000;0.0741;-0.8298;
749.7000;0.0741;-0.8276;
750.0000;0.0781;-0.8276;
750.3000;0.0659;-0.8519;
750.6000;0.0700;-0.8431;
750.9000;0.0781;-0.8099;
751.2000;0.0676;-0.8320;
751.5000;0.0700;-0.8143;
751.8000;0.0667;-0.8232;
752.1000;0.0716;-0.8165;
752.4000;0.0749;-0.7944;
752.7000;0.0708;-0.7988;
753.0000;0.0733;-0.7922;
753.3000;0.0814;-0.7767;
753.6000;0.0716;-0.7988;
753.9000;0.0733;-0.7922;
754.2000;0.0733;-0.8010;
754.5000;0.0708;-0.8010;
754.8000;0.0790;-0.7811;
755.1000;0.0627;-0.8143;
755.4000;0.0741;-0.7833;
755.7000;0.0667;-0.8077;
756.0000;0.0700;-0.8121;
756.3000;0.0716;-0.8055;
756.6000;0.0749;-0.8010;
756.9000;0.0749;-0.7988;
757.2000;0.0765;-0.7966;
757.5000;0.0830;-0.7789;
757.8000;0.0733;-0.7966;
758.1000;0.0724;-0.7988;
758.4000;0.0716;-0.7966;
758.7000;0.0765;-0.7855;
759.0000;0.0684;-0.8055;
759.3000;0.0724;-0.7988;
759.6000;0.0700;-0.7988;
759.9000;0.0716;-0.7922;
760.2000;0.0724;-0.7988;
760.5000;0.0716;-0.8033;
760.8000;0.0733;-0.8033;
761.1000;0.0741;-0.7922;
761.4000;0.0733;-0.7900;
761.7000;0.0741;-0.7922;
762.0000;0.0684;-0.8055;
762.3000;0.0749;-0.7966;
762.6000;0.0757;-0.7944;
762.9000;0.0708;-0.7966;
763.2000;0.0733;-0.7944;
763.5000;0.0733;-0.7944;
763.8000;0.0676;-0.8121;
764.1000;0.0724;-0.8077;
764.4000;0.0716;-0.8077;
764.7000;0.0733;-0.8055;
765.0000;0.0724;-0.8055;
765.3000;0.0708;-0.8033;
765.6000;0.0741;-0.7966;
765.9000;0.0733;-0.7988;
766.2000;0.0724;-0.8033;
766.5000;0.0757;-0.8010;
766.8000;0.0716;-0.8033;
767.1000;0.0700;-0.8033;
767.4000;0.0757;-0.7966;
767.7000;0.0855;-0.7767;
768.0000;0.0716;-0.8165;
768.3000;0.0724;-0.8143;
768.6000;0.0757;-0.8055;
768.9000;0.0757;-0.8055;
769.2000;0.0765;-0.7966;
769.5000;0.0692;-0.8033;
769.8000;0.0708;-0.7988;
770.1000;0.0733;-0.7900;
770.4000;0.0724;-0.7922;
770.7000;0.0659;-0.8099;
771.0000;0.0643;-0.8232;
771.3000;0.0651;-0.8298;
771.6000;0.0765;-0.7944;
771.9000;0.0806;-0.7944;
772.2000;0.0724;-0.8187;
772.5000;0.0716;-0.8210;
772.8000;0.0724;-0.8077;
773.1000;0.0765;-0.7922;
773.4000;0.0676;-0.8143;
773.7000;0.0684;-0.8010;
774.0000;0.0692;-0.7988;
774.3000;0.0741;-0.7855;
774.6000;0.0733;-0.7833;
774.9000;0.0733;-0.7878;
775.2000;0.0724;-0.7966;
775.5000;0.0716;-0.7944;
775.8000;0.0773;-0.7811;
776.1000;0.0716;-0.7878;
776.4000;0.0684;-0.7900;
776.7000;0.0716;-0.7900;
777.0000;0.0724;-0.7878;
777.3000;0.0757;-0.7811;
777.6000;0.0733;-0.7878;
777.9000;0.0790;-0.7767;
778.2000;0.0741;-0.7922;
778.5000;0.0733;-0.7900;
778.8000;0.0724;-0.8055;
779.1000;0.0733;-0.7988;
779.4000;0.0724;-0.7988;
779.7000;0.0733;-0.7966;
780.0000;0.0749;-0.7966;
780.3000;0.0619;-0.8320;
780.6000;0.0700;-0.8099;
780.9000;0.0749;-0.8010;
781.2000;0.0708;-0.8055;
781.5000;0.0700;-0.8143;
781.8000;0.0716;-0.8121;
782.1000;0.0733;-0.8165;
782.4000;0.0724;-0.8099;
782.7000;0.0716;-0.8077;
783.0000;0.0716;-0.8099;
783.3000;0.0733;-0.8121;
783.6000;0.0822;-0.7966;
783.9000;0.0716;-0.8254;
784.2000;0.0749;-0.8121;
784.5000;0.0708;-0.8165;
784.8000;0.0716;-0.8143;
785.1000;0.0724;-0.8077;
785.4000;0.0814;-0.7811;
785.7000;0.0724;-0.7922;
786.0000;0.0708;-0.8010;
786.3000;0.0708;-0.7966;
786.6000;0.0806;-0.7701;
786.9000;0.0733;-0.7966;
787.2000;0.0724;-0.7988;
787.5000;0.0724;-0.7966;
787.8000;0.0716;-0.7988;
788.1000;0.0724;-0.7966;
788.4000;0.0700;-0.8077;
788.7000;0.0708;-0.7988;
789.0000;0.0724;-0.8010;
789.3000;0.0724;-0.7988;
789.6000;0.0741;-0.7966;
789.9000;0.0724;-0.7966;
790.2000;0.0716;-0.8033;
790.5000;0.0741;-0.7966;
790.8000;0.0741;-0.7944;
791.1000;0.0724;-0.8033;
791.4000;0.0733;-0.8033;
791.7000;0.0700;-0.8121;
792.0000;0.0733;-0.8033;
792.3000;0.0733;-0.8010;
792.6000;0.0724;-0.8099;
792.9000;0.0716;-0.8055;
793.2000;0.0724;-0.7922;
793.5000;0.0708;-0.8077;
793.8000;0.0676;-0.8232;
794.1000;0.0716;-0.8210;
794.4000;0.0708;-0.8187;
794.7000;0.0724;-0.8121;
795.0000;0.0692;-0.8210;
795.3000;0.0741;-0.8055;
795.6000;0.0716;-0.8143;
795.9000;0.0733;-0.8121;
796.2000;0.0724;-0.8143;
796.5000;0.0733;-0.8165;
796.8000;0.0733;-0.8143;
797.1000;0.0765;-0.8010;
797.4000;0.0724;-0.8077;
797.7000;0.0700;-0.8187;
798.0000;0.0757;-0.8055;
798.3000;0.0708;-0.8232;
798.6000;0.0741;-0.8232;
798.9000;0.0724;-0.8298;
799.2000;0.0733;-0.8320;
799.5000;0.0741;-0.8298;
799.8000;0.0741;-0.8276;
800.1000;0.0716;-0.8276;
800.4000;0.0676;-0.8475;
800.7000;0.0757;-0.8143;
801.0000;0.0700;-0.8276;
801.3000;0.0716;-0.8276;
801.6000;0.0724;-0.8232;
801.9000;0.0708;-0.8254;
802.2000;0.0724;-0.8187;
802.5000;0.0684;-0.8276;
802.8000;0.0716;-0.8187;
803.1000;0.0733;-0.8276;
803.4000;0.0765;-0.8276;
803.7000;0.0741;-0.8298;
804.0000;0.0635;-0.8586;
804.3000;0.0708;-0.8320;
804.6000;0.0733;-0.8276;
804.9000;0.0724;-0.8210;
805.2000;0.0708;-0.8232;
805.5000;0.0700;-0.8254;
805.8000;0.0733;-0.8210;
806.1000;0.0716;-0.8210;
806.4000;0.0765;-0.8165;
806.7000;0.0741;-0.8232;
807.0000;0.0733;-0.8232;
807.3000;0.0724;-0.8143;
807.6000;0.0724;-0.8033;
807.9000;0.0724;-0.8077;
808.2000;0.0733;-0.8077;
808.5000;0.0700;-0.8165;
808.8000;0.0741;-0.8143;
809.1000;0.0741;-0.8121;
809.4000;0.0765;-0.7900;
809.7000;0.0733;-0.7966;
810.0000;0.0733;-0.8010;
810.3000;0.0733;-0.8010;
810.6000;0.0733;-0.8099;
810.9000;0.0724;-0.8077;
811.2000;0.0724;-0.8099;
811.5000;0.0716;-0.8165;
811.8000;0.0814;-0.7900;
812.1000;0.0773;-0.8010;
812.4000;0.0741;-0.8121;
812.7000;0.0741;-0.8165;
813.0000;0.0741;-0.8210;
813.3000;0.0757;-0.8210;
813.6000;0.0733;-0.8232;
813.9000;0.0716;-0.8210;
814.2000;0.0741;-0.8077;
814.5000;0.0724;-0.8055;
814.8000;0.0733;-0.8010;
815.1000;0.0708;-0.8143;
815.4000;0.0765;-0.7944;
815.7000;0.0700;-0.8099;
816.0000;0.0724;-0.7966;
816.3000;0.0692;-0.8077;
816.6000;0.0716;-0.7922;
816.9000;0.0724;-0.8010;
817.2000;0.0733;-0.8010;
817.5000;0.0716;-0.8143;
817.8000;0.0724;-0.8121;
818.1000;0.0716;-0.8121;
818.4000;0.0716;-0.8033;
818.7000;0.0749;-0.7966;
819.0000;0.0879;-0.7590;
819.3000;0.0733;-0.7878;
819.6000;0.0733;-0.7944;
819.9000;0.0741;-0.7988;
820.2000;0.0733;-0.7988;
820.5000;0.0724;-0.8033;
820.8000;0.0692;-0.8099;
821.1000;0.0724;-0.8099;
821.4000;0.0724;-0.8099;
821.7000;0.0733;-0.8099;
822.0000;0.0733;-0.8143;
822.3000;0.0741;-0.8099;
822.6000;0.0635;-0.8387;
822.9000;0.0692;-0.8210;
823.2000;0.0733;-0.8165;
823.5000;0.0716;-0.8210;
823.8000;0.0806;-0.8099;
824.1000;0.0724;-0.8298;
824.4000;0.0684;-0.8387;
824.7000;0.0773;-0.8143;
825.0000;0.0757;-0.8210;
825.3000;0.0798;-0.8143;
825.6000;0.0749;-0.8143;
825.9000;0.0733;-0.8210;
826.2000;0.0749;-0.8143;
826.5000;0.0822;-0.7900;
826.8000;0.0749;-0.7944;
827.1000;0.0676;-0.8055;
827.4000;0.0700;-0.8033;
827.7000;0.0733;-0.8010;
828.0000;0.0741;-0.8010;
828.3000;0.0676;-0.8143;
828.6000;0.0806;-0.7811;
828.9000;0.0733;-0.8121;
829.2000;0.0741;-0.8055;
829.5000;0.0716;-0.8165;
829.8000;0.0741;-0.8121;
830.1000;0.0741;-0.8055;
830.4000;0.0659;-0.8187;
830.7000;0.0716;-0.8033;
831.0000;0.0724;-0.7988;
831.3000;0.0724;-0.8033;
831.6000;0.0716;-0.8010;
831.9000;0.0733;-0.7944;
832.2000;0.0765;-0.7789;
832.5000;0.0724;-0.7966;
832.8000;0.0733;-0.7966;
833.1000;0.0781;-0.7944;
833.4000;0.0716;-0.8099;
833.7000;0.0733;-0.7988;
834.0000;0.0749;-0.7922;
834.3000;0.0733;-0.8010;
834.6000;0.0724;-0.7988;
834.9000;0.0724;-0.8033;
835.2000;0.0692;-0.8143;
835.5000;0.0749;-0.7988;
835.8000;0.0733;-0.8055;
836.1000;0.0724;-0.8077;
836.4000;0.0733;-0.7988;
836.7000;0.0733;-0.7900;
837.0000;0.0676;-0.8121;
837.3000;0.0733;-0.7900;
837.6000;0.0765;-0.7767;
837.9000;0.0733;-0.7855;
838.2000;0.0749;-0.7833;
838.5000;0.0733;-0.7922;
838.8000;0.0700;-0.8077;
839.1000;0.0741;-0.8033;
839.4000;0.0749;-0.8055;
839.7000;0.0741;-0.8077;
840.0000;0.0749;-0.8010;
840.3000;0.0733;-0.8033;
840.6000;0.0700;-0.8187;
840.9000;0.0708;-0.8210;
841.2000;0.0635;-0.8320;
841.5000;0.0724;-0.8099;
841.8000;0.0733;-0.8121;
842.1000;0.0716;-0.8187;
842.4000;0.0708;-0.8276;
842.7000;0.0716;-0.8143;
843.0000;0.0692;-0.8055;
843.3000;0.0684;-0.8099;
843.6000;0.0741;-0.7988;
843.9000;0.0708;-0.8033;
844.2000;0.0757;-0.7878;
844.5000;0.0741;-0.7944;
844.8000;0.0757;-0.7922;
845.1000;0.0741;-0.7944;
845.4000;0.0700;-0.7988;
845.7000;0.0757;-0.7833;
846.0000;0.0749;-0.7900;
846.3000;0.0708;-0.8010;
846.6000;0.0676;-0.8099;
846.9000;0.0708;-0.7944;
847.2000;0.0733;-0.7811;
847.5000;0.0716;-0.7878;
847.8000;0.0692;-0.8010;
848.1000;0.0716;-0.7988;
848.4000;0.0708;-0.7900;
848.7000;0.0790;-0.7612;
849.0000;0.0545;-0.8210;
849.3000;0.0651;-0.7966;
849.6000;0.0708;-0.7855;
849.9000;0.0700;-0.7900;
850.2000;0.0716;-0.7944;
850.5000;0.0806;-0.7723;
850.8000;0.0676;-0.7966;
851.1000;0.0708;-0.7878;
851.4000;0.0700;-0.7833;
851.7000;0.0749;-0.7767;
852.0000;0.0716;-0.7878;
852.3000;0.0741;-0.7789;
852.6000;0.0659;-0.7966;
852.9000;0.0708;-0.7833;
853.2000;0.0708;-0.7789;
853.5000;0.0724;-0.7745;
853.8000;0.0733;-0.7701;
854.1000;0.0733;-0.7767;
854.4000;0.0700;-0.7745;
854.7000;0.0708;-0.7723;
855.0000;0.0741;-0.7789;
855.3000;0.0700;-0.7789;
855.6000;0.0757;-0.7723;
855.9000;0.0741;-0.7767;
856.2000;0.0798;-0.7612;
856.5000;0.0749;-0.7745;
856.8000;0.0700;-0.7855;
857.1000;0.0716;-0.7789;
857.4000;0.0741;-0.7723;
857.7000;0.0741;-0.7811;
858.0000;0.0724;-0.7811;
858.3000;0.0716;-0.7900;
858.6000;0.0708;-0.7988;
858.9000;0.0716;-0.8099;
859.2000;0.0676;-0.8187;
859.5000;0.0733;-0.8010;
859.8000;0.0733;-0.8033;
860.1000;0.0708;-0.8010;
860.4000;0.0749;-0.7922;
860.7000;0.0733;-0.7922;
861.0000;0.0700;-0.8033;
861.3000;0.0651;-0.8187;
861.6000;0.0741;-0.8010;
861.9000;0.0554;-0.8497;
862.2000;0.0684;-0.8143;
862.5000;0.0667;-0.8143;
862.8000;0.0741;-0.8033;
863.1000;0.0716;-0.8033;
863.4000;0.0676;-0.8165;
863.7000;0.0635;-0.8232;
864.0000;0.0741;-0.7988;
864.3000;0.0749;-0.7944;
864.6000;0.0765;-0.7878;
864.9000;0.0790;-0.7878;
865.2000;0.0724;-0.8010;
865.5000;0.0757;-0.7966;
865.8000;0.0757;-0.7988;
866.1000;0.0757;-0.8033;
866.4000;0.0724;-0.8121;
866.7000;0.0749;-0.8010;
867.0000;0.0733;-0.8077;
867.3000;0.0749;-0.8077;
867.6000;0.0684;-0.8232;
867.9000;0.0716;-0.8165;
868.2000;0.0724;-0.8187;
868.5000;0.0741;-0.8143;
868.8000;0.0708;-0.8320;
869.1000;0.0733;-0.8121;
869.4000;0.0741;-0.8010;
869.7000;0.0733;-0.8033;
870.0000;0.0724;-0.8055;
870.3000;0.0716;-0.8187;
870.6000;0.0724;-0.8077;
870.9000;0.0716;-0.8077;
871.2000;0.0724;-0.8099;
871.5000;0.0708;-0.8143;
871.8000;0.0749;-0.8077;
872.1000;0.0749;-0.8099;
872.4000;0.0749;-0.8121;
872.7000;0.0708;-0.8232;
873.0000;0.0724;-0.8232;
873.3000;0.0708;-0.8276;
873.6000;0.0733;-0.8232;
873.9000;0.0733;-0.8342;
874.2000;0.0716;-0.8320;
874.5000;0.0700;-0.8320;
874.8000;0.0741;-0.8210;
875.1000;0.0757;-0.8320;
875.4000;0.0619;-0.8586;
875.7000;0.0724;-0.8276;
876.0000;0.0700;-0.8364;
876.3000;0.0733;-0.8276;
876.6000;0.0716;-0.8254;
876.9000;0.0692;-0.8320;
877.2000;0.0741;-0.8121;
877.5000;0.0733;-0.8165;
877.8000;0.0708;-0.8210;
878.1000;0.0708;-0.8187;
878.4000;0.0781;-0.8010;
878.7000;0.0716;-0.8055;
879.0000;0.0708;-0.8033;
879.3000;0.0733;-0.8033;
879.6000;0.0757;-0.7922;
879.9000;0.0733;-0.7922;
880.2000;0.0619;-0.8254;
880.5000;0.0806;-0.7767;
880.8000;0.0741;-0.7966;
881.1000;0.0724;-0.8077;
881.4000;0.0708;-0.8210;
881.7000;0.0700;-0.8210;
882.0000;0.0708;-0.8143;
882.3000;0.0790;-0.7900;
882.6000;0.0773;-0.7922;
882.9000;0.0676;-0.8055;
883.2000;0.0700;-0.8055;
883.5000;0.0700;-0.8055;
883.8000;0.0692;-0.8099;
884.1000;0.0741;-0.8033;
884.4000;0.0733;-0.8055;
884.7000;0.0708;-0.8165;
885.0000;0.0741;-0.8055;
885.3000;0.0708;-0.8099;
885.6000;0.0765;-0.7878;
885.9000;0.0733;-0.7944;
886.2000;0.0757;-0.7900;
886.5000;0.0716;-0.7944;
886.8000;0.0700;-0.8010;
887.1000;0.0724;-0.7944;
887.4000;0.0692;-0.8077;
887.7000;0.0659;-0.8187;
888.0000;0.0676;-0.8165;
888.3000;0.0724;-0.8099;
888.6000;0.0716;-0.8121;
888.9000;0.0741;-0.8187;
889.2000;0.0749;-0.8187;
889.5000;0.0741;-0.8254;
889.8000;0.0724;-0.8254;
890.1000;0.0724;-0.8276;
890.4000;0.0716;-0.8320;
890.7000;0.0733;-0.8276;
891.0000;0.0716;-0.8298;
891.3000;0.0741;-0.8254;
891.6000;0.0724;-0.8298;
891.9000;0.0773;-0.8165;
892.2000;0.0733;-0.8165;
892.5000;0.0700;-0.8254;
892.8000;0.0724;-0.8254;
893.1000;0.0733;-0.8254;
893.4000;0.0700;-0.8364;
893.7000;0.0741;-0.8187;
894.0000;0.0651;-0.8320;
894.3000;0.0724;-0.8232;
894.6000;0.0733;-0.8298;
894.9000;0.0741;-0.8254;
895.2000;0.0724;-0.8320;
895.5000;0.0724;-0.8276;
895.8000;0.0700;-0.8342;
896.1000;0.0757;-0.8099;
896.4000;0.0651;-0.8453;
896.7000;0.0716;-0.8254;
897.0000;0.0790;-0.8099;
897.3000;0.0716;-0.8187;
897.6000;0.0708;-0.8254;
897.9000;0.0692;-0.8276;
898.2000;0.0733;-0.8143;
898.5000;0.0773;-0.8143;
898.8000;0.0733;-0.8298;
899.1000;0.0733;-0.8320;
899.4000;0.0700;-0.8431;
899.7000;0.0741;-0.8254;
900.0000;0.0733;-0.8210;
900.3000;0.0692;-0.8387;
900.6000;0.0733;-0.8254;
900.9000;0.0716;-0.8298;
901.2000;0.0708;-0.8254;
901.5000;0.0749;-0.8165;
901.8000;0.0708;-0.8342;
902.1000;0.0716;-0.8409;
902.4000;0.0724;-0.8364;
902.7000;0.0724;-0.8387;
903.0000;0.0724;-0.8342;
903.3000;0.0741;-0.8320;
903.6000;0.0716;-0.8254;
903.9000;0.0708;-0.8298;
904.2000;0.0700;-0.8342;
904.5000;0.0724;-0.8210;
904.8000;0.0741;-0.8254;
905.1000;0.0749;-0.8210;
905.4000;0.0651;-0.8409;
905.7000;0.0741;-0.8254;
906.0000;0.0692;-0.8453;
906.3000;0.0741;-0.8387;
906.6000;0.0708;-0.8431;
906.9000;0.0724;-0.8342;
907.2000;0.0708;-0.8387;
907.5000;0.0749;-0.8187;
907.8000;0.0651;-0.8431;
908.1000;0.0733;-0.8232;
908.4000;0.0733;-0.8254;
908.7000;0.0741;-0.8187;
909.0000;0.0724;-0.8298;
909.3000;0.0724;-0.8342;
909.6000;0.0724;-0.8276;
909.9000;0.0716;-0.8232;
910.2000;0.0757;-0.8121;
910.5000;0.0749;-0.8187;
910.8000;0.0724;-0.8320;
911.1000;0.0724;-0.8232;
911.4000;0.0749;-0.8210;
911.7000;0.0724;-0.8254;
912.0000;0.0741;-0.8210;
912.3000;0.0700;-0.8387;
912.6000;0.0724;-0.8232;
912.9000;0.0741;-0.8298;
913.2000;0.0716;-0.8409;
913.5000;0.0700;-0.8453;
913.8000;0.0741;-0.8342;
914.1000;0.0749;-0.8254;
914.4000;0.0724;-0.8342;
914.7000;0.0708;-0.8364;
915.0000;0.0724;-0.8342;
915.3000;0.0724;-0.8298;
915.6000;0.0716;-0.8364;
915.9000;0.0765;-0.8232;
916.2000;0.0724;-0.8276;
916.5000;0.0692;-0.8254;
916.8000;0.0716;-0.8187;
917.1000;0.0692;-0.8276;
917.4000;0.0749;-0.8187;
917.7000;0.0716;-0.8298;
918.0000;0.0798;-0.8099;
918.3000;0.0741;-0.8254;
918.6000;0.0724;-0.8387;
918.9000;0.0741;-0.8342;
919.2000;0.0733;-0.8342;
919.5000;0.0708;-0.8342;
919.8000;0.0733;-0.8210;
920.1000;0.0708;-0.8232;
920.4000;0.0733;-0.8121;
920.7000;0.0716;-0.8033;
921.0000;0.0724;-0.8010;
921.3000;0.0773;-0.7922;
921.6000;0.0700;-0.8055;
921.9000;0.0757;-0.7900;
922.2000;0.0692;-0.8010;
922.5000;0.0724;-0.7944;
922.8000;0.0700;-0.7966;
923.1000;0.0733;-0.7966;
923.4000;0.0741;-0.8077;
923.7000;0.0619;-0.8409;
924.0000;0.0733;-0.8143;
924.3000;0.0757;-0.8099;
924.6000;0.0749;-0.8077;
924.9000;0.0798;-0.8010;
925.2000;0.0733;-0.8033;
925.5000;0.0708;-0.8099;
925.8000;0.0724;-0.8099;
926.1000;0.0733;-0.8077;
926.4000;0.0724;-0.8055;
926.7000;0.0724;-0.8099;
927.0000;0.0708;-0.8143;
927.3000;0.0724;-0.8165;
927.6000;0.0724;-0.8121;
927.9000;0.0733;-0.8165;
928.2000;0.0741;-0.8210;
928.5000;0.0733;-0.8210;
928.8000;0.0716;-0.8342;
929.1000;0.0741;-0.8342;
929.4000;0.0724;-0.8364;
929.7000;0.0700;-0.8409;
930.0000;0.0765;-0.8298;
930.3000;0.0724;-0.8409;
930.6000;0.0733;-0.8453;
930.9000;0.0716;-0.8519;
931.2000;0.0733;-0.8497;
931.5000;0.0749;-0.8497;
931.8000;0.0716;-0.8564;
932.1000;0.0716;-0.8541;
932.4000;0.0733;-0.8497;
932.7000;0.0692;-0.8696;
933.0000;0.0733;-0.8564;
933.3000;0.0741;-0.8497;
933.6000;0.0716;-0.8497;
933.9000;0.0724;-0.8409;
934.2000;0.0741;-0.8387;
934.5000;0.0749;-0.8387;
934.8000;0.0733;-0.8431;
935.1000;0.0724;-0.8475;
935.4000;0.0733;-0.8409;
935.7000;0.0741;-0.8320;
936.0000;0.0733;-0.8276;
936.3000;0.0700;-0.8320;
936.6000;0.0724;-0.8254;
936.9000;0.0586;-0.8630;
937.2000;0.0733;-0.8254;
937.5000;0.0708;-0.8298;
937.8000;0.0724;-0.8187;
938.1000;0.0716;-0.8165;
938.4000;0.0724;-0.8055;
938.7000;0.0716;-0.8099;
939.0000;0.0635;-0.8320;
939.3000;0.0749;-0.8121;
939.6000;0.0716;-0.8187;
939.9000;0.0700;-0.8254;
940.2000;0.0716;-0.8210;
940.5000;0.0708;-0.8232;
940.8000;0.0676;-0.8320;
941.1000;0.0838;-0.7988;
941.4000;0.0667;-0.8320;
941.7000;0.0724;-0.8254;
942.0000;0.0814;-0.8077;
942.3000;0.0773;-0.8121;
942.6000;0.0716;-0.8298;
942.9000;0.0594;-0.8608;
943.2000;0.0716;-0.8276;
943.5000;0.0716;-0.8276;
943.8000;0.0733;-0.8232;
944.1000;0.0700;-0.8276;
944.4000;0.0749;-0.8143;
944.7000;0.0741;-0.8055;
945.0000;0.0724;-0.8077;
945.3000;0.0667;-0.8232;
945.6000;0.0651;-0.8232;
945.9000;0.0716;-0.8187;
946.2000;0.0741;-0.8099;
946.5000;0.0790;-0.7966;
946.8000;0.0708;-0.8165;
947.1000;0.0733;-0.8121;
947.4000;0.0741;-0.8055;
947.7000;0.0716;-0.8099;
948.0000;0.0790;-0.7988;
948.3000;0.0733;-0.8165;
948.6000;0.0676;-0.8364;
948.9000;0.0716;-0.8187;
949.2000;0.0724;-0.8320;
949.5000;0.0692;-0.8364;
949.8000;0.0733;-0.8210;
950.1000;0.0741;-0.8232;
950.4000;0.0700;-0.8276;
950.7000;0.0724;-0.8210;
951.0000;0.0765;-0.8055;
951.3000;0.0798;-0.7944;
951.6000;0.0741;-0.8099;
951.9000;0.0692;-0.8232;
952.2000;0.0700;-0.8298;
952.5000;0.0708;-0.8232;
952.8000;0.0724;-0.8121;
953.1000;0.0708;-0.8143;
953.4000;0.0724;-0.8099;
953.7000;0.0684;-0.8165;
954.0000;0.0733;-0.8099;
954.3000;0.0757;-0.8143;
954.6000;0.0716;-0.8298;
954.9000;0.0757;-0.8232;
955.2000;0.0716;-0.8298;
955.5000;0.0716;-0.8364;
955.8000;0.0667;-0.8475;
956.1000;0.0724;-0.8276;
956.4000;0.0724;-0.8276;
956.7000;0.0773;-0.8143;
957.0000;0.0667;-0.8409;
957.3000;0.0716;-0.8254;
957.6000;0.0716;-0.8364;
957.9000;0.0741;-0.8276;
958.2000;0.0733;-0.8232;
958.5000;0.0733;-0.8187;
958.8000;0.0708;-0.8121;
959.1000;0.0724;-0.8099;
959.4000;0.0749;-0.8099;
959.7000;0.0741;-0.8099;
960.0000;0.0757;-0.8077;
960.3000;0.0757;-0.8077;
960.6000;0.0757;-0.8121;
960.9000;0.0692;-0.8232;
961.2000;0.0692;-0.8232;
961.5000;0.0733;-0.8121;
961.8000;0.0659;-0.8364;
962.1000;0.0635;-0.8387;
962.4000;0.0700;-0.8187;
962.7000;0.0733;-0.8187;
963.0000;0.0765;-0.8143;
963.3000;0.0741;-0.8210;
963.6000;0.0741;-0.8320;
963.9000;0.0724;-0.8387;
964.2000;0.0724;-0.8342;
964.5000;0.0749;-0.8298;
964.8000;0.0692;-0.8409;
965.1000;0.0749;-0.8320;
965.4000;0.0781;-0.8276;
965.7000;0.0749;-0.8364;
966.0000;0.0733;-0.8320;
966.3000;0.0708;-0.8409;
966.6000;0.0724;-0.8298;
966.9000;0.0700;-0.8232;
967.2000;0.0724;-0.8121;
967.5000;0.0724;-0.8121;
967.8000;0.0700;-0.8210;
968.1000;0.0733;-0.8077;
968.4000;0.0700;-0.8187;
968.7000;0.0741;-0.8099;
969.0000;0.0716;-0.8077;
969.3000;0.0708;-0.8121;
969.6000;0.0700;-0.8099;
969.9000;0.0733;-0.8055;
970.2000;0.0733;-0.8121;
970.5000;0.0741;-0.8099;
970.8000;0.0847;-0.7855;
971.1000;0.0716;-0.8077;
971.4000;0.0716;-0.8033;
971.7000;0.0724;-0.8033;
972.0000;0.0708;-0.8077;
972.3000;0.0773;-0.8010;
972.6000;0.0700;-0.8143;
972.9000;0.0716;-0.8099;
973.2000;0.0716;-0.8099;
973.5000;0.0716;-0.8099;
973.8000;0.0749;-0.8077;
974.1000;0.0635;-0.8342;
974.4000;0.0741;-0.8143;
974.7000;0.0765;-0.8121;
975.0000;0.0749;-0.8165;
975.3000;0.0724;-0.8121;
975.6000;0.0741;-0.8099;
975.9000;0.0724;-0.8143;
976.2000;0.0724;-0.8210;
976.5000;0.0708;-0.8320;
976.8000;0.0741;-0.8276;
977.1000;0.0716;-0.8387;
977.4000;0.0814;-0.8143;
977.7000;0.0716;-0.8364;
978.0000;0.0708;-0.8342;
978.3000;0.0724;-0.8232;
978.6000;0.0586;-0.8431;
978.9000;0.0733;-0.8143;
979.2000;0.0651;-0.8320;
979.5000;0.0806;-0.7988;
979.8000;0.0733;-0.8099;
980.1000;0.0741;-0.8077;
980.4000;0.0716;-0.8254;
980.7000;0.0724;-0.8320;
981.0000;0.0733;-0.8232;
981.3000;0.0733;-0.8165;
981.6000;0.0733;-0.8121;
981.9000;0.0708;-0.8099;
982.2000;0.0741;-0.8121;
982.5000;0.0724;-0.8143;
982.8000;0.0716;-0.8187;
983.1000;0.0733;-0.8210;
983.4000;0.0741;-0.8010;
983.7000;0.0700;-0.8121;
984.0000;0.0716;-0.8099;
984.3000;0.0847;-0.7855;
984.6000;0.0733;-0.8210;
984.9000;0.0765;-0.8077;
985.2000;0.0741;-0.8099;
985.5000;0.0741;-0.8077;
985.8000;0.0700;-0.8143;
986.1000;0.0724;-0.8099;
986.4000;0.0733;-0.8077;
986.7000;0.0724;-0.8210;
987.0000;0.0684;-0.8276;
987.3000;0.0700;-0.8254;
987.6000;0.0741;-0.8143;
987.9000;0.0741;-0.8143;
988.2000;0.0741;-0.8210;
988.5000;0.0667;-0.8342;
988.8000;0.0708;-0.8232;
989.1000;0.0733;-0.8143;
989.4000;0.0741;-0.8121;
989.7000;0.0700;-0.8254;
990.0000;0.0733;-0.8165;
990.3000;0.0667;-0.8342;
990.6000;0.0741;-0.8165;
990.9000;0.0708;-0.8254;
991.2000;0.0651;-0.8298;
991.5000;0.0724;-0.8232;
991.8000;0.0684;-0.8320;
992.1000;0.0700;-0.8320;
992.4000;0.0716;-0.8320;
992.7000;0.0700;-0.8320;
993.0000;0.0741;-0.8165;
993.3000;0.0659;-0.8431;
993.6000;0.0741;-0.8232;
993.9000;0.0724;-0.8165;
994.2000;0.0733;-0.8143;
994.5000;0.0643;-0.8342;
994.8000;0.0757;-0.8099;
995.1000;0.0749;-0.8143;
995.4000;0.0741;-0.8232;
995.7000;0.0863;-0.7988;
996.0000;0.0741;-0.8276;
996.3000;0.0724;-0.8409;
996.6000;0.0781;-0.8254;
996.9000;0.0749;-0.8342;
997.2000;0.0716;-0.8342;
997.5000;0.0733;-0.8342;
997.8000;0.0765;-0.8187;
998.1000;0.0716;-0.8254;
998.4000;0.0724;-0.8232;
998.7000;0.0741;-0.8165;
999.0000;0.0733;-0.8055;
999.3000;0.0716;-0.8033;
999.6000;0.0724;-0.8077;
999.9000;0.0716;-0.8143;
1000.2000;0.0741;-0.8010;
1000.5000;0.0716;-0.8055;
1000.8000;0.0700;-0.8187;
1001.1000;0.0765;-0.8077;
1001.4000;0.0741;-0.8121;
1001.7000;0.0757;-0.8099;
1002.0000;0.0741;-0.8165;
1002.3000;0.0716;-0.8077;
1002.6000;0.0733;-0.8055;
1002.9000;0.0773;-0.7988;
1003.2000;0.0912;-0.7723;
1003.5000;0.0749;-0.8099;
1003.8000;0.0708;-0.8210;
1004.1000;0.0724;-0.8143;
1004.4000;0.0741;-0.8033;
1004.7000;0.0692;-0.8165;
1005.0000;0.0733;-0.8165;
1005.3000;0.0757;-0.8121;
1005.6000;0.0716;-0.8099;
1005.9000;0.0643;-0.8210;
1006.2000;0.0708;-0.8121;
1006.5000;0.0724;-0.8165;
1006.8000;0.0716;-0.8187;
1007.1000;0.0716;-0.8165;
1007.4000;0.0708;-0.8143;
1007.7000;0.0724;-0.8099;
1008.0000;0.0708;-0.8143;
1008.3000;0.0773;-0.7900;
1008.6000;0.0716;-0.8099;
1008.9000;0.0724;-0.8165;
1009.2000;0.0733;-0.8055;
1009.5000;0.0700;-0.8033;
1009.8000;0.0716;-0.8010;
1010.1000;0.0700;-0.8010;
1010.4000;0.0724;-0.7944;
1010.7000;0.0716;-0.8010;
1011.0000;0.0667;-0.8121;
1011.3000;0.0733;-0.8033;
1011.6000;0.0708;-0.8010;
1011.9000;0.0749;-0.7944;
1012.2000;0.0708;-0.7944;
1012.5000;0.0692;-0.7988;
1012.8000;0.0741;-0.7944;
1013.1000;0.0741;-0.7966;
1013.4000;0.0733;-0.7922;
1013.7000;0.0741;-0.7855;
1014.0000;0.0741;-0.7855;
1014.3000;0.0798;-0.7789;
1014.6000;0.0700;-0.8077;
1014.9000;0.0716;-0.8010;
1015.2000;0.0692;-0.8033;
1015.5000;0.0724;-0.8010;
1015.8000;0.0724;-0.7900;
1016.1000;0.0724;-0.7900;
1016.4000;0.0700;-0.7944;
1016.7000;0.0724;-0.7900;
1017.0000;0.0741;-0.7922;
1017.3000;0.0733;-0.7944;
1017.6000;0.0700;-0.8055;
1017.9000;0.0749;-0.7878;
1018.2000;0.0724;-0.7922;
1018.5000;0.0724;-0.7855;
1018.8000;0.0667;-0.7944;
1019.1000;0.0733;-0.7811;
1019.4000;0.0676;-0.8010;
1019.7000;0.0741;-0.7966;
1020.0000;0.0716;-0.8077;
1020.3000;0.0733;-0.8055;
1020.6000;0.0659;-0.8276;
1020.9000;0.0733;-0.8055;
1021.2000;0.0724;-0.8099;
1021.5000;0.0708;-0.8165;
1021.8000;0.0700;-0.8165;
1022.1000;0.0749;-0.8010;
1022.4000;0.0708;-0.8033;
1022.7000;0.0741;-0.7922;
1023.0000;0.0749;-0.7855;
1023.3000;0.0749;-0.7811;
1023.6000;0.0733;-0.7922;
1023.9000;0.0716;-0.7944;
1024.2000;0.0749;-0.7833;
1024.5000;0.0733;-0.7833;
1024.8000;0.0733;-0.7833;
1025.1000;0.0692;-0.7966;
1025.4000;0.0806;-0.7678;
1025.7000;0.0733;-0.7922;
1026.0000;0.0724;-0.8010;
1026.3000;0.0863;-0.7656;
1026.6000;0.0741;-0.7966;
1026.9000;0.0733;-0.8099;
1027.2000;0.0798;-0.7922;
1027.5000;0.0733;-0.7988;
1027.8000;0.0692;-0.8143;
1028.1000;0.0741;-0.7966;
1028.4000;0.0643;-0.8232;
1028.7000;0.0765;-0.7855;
1029.0000;0.0716;-0.7944;
1029.3000;0.0733;-0.7878;
1029.6000;0.0716;-0.7833;
1029.9000;0.0708;-0.7900;
1030.2000;0.0733;-0.7966;
1030.5000;0.0676;-0.8143;
1030.8000;0.0716;-0.8077;
1031.1000;0.0724;-0.8010;
1031.4000;0.0733;-0.8055;
1031.7000;0.0700;-0.8077;
1032.0000;0.0635;-0.8364;
1032.3000;0.0724;-0.8187;
1032.6000;0.0716;-0.8165;
1032.9000;0.0733;-0.8099;
1033.2000;0.0700;-0.8232;
1033.5000;0.0733;-0.8165;
1033.8000;0.0741;-0.8121;
1034.1000;0.0733;-0.8165;
1034.4000;0.0741;-0.8165;
1034.7000;0.0529;-0.8652;
1035.0000;0.0741;-0.8055;
1035.3000;0.0708;-0.8010;
1035.6000;0.0708;-0.7988;
1035.9000;0.0684;-0.8077;
1036.2000;0.0724;-0.7944;
1036.5000;0.0716;-0.7922;
1036.8000;0.0765;-0.7922;
1037.1000;0.0749;-0.7855;
1037.4000;0.0733;-0.7944;
1037.7000;0.0700;-0.8055;
1038.0000;0.0708;-0.7966;
1038.3000;0.0757;-0.7833;
1038.6000;0.0838;-0.7590;
1038.9000;0.0627;-0.8121;
1039.2000;0.0724;-0.7855;
1039.5000;0.0806;-0.7678;
1039.8000;0.0733;-0.7922;
1040.1000;0.0643;-0.8077;
1040.4000;0.0733;-0.7900;
1040.7000;0.0627;-0.8121;
1041.0000;0.0716;-0.7988;
1041.3000;0.0700;-0.8077;
1041.6000;0.0724;-0.7922;
1041.9000;0.0741;-0.7900;
1042.2000;0.0724;-0.7922;
1042.5000;0.0708;-0.7922;
1042.8000;0.0716;-0.7944;
1043.1000;0.0724;-0.7944;
1043.4000;0.0724;-0.8033;
1043.7000;0.0716;-0.8077;
1044.0000;0.0741;-0.8033;
1044.3000;0.0724;-0.8033;
1044.6000;0.0773;-0.7966;
1044.9000;0.0700;-0.8187;
1045.2000;0.0749;-0.8099;
1045.5000;0.0724;-0.8165;
1045.8000;0.0724;-0.8165;
1046.1000;0.0741;-0.8187;
1046.4000;0.0741;-0.8232;
1046.7000;0.0765;-0.8143;
1047.0000;0.0741;-0.8165;
1047.3000;0.0700;-0.8210;
1047.6000;0.0692;-0.8187;
1047.9000;0.0724;-0.8099;
1048.2000;0.0692;-0.8187;
1048.5000;0.0724;-0.8143;
1048.8000;0.0716;-0.8187;
1049.1000;0.0733;-0.8121;
1049.4000;0.0798;-0.7944;
1049.7000;0.0765;-0.8099;
1050.0000;0.0749;-0.8143;
1050.3000;0.0806;-0.7922;
1050.6000;0.0724;-0.8055;
1050.9000;0.0684;-0.8077;
1051.2000;0.0790;-0.7855;
1051.5000;0.0692;-0.8033;
1051.8000;0.0716;-0.7966;
1052.1000;0.0708;-0.8033;
1052.4000;0.0724;-0.7922;
1052.7000;0.0594;-0.8187;
1053.0000;0.0700;-0.7922;
1053.3000;0.0741;-0.7878;
1053.6000;0.0716;-0.7988;
1053.9000;0.0676;-0.8010;
1054.2000;0.0749;-0.7811;
1054.5000;0.0708;-0.7922;
1054.8000;0.0765;-0.7789;
1055.1000;0.0716;-0.7833;
1055.4000;0.0733;-0.7789;
1055.7000;0.0749;-0.7789;
1056.0000;0.0667;-0.7944;
1056.3000;0.0684;-0.7944;
1056.6000;0.0684;-0.7988;
1056.9000;0.0733;-0.7900;
1057.2000;0.0716;-0.7900;
1057.5000;0.0708;-0.7944;
1057.8000;0.0741;-0.7900;
1058.1000;0.0667;-0.8232;
1058.4000;0.0708;-0.8077;
1058.7000;0.0733;-0.8010;
1059.0000;0.0708;-0.8099;
1059.3000;0.0700;-0.8187;
1059.6000;0.0716;-0.8121;
1059.9000;0.0724;-0.7988;
1060.2000;0.0741;-0.8077;
1060.5000;0.0716;-0.8187;
1060.8000;0.0765;-0.8121;
1061.1000;0.0724;-0.8165;
1061.4000;0.0716;-0.8165;
1061.7000;0.0724;-0.8099;
1062.0000;0.0733;-0.8077;
1062.3000;0.0700;-0.8254;
1062.6000;0.0700;-0.8276;
1062.9000;0.0741;-0.8143;
1063.2000;0.0733;-0.8165;
1063.5000;0.0700;-0.8232;
1063.8000;0.0708;-0.8232;
1064.1000;0.0733;-0.8143;
1064.4000;0.0724;-0.8121;
1064.7000;0.0724;-0.8010;
1065.0000;0.0741;-0.7966;
1065.3000;0.0733;-0.8010;
1065.6000;0.0790;-0.7878;
1065.9000;0.0716;-0.8077;
1066.2000;0.0724;-0.7944;
1066.5000;0.0741;-0.7966;
1066.8000;0.0757;-0.7988;
1067.1000;0.0716;-0.8099;
1067.4000;0.0741;-0.8055;
1067.7000;0.0765;-0.8010;
1068.0000;0.0716;-0.8099;
1068.3000;0.0724;-0.8165;
1068.6000;0.0659;-0.8342;
1068.9000;0.0895;-0.7789;
1069.2000;0.0700;-0.8187;
1069.5000;0.0765;-0.7966;
1069.8000;0.0700;-0.8143;
1070.1000;0.0716;-0.8143;
1070.4000;0.0733;-0.8010;
1070.7000;0.0724;-0.8121;
1071.0000;0.0716;-0.8077;
1071.3000;0.0765;-0.7966;
1071.6000;0.0757;-0.8055;
1071.9000;0.0765;-0.8033;
1072.2000;0.0700;-0.8187;
1072.5000;0.0708;-0.8187;
1072.8000;0.0651;-0.8298;
1073.1000;0.0700;-0.8187;
1073.4000;0.0781;-0.8033;
1073.7000;0.0692;-0.8143;
1074.0000;0.0724;-0.8121;
1074.3000;0.0619;-0.8387;
1074.6000;0.0806;-0.7855;
1074.9000;0.0627;-0.8232;
1075.2000;0.0733;-0.7922;
1075.5000;0.0716;-0.8077;
1075.8000;0.0733;-0.8077;
1076.1000;0.0700;-0.8143;
1076.4000;0.0790;-0.7988;
1076.7000;0.0830;-0.7900;
1077.0000;0.0643;-0.8276;
1077.3000;0.0741;-0.8055;
1077.6000;0.0716;-0.8055;
1077.9000;0.0724;-0.8033;
1078.2000;0.0700;-0.8143;
1078.5000;0.0724;-0.8077;
1078.8000;0.0733;-0.8099;
1079.1000;0.0733;-0.8077;
1079.4000;0.0733;-0.7966;
1079.7000;0.0757;-0.7944;
1080.0000;0.0716;-0.8010;
1080.3000;0.0741;-0.7966;
1080.6000;0.0749;-0.7900;
1080.9000;0.0724;-0.7966;
1081.2000;0.0724;-0.8010;
1081.5000;0.0724;-0.7966;
1081.8000;0.0741;-0.7944;
1082.1000;0.0749;-0.8010;
1082.4000;0.0716;-0.7944;
1082.7000;0.0708;-0.7833;
1083.0000;0.0749;-0.7767;
1083.3000;0.0733;-0.7833;
1083.6000;0.0708;-0.7988;
1083.9000;0.0733;-0.7922;
1084.2000;0.0708;-0.8033;
1084.5000;0.0716;-0.8077;
1084.8000;0.0708;-0.8077;
1085.1000;0.0757;-0.7988;
1085.4000;0.0749;-0.7966;
1085.7000;0.0741;-0.8143;
1086.0000;0.0676;-0.8254;
1086.3000;0.0676;-0.8143;
1086.6000;0.0733;-0.8077;
1086.9000;0.0806;-0.7944;
1087.2000;0.0733;-0.8055;
1087.5000;0.0667;-0.8232;
1087.8000;0.0765;-0.8010;
1088.1000;0.0724;-0.8099;
1088.4000;0.0716;-0.8033;
1088.7000;0.0676;-0.8210;
1089.0000;0.0741;-0.8077;
1089.3000;0.0716;-0.8099;
1089.6000;0.0716;-0.8165;
1089.9000;0.0586;-0.8409;
1090.2000;0.0716;-0.8099;
1090.5000;0.0716;-0.8077;
1090.8000;0.0724;-0.8077;
1091.1000;0.0741;-0.8077;
1091.4000;0.0733;-0.8143;
1091.7000;0.0733;-0.8077;
1092.0000;0.0716;-0.8099;
1092.3000;0.0708;-0.8077;
1092.6000;0.0733;-0.8010;
1092.9000;0.0619;-0.8276;
1093.2000;0.0733;-0.8055;
1093.5000;0.0692;-0.8121;
1093.8000;0.0700;-0.8055;
1094.1000;0.0733;-0.7988;
1094.4000;0.0741;-0.7988;
1094.7000;0.0757;-0.7988;
1095.0000;0.0724;-0.8055;
1095.3000;0.0700;-0.8033;
1095.6000;0.0724;-0.8033;
1095.9000;0.0724;-0.7988;
1096.2000;0.0724;-0.8077;
1096.5000;0.0708;-0.8121;
1096.8000;0.0700;-0.8121;
1097.1000;0.0781;-0.7966;
1097.4000;0.0716;-0.8121;
1097.7000;0.0692;-0.8210;
1098.0000;0.0724;-0.8099;
1098.3000;0.0724;-0.8033;
1098.6000;0.0684;-0.8121;
1098.9000;0.0708;-0.8165;
1099.2000;0.0724;-0.8033;
1099.5000;0.0749;-0.7966;
1099.8000;0.0724;-0.7966;
1100.1000;0.0749;-0.7944;
1100.4000;0.0733;-0.7988;
1100.7000;0.0733;-0.7944;
1101.0000;0.0724;-0.7988;
1101.3000;0.0724;-0.8010;
1101.6000;0.0733;-0.7966;
1101.9000;0.0741;-0.7988;
1102.2000;0.0700;-0.8010;
1102.5000;0.0733;-0.8055;
1102.8000;0.0741;-0.8010;
1103.1000;0.0733;-0.8010;
1103.4000;0.0724;-0.7900;
1103.7000;0.0724;-0.7878;
1104.0000;0.0749;-0.7922;
1104.3000;0.0749;-0.7944;
1104.6000;0.0757;-0.7900;
1104.9000;0.0741;-0.7944;
1105.2000;0.0724;-0.7944;
1105.5000;0.0708;-0.8010;
1105.8000;0.0667;-0.8254;
1106.1000;0.0724;-0.8121;
1106.4000;0.0765;-0.7988;
1106.7000;0.0700;-0.8077;
1107.0000;0.0733;-0.7988;
1107.3000;0.0684;-0.8055;
1107.6000;0.0724;-0.8033;
1107.9000;0.0700;-0.8099;
1108.2000;0.0716;-0.8121;
1108.5000;0.0708;-0.8143;
1108.8000;0.0724;-0.8033;
1109.1000;0.0733;-0.7988;
1109.4000;0.0651;-0.8210;
1109.7000;0.0724;-0.8033;
1110.0000;0.0741;-0.7966;
1110.3000;0.0724;-0.8055;
1110.6000;0.0667;-0.8143;
1110.9000;0.0724;-0.8033;
1111.2000;0.0724;-0.8077;
1111.5000;0.0733;-0.7944;
1111.8000;0.0724;-0.7944;
1112.1000;0.0733;-0.7944;
1112.4000;0.0741;-0.7878;
1112.7000;0.0790;-0.7833;
1113.0000;0.0700;-0.7988;
1113.3000;0.0749;-0.7944;
1113.6000;0.0700;-0.8033;
1113.9000;0.0708;-0.8055;
1114.2000;0.0716;-0.8010;
1114.5000;0.0733;-0.8033;
1114.8000;0.0716;-0.8033;
1115.1000;0.0724;-0.7966;
1115.4000;0.0724;-0.8077;
1115.7000;0.0733;-0.8121;
1116.0000;0.0724;-0.8165;
1116.3000;0.0724;-0.8165;
1116.6000;0.0716;-0.8121;
1116.9000;0.0724;-0.8165;
1117.2000;0.0724;-0.8254;
1117.5000;0.0741;-0.8254;
1117.8000;0.0684;-0.8276;
1118.1000;0.0724;-0.8165;
1118.4000;0.0700;-0.8210;
1118.7000;0.0716;-0.8143;
1119.0000;0.0741;-0.8121;
1119.3000;0.0749;-0.8077;
1119.6000;0.0733;-0.8033;
1119.9000;0.0708;-0.8187;
1120.2000;0.0724;-0.8121;
1120.5000;0.0716;-0.8077;
1120.8000;0.0716;-0.8033;
1121.1000;0.0798;-0.7833;
1121.4000;0.0708;-0.8077;
1121.7000;0.0692;-0.8077;
1122.0000;0.0724;-0.8055;
1122.3000;0.0724;-0.8055;
1122.6000;0.0700;-0.8210;
1122.9000;0.0676;-0.8342;
1123.2000;0.0716;-0.8276;
1123.5000;0.0733;-0.8232;
1123.8000;0.0716;-0.8320;
1124.1000;0.0733;-0.8232;
1124.4000;0.0619;-0.8497;
1124.7000;0.0724;-0.8254;
1125.0000;0.0700;-0.8342;
1125.3000;0.0724;-0.8276;
1125.6000;0.0716;-0.8320;
1125.9000;0.0716;-0.8320;
1126.2000;0.0716;-0.8276;
1126.5000;0.0733;-0.8276;
1126.8000;0.0716;-0.8254;
1127.1000;0.0724;-0.8254;
1127.4000;0.0724;-0.8187;
1127.7000;0.0741;-0.8143;
1128.0000;0.0724;-0.8165;
1128.3000;0.0716;-0.8165;
1128.6000;0.0741;-0.8165;
1128.9000;0.0749;-0.8210;
1129.2000;0.0700;-0.8298;
1129.5000;0.0716;-0.8320;
1129.8000;0.0733;-0.8210;
1130.1000;0.0716;-0.8320;
1130.4000;0.0692;-0.8364;
1130.7000;0.0765;-0.8187;
1131.0000;0.0724;-0.8210;
1131.3000;0.0724;-0.8298;
1131.6000;0.0724;-0.8187;
1131.9000;0.0716;-0.8187;
1132.2000;0.0724;-0.8210;
1132.5000;0.0692;-0.8276;
1132.8000;0.0765;-0.8077;
1133.1000;0.0716;-0.8099;
1133.4000;0.0790;-0.7900;
1133.7000;0.0749;-0.7966;
1134.0000;0.0700;-0.8143;
1134.3000;0.0716;-0.8121;
1134.6000;0.0676;-0.8187;
1134.9000;0.0781;-0.7900;
1135.2000;0.0724;-0.8033;
1135.5000;0.0716;-0.8077;
1135.8000;0.0724;-0.8055;
1136.1000;0.0733;-0.8077;
1136.4000;0.0684;-0.8210;
1136.7000;0.0724;-0.8121;
1137.0000;0.0692;-0.8187;
1137.3000;0.0733;-0.8143;
1137.6000;0.0724;-0.8055;
1137.9000;0.0741;-0.8055;
1138.2000;0.0733;-0.8033;
1138.5000;0.0724;-0.7988;
1138.8000;0.0733;-0.7944;
1139.1000;0.0724;-0.7966;
1139.4000;0.0741;-0.7855;
1139.7000;0.0741;-0.7878;
1140.0000;0.0757;-0.7745;
1140.3000;0.0749;-0.7767;
1140.6000;0.0724;-0.7878;
1140.9000;0.0741;-0.7855;
1141.2000;0.0822;-0.7723;
1141.5000;0.0733;-0.7944;
1141.8000;0.0611;-0.8364;
1142.1000;0.0724;-0.8077;
1142.4000;0.0700;-0.8232;
1142.7000;0.0724;-0.8165;
1143.0000;0.0684;-0.8276;
1143.3000;0.0651;-0.8387;
1143.6000;0.0733;-0.8254;
1143.9000;0.0716;-0.8232;
1144.2000;0.0733;-0.8210;
1144.5000;0.0798;-0.7988;
1144.8000;0.0733;-0.8143;
1145.1000;0.0822;-0.7833;
1145.4000;0.0733;-0.8033;
1145.7000;0.0716;-0.8121;
1146.0000;0.0700;-0.8298;
1146.3000;0.0700;-0.8320;
1146.6000;0.0708;-0.8320;
1146.9000;0.0716;-0.8364;
1147.2000;0.0790;-0.8165;
1147.5000;0.0733;-0.8276;
1147.8000;0.0724;-0.8276;
1148.1000;0.0708;-0.8254;
1148.4000;0.0708;-0.8187;
1148.7000;0.0716;-0.8276;
1149.0000;0.0716;-0.8254;
1149.3000;0.0749;-0.8276;
1149.6000;0.0749;-0.8320;
1149.9000;0.0733;-0.8298;
1150.2000;0.0716;-0.8431;
1150.5000;0.0724;-0.8431;
1150.8000;0.0724;-0.8409;
1151.1000;0.0781;-0.8298;
1151.4000;0.0716;-0.8409;
1151.7000;0.0716;-0.8475;
1152.0000;0.0733;-0.8409;
1152.3000;0.0708;-0.8431;
1152.6000;0.0708;-0.8387;
1152.9000;0.0716;-0.8364;
1153.2000;0.0716;-0.8320;
1153.5000;0.0700;-0.8298;
1153.8000;0.0724;-0.8298;
1154.1000;0.0749;-0.8298;
1154.4000;0.0708;-0.8342;
1154.7000;0.0749;-0.8232;
1155.0000;0.0700;-0.8320;
1155.3000;0.0716;-0.8254;
1155.6000;0.0692;-0.8320;
1155.9000;0.0733;-0.8187;
1156.2000;0.0708;-0.8099;
1156.5000;0.0684;-0.8077;
1156.8000;0.0716;-0.8010;
1157.1000;0.0708;-0.8077;
1157.4000;0.0692;-0.8099;
1157.7000;0.0781;-0.7944;
1158.0000;0.0700;-0.8143;
1158.3000;0.0700;-0.8165;
1158.6000;0.0757;-0.8077;
1158.9000;0.0724;-0.8121;
1159.2000;0.0716;-0.8232;
1159.5000;0.0749;-0.8298;
1159.8000;0.0724;-0.8276;
1160.1000;0.0733;-0.8210;
1160.4000;0.0733;-0.8210;
1160.7000;0.0790;-0.8099;
1161.0000;0.0733;-0.8298;
1161.3000;0.0708;-0.8342;
1161.6000;0.0741;-0.8187;
1161.9000;0.0724;-0.8232;
1162.2000;0.0749;-0.8165;
1162.5000;0.0733;-0.8165;
1162.8000;0.0676;-0.8232;
1163.1000;0.0676;-0.8210;
1163.4000;0.0757;-0.8033;
1163.7000;0.0757;-0.7988;
1164.0000;0.0733;-0.8055;
1164.3000;0.0757;-0.8010;
1164.6000;0.0716;-0.8055;
1164.9000;0.0806;-0.7789;
1165.2000;0.0741;-0.7966;
1165.5000;0.0790;-0.7900;
1165.8000;0.0659;-0.8187;
1166.1000;0.0733;-0.7988;
1166.4000;0.0708;-0.7966;
1166.7000;0.0692;-0.8055;
1167.0000;0.0757;-0.7922;
1167.3000;0.0716;-0.8077;
1167.6000;0.0765;-0.8077;
1167.9000;0.0790;-0.8033;
1168.2000;0.0733;-0.8121;
1168.5000;0.0651;-0.8254;
1168.8000;0.0676;-0.8099;
1169.1000;0.0781;-0.7878;
1169.4000;0.0724;-0.8033;
1169.7000;0.0700;-0.8055;
1170.0000;0.0806;-0.7922;
1170.3000;0.0733;-0.8165;
1170.6000;0.0724;-0.8210;
1170.9000;0.0684;-0.8342;
1171.2000;0.0765;-0.8165;
1171.5000;0.0716;-0.8320;
1171.8000;0.0749;-0.8210;
1172.1000;0.0708;-0.8298;
1172.4000;0.0749;-0.8254;
1172.7000;0.0708;-0.8276;
1173.0000;0.0692;-0.8254;
1173.3000;0.0708;-0.8254;
1173.6000;0.0716;-0.8342;
1173.9000;0.0684;-0.8475;
1174.2000;0.0733;-0.8431;
1174.5000;0.0716;-0.8453;
1174.8000;0.0741;-0.8342;
1175.1000;0.0749;-0.8298;
1175.4000;0.0708;-0.8387;
1175.7000;0.0724;-0.8409;
1176.0000;0.0684;-0.8453;
1176.3000;0.0733;-0.8409;
1176.6000;0.0708;-0.8387;
1176.9000;0.0684;-0.8409;
1177.2000;0.0716;-0.8320;
1177.5000;0.0724;-0.8409;
1177.8000;0.0773;-0.8210;
1178.1000;0.0700;-0.8475;
1178.4000;0.0708;-0.8431;
1178.7000;0.0700;-0.8431;
1179.0000;0.0708;-0.8387;
1179.3000;0.0716;-0.8320;
1179.6000;0.0708;-0.8364;
1179.9000;0.0733;-0.8320;
1180.2000;0.0716;-0.8298;
1180.5000;0.0757;-0.8121;
1180.8000;0.0700;-0.8342;
1181.1000;0.0724;-0.8254;
1181.4000;0.0741;-0.8254;
1181.7000;0.0749;-0.8210;
1182.0000;0.0716;-0.8276;
1182.3000;0.0716;-0.8364;
1182.6000;0.0928;-0.7789;
1182.9000;0.0749;-0.8210;
1183.2000;0.0749;-0.8210;
1183.5000;0.0708;-0.8387;
1183.8000;0.0716;-0.8364;
1184.1000;0.0700;-0.8342;
1184.4000;0.0741;-0.8298;
1184.7000;0.0757;-0.8121;
1185.0000;0.0733;-0.8210;
1185.3000;0.0749;-0.8143;
1185.6000;0.0716;-0.8254;
1185.9000;0.0724;-0.8232;
1186.2000;0.0757;-0.8143;
1186.5000;0.0741;-0.8165;
1186.8000;0.0700;-0.8210;
1187.1000;0.0741;-0.8165;
1187.4000;0.0700;-0.8232;
1187.7000;0.0708;-0.8210;
1188.0000;0.0708;-0.8143;
1188.3000;0.0724;-0.8099;
1188.6000;0.0700;-0.8187;
1188.9000;0.0716;-0.8210;
1189.2000;0.0716;-0.8165;
1189.5000;0.0716;-0.8276;
1189.8000;0.0798;-0.8077;
1190.1000;0.0716;-0.8210;
1190.4000;0.0716;-0.8187;
1190.7000;0.0724;-0.8165;
1191.0000;0.0757;-0.8121;
1191.3000;0.0773;-0.8099;
1191.6000;0.0667;-0.8320;
1191.9000;0.0692;-0.8276;
1192.2000;0.0733;-0.8232;
1192.5000;0.0708;-0.8187;
1192.8000;0.0659;-0.8298;
1193.1000;0.0700;-0.8210;
1193.4000;0.0741;-0.8077;
1193.7000;0.0733;-0.8165;
1194.0000;0.0676;-0.8320;
1194.3000;0.0708;-0.8187;
1194.6000;0.0749;-0.8055;
1194.9000;0.0741;-0.8077;
1195.2000;0.0708;-0.8121;
1195.5000;0.0716;-0.8077;
1195.8000;0.0757;-0.8010;
1196.1000;0.0733;-0.8077;
1196.4000;0.0724;-0.8077;
1196.7000;0.0700;-0.8143;
1197.0000;0.0733;-0.8055;
1197.3000;0.0708;-0.8099;
1197.6000;0.0708;-0.8143;
1197.9000;0.0700;-0.8254;
1198.2000;0.0716;-0.8320;
1198.5000;0.0749;-0.8254;
1198.8000;0.0708;-0.8342;
1199.1000;0.0724;-0.8431;
1199.4000;0.0757;-0.8320;
1199.7000;0.0708;-0.8342;
1200.0000;0.0733;-0.8232;
1200.3000;0.0724;-0.8320;
1200.6000;0.0724;-0.8364;
1200.9000;0.0716;-0.8320;
1201.2000;0.0724;-0.8276;
1201.5000;0.0741;-0.8232;
1201.8000;0.0716;-0.8409;
1202.1000;0.0733;-0.8409;
1202.4000;0.0700;-0.8497;
1202.7000;0.0724;-0.8320;
1203.0000;0.0749;-0.8232;
1203.3000;0.0830;-0.8033;
1203.6000;0.0814;-0.8143;
1203.9000;0.0708;-0.8409;
1204.2000;0.0733;-0.8298;
1204.5000;0.0741;-0.8254;
1204.8000;0.0684;-0.8320;
1205.1000;0.0692;-0.8320;
1205.4000;0.0790;-0.8165;
1205.7000;0.0716;-0.8409;
1206.0000;0.0749;-0.8475;
1206.3000;0.0724;-0.8564;
1206.6000;0.0676;-0.8586;
1206.9000;0.0724;-0.8475;
1207.2000;0.0733;-0.8453;
1207.5000;0.0716;-0.8453;
1207.8000;0.0733;-0.8342;
1208.1000;0.0741;-0.8298;
1208.4000;0.0773;-0.8143;
1208.7000;0.0847;-0.7988;
1209.0000;0.0700;-0.8254;
1209.3000;0.0741;-0.8232;
1209.6000;0.0708;-0.8387;
1209.9000;0.0773;-0.8121;
1210.2000;0.0765;-0.8187;
1210.5000;0.0749;-0.8276;
1210.8000;0.0847;-0.7966;
1211.1000;0.0724;-0.8210;
1211.4000;0.0790;-0.8033;
1211.7000;0.0733;-0.8210;
1212.0000;0.0741;-0.8121;
1212.3000;0.0716;-0.8099;
1212.6000;0.0757;-0.7966;
1212.9000;0.0708;-0.8232;
1213.2000;0.0676;-0.8320;
1213.5000;0.0700;-0.8320;
1213.8000;0.0749;-0.8165;
1214.1000;0.0716;-0.8320;
1214.4000;0.0733;-0.8298;
1214.7000;0.0741;-0.8165;
1215.0000;0.0724;-0.8143;
1215.3000;0.0724;-0.8210;
1215.6000;0.0741;-0.8165;
1215.9000;0.0724;-0.8320;
1216.2000;0.0773;-0.8254;
1216.5000;0.0676;-0.8475;
1216.8000;0.0741;-0.8276;
1217.1000;0.0692;-0.8497;
1217.4000;0.0692;-0.8519;
1217.7000;0.0757;-0.8364;
1218.0000;0.0716;-0.8431;
1218.3000;0.0716;-0.8409;
1218.6000;0.0708;-0.8431;
1218.9000;0.0733;-0.8409;
1219.2000;0.0749;-0.8409;
1219.5000;0.0749;-0.8364;
1219.8000;0.0733;-0.8364;
1220.1000;0.0749;-0.8254;
1220.4000;0.0692;-0.8364;
1220.7000;0.0724;-0.8320;
1221.0000;0.0692;-0.8342;
1221.3000;0.0733;-0.8165;
1221.6000;0.0692;-0.8320;
1221.9000;0.0733;-0.8232;
1222.2000;0.0700;-0.8364;
1222.5000;0.0724;-0.8387;
1222.8000;0.0708;-0.8431;
1223.1000;0.0708;-0.8453;
1223.4000;0.0667;-0.8586;
1223.7000;0.0700;-0.8431;
1224.0000;0.0676;-0.8541;
1224.3000;0.0741;-0.8364;
1224.6000;0.0741;-0.8431;
1224.9000;0.0716;-0.8453;
1225.2000;0.0716;-0.8497;
1225.5000;0.0749;-0.8453;
1225.8000;0.0765;-0.8210;
1226.1000;0.0724;-0.8298;
1226.4000;0.0708;-0.8320;
1226.7000;0.0692;-0.8409;
1227.0000;0.0724;-0.8364;
1227.3000;0.0724;-0.8298;
1227.6000;0.0765;-0.8165;
1227.9000;0.0692;-0.8364;
1228.2000;0.0724;-0.8298;
1228.5000;0.0716;-0.8320;
1228.8000;0.0733;-0.8342;
1229.1000;0.0716;-0.8387;
1229.4000;0.0749;-0.8409;
1229.7000;0.0749;-0.8364;
1230.0000;0.0806;-0.8187;
1230.3000;0.0741;-0.8320;
1230.6000;0.0741;-0.8276;
1230.9000;0.0724;-0.8276;
1231.2000;0.0708;-0.8320;
1231.5000;0.0733;-0.8276;
1231.8000;0.0741;-0.8254;
1232.1000;0.0724;-0.8320;
1232.4000;0.0724;-0.8254;
1232.7000;0.0708;-0.8276;
1233.0000;0.0733;-0.8254;
1233.3000;0.0708;-0.8276;
1233.6000;0.0708;-0.8298;
1233.9000;0.0716;-0.8232;
1234.2000;0.0806;-0.8010;
1234.5000;0.0700;-0.8232;
1234.8000;0.0716;-0.8210;
1235.1000;0.0724;-0.8276;
1235.4000;0.0708;-0.8298;
1235.7000;0.0651;-0.8431;
1236.0000;0.0692;-0.8409;
1236.3000;0.0692;-0.8320;
1236.6000;0.0724;-0.8232;
1236.9000;0.0562;-0.8541;
1237.2000;0.0806;-0.8010;
1237.5000;0.0749;-0.8077;
1237.8000;0.0724;-0.8187;
1238.1000;0.0724;-0.8165;
1238.4000;0.0733;-0.8143;
1238.7000;0.0741;-0.8210;
1239.0000;0.0733;-0.8276;
1239.3000;0.0716;-0.8276;
1239.6000;0.0733;-0.8298;
1239.9000;0.0733;-0.8254;
1240.2000;0.0724;-0.8276;
1240.5000;0.0708;-0.8232;
1240.8000;0.0724;-0.8143;
1241.1000;0.0708;-0.8210;
1241.4000;0.0765;-0.8165;
1241.7000;0.0741;-0.8232;
1242.0000;0.0716;-0.8232;
1242.3000;0.0716;-0.8187;
1242.6000;0.0724;-0.8165;
1242.9000;0.0741;-0.8033;
1243.2000;0.0724;-0.8121;
1243.5000;0.0716;-0.8165;
1243.8000;0.0716;-0.8210;
1244.1000;0.0741;-0.8165;
1244.4000;0.0741;-0.8187;
1244.7000;0.0708;-0.8276;
1245.0000;0.0643;-0.8431;
1245.3000;0.0724;-0.8143;
1245.6000;0.0724;-0.8143;
1245.9000;0.0684;-0.8298;
1246.2000;0.0716;-0.8254;
1246.5000;0.0741;-0.8210;
1246.8000;0.0716;-0.8210;
1247.1000;0.0733;-0.8187;
1247.4000;0.0741;-0.8121;
1247.7000;0.0741;-0.8210;
1248.0000;0.0676;-0.8431;
1248.3000;0.0708;-0.8342;
1248.6000;0.0733;-0.8342;
1248.9000;0.0651;-0.8564;
1249.2000;0.0741;-0.8364;
1249.5000;0.0708;-0.8453;
1249.8000;0.0765;-0.8298;
1250.1000;0.0716;-0.8409;
1250.4000;0.0716;-0.8364;
1250.7000;0.0733;-0.8320;
1251.0000;0.0700;-0.8387;
1251.3000;0.0708;-0.8364;
1251.6000;0.0724;-0.8298;
1251.9000;0.0724;-0.8232;
1252.2000;0.0741;-0.8121;
1252.5000;0.0635;-0.8364;
1252.8000;0.0676;-0.8254;
1253.1000;0.0716;-0.8254;
1253.4000;0.0814;-0.8077;
1253.7000;0.0733;-0.8254;
1254.0000;0.0724;-0.8165;
1254.3000;0.0741;-0.8187;
1254.6000;0.0733;-0.8254;
1254.9000;0.0733;-0.8298;
1255.2000;0.0741;-0.8298;
1255.5000;0.0741;-0.8254;
1255.8000;0.0700;-0.8276;
1256.1000;0.0716;-0.8254;
1256.4000;0.0716;-0.8387;
1256.7000;0.0733;-0.8276;
1257.0000;0.0741;-0.8210;
1257.3000;0.0684;-0.8298;
1257.6000;0.0708;-0.8210;
1257.9000;0.0741;-0.8232;
1258.2000;0.0733;-0.8276;
1258.5000;0.0733;-0.8232;
1258.8000;0.0692;-0.8254;
1259.1000;0.0741;-0.8165;
1259.4000;0.0708;-0.8276;
1259.7000;0.0781;-0.8055;
1260.0000;0.0781;-0.8055;
1260.3000;0.0733;-0.8276;
1260.6000;0.0716;-0.8276;
1260.9000;0.0578;-0.8541;
1261.2000;0.0659;-0.8387;
1261.5000;0.0700;-0.8254;
1261.8000;0.0700;-0.8320;
1262.1000;0.0724;-0.8254;
1262.4000;0.0708;-0.8342;
1262.7000;0.0684;-0.8298;
1263.0000;0.0724;-0.8210;
1263.3000;0.0733;-0.8143;
1263.6000;0.0700;-0.8232;
1263.9000;0.0651;-0.8364;
1264.2000;0.0733;-0.8165;
1264.5000;0.0724;-0.8165;
1264.8000;0.0741;-0.8165;
1265.1000;0.0741;-0.8165;
1265.4000;0.0781;-0.8033;
1265.7000;0.0741;-0.8010;
1266.0000;0.0733;-0.8077;
1266.3000;0.0733;-0.8055;
1266.6000;0.0724;-0.7966;
1266.9000;0.0708;-0.8055;
1267.2000;0.0724;-0.8099;
1267.5000;0.0741;-0.8165;
1267.8000;0.0741;-0.8210;
1268.1000;0.0757;-0.8165;
1268.4000;0.0741;-0.8210;
1268.7000;0.0741;-0.8143;
1269.0000;0.0716;-0.8099;
1269.3000;0.0733;-0.8099;
1269.6000;0.0635;-0.8342;
1269.9000;0.0724;-0.8099;
1270.2000;0.0667;-0.8320;
1270.5000;0.0708;-0.8254;
1270.8000;0.0724;-0.8254;
1271.1000;0.0700;-0.8364;
1271.4000;0.0781;-0.8254;
1271.7000;0.0733;-0.8409;
1272.0000;0.0773;-0.8387;
1272.3000;0.0716;-0.8431;
1272.6000;0.0724;-0.8342;
1272.9000;0.0700;-0.8387;
1273.2000;0.0724;-0.8320;
1273.5000;0.0733;-0.8342;
1273.8000;0.0733;-0.8387;
1274.1000;0.0724;-0.8431;
1274.4000;0.0716;-0.8431;
1274.7000;0.0773;-0.8387;
1275.0000;0.0700;-0.8586;
1275.3000;0.0724;-0.8519;
1275.6000;0.0733;-0.8497;
1275.9000;0.0733;-0.8475;
1276.2000;0.0749;-0.8431;
1276.5000;0.0733;-0.8320;
1276.8000;0.0708;-0.8342;
1277.1000;0.0716;-0.8320;
1277.4000;0.0749;-0.8165;
1277.7000;0.0716;-0.8254;
1278.0000;0.0716;-0.8342;
1278.3000;0.0708;-0.8409;
1278.6000;0.0700;-0.8453;
1278.9000;0.0733;-0.8342;
1279.2000;0.0733;-0.8364;
1279.5000;0.0724;-0.8320;
1279.8000;0.0716;-0.8320;
1280.1000;0.0724;-0.8232;
1280.4000;0.0757;-0.8165;
1280.7000;0.0733;-0.8165;
1281.0000;0.0724;-0.8187;
1281.3000;0.0692;-0.8364;
1281.6000;0.0724;-0.8276;
1281.9000;0.0692;-0.8431;
1282.2000;0.0643;-0.8586;
1282.5000;0.0733;-0.8320;
1282.8000;0.0733;-0.8298;
1283.1000;0.0708;-0.8364;
1283.4000;0.0814;-0.8055;
1283.7000;0.0790;-0.8033;
1284.0000;0.0724;-0.8210;
1284.3000;0.0716;-0.8298;
1284.6000;0.0724;-0.8298;
1284.9000;0.0635;-0.8608;
1285.2000;0.0741;-0.8276;
1285.5000;0.0716;-0.8431;
1285.8000;0.0757;-0.8298;
1286.1000;0.0749;-0.8276;
1286.4000;0.0741;-0.8254;
1286.7000;0.0724;-0.8320;
1287.0000;0.0708;-0.8387;
1287.3000;0.0733;-0.8298;
1287.6000;0.0741;-0.8254;
1287.9000;0.0716;-0.8320;
1288.2000;0.0667;-0.8453;
1288.5000;0.0733;-0.8254;
1288.8000;0.0716;-0.8276;
1289.1000;0.0716;-0.8298;
1289.4000;0.0733;-0.8298;
1289.7000;0.0700;-0.8276;
1290.0000;0.0765;-0.8165;
1290.3000;0.0724;-0.8232;
1290.6000;0.0708;-0.8210;
1290.9000;0.0724;-0.8121;
1291.2000;0.0716;-0.8187;
1291.5000;0.0765;-0.8033;
1291.8000;0.0757;-0.8055;
1292.1000;0.0667;-0.8342;
1292.4000;0.0724;-0.8143;
1292.7000;0.0667;-0.8320;
1293.0000;0.0716;-0.8187;
1293.3000;0.0724;-0.8210;
1293.6000;0.0757;-0.8121;
1293.9000;0.0741;-0.8165;
1294.2000;0.0741;-0.8099;
1294.5000;0.0724;-0.8210;
1294.8000;0.0757;-0.8232;
1295.1000;0.0724;-0.8342;
1295.4000;0.0822;-0.8055;
1295.7000;0.0814;-0.8077;
1296.0000;0.0741;-0.8165;
1296.3000;0.0733;-0.8165;
1296.6000;0.0724;-0.8165;
1296.9000;0.0700;-0.8187;
1297.2000;0.0692;-0.8254;
1297.5000;0.0627;-0.8475;
1297.8000;0.0749;-0.8099;
1298.1000;0.0708;-0.8276;
1298.4000;0.0749;-0.8143;
1298.7000;0.0724;-0.8099;
1299.0000;0.0757;-0.8121;
1299.3000;0.0749;-0.8165;
1299.6000;0.0765;-0.8077;
1299.9000;0.0724;-0.8143;
1300.2000;0.0749;-0.8143;
1300.5000;0.0651;-0.8387;
1300.8000;0.0749;-0.7988;
1301.1000;0.0724;-0.8055;
1301.4000;0.0724;-0.8121;
1301.7000;0.0733;-0.8165;
1302.0000;0.0765;-0.8143;
1302.3000;0.0733;-0.8232;
1302.6000;0.0716;-0.8165;
1302.9000;0.0716;-0.8099;
1303.2000;0.0716;-0.8121;
1303.5000;0.0724;-0.8055;
1303.8000;0.0724;-0.8099;
1304.1000;0.0708;-0.8165;
1304.4000;0.0708;-0.8187;
1304.7000;0.0716;-0.8210;
1305.0000;0.0667;-0.8320;
1305.3000;0.0708;-0.8187;
1305.6000;0.0733;-0.8121;
1305.9000;0.0708;-0.8165;
1306.2000;0.0708;-0.8121;
1306.5000;0.0716;-0.8077;
1306.8000;0.0733;-0.7988;
1307.1000;0.0733;-0.7900;
1307.4000;0.0773;-0.7833;
1307.7000;0.0700;-0.7966;
1308.0000;0.0716;-0.8010;
1308.3000;0.0733;-0.8033;
1308.6000;0.0700;-0.8165;
1308.9000;0.0749;-0.8033;
1309.2000;0.0716;-0.8143;
1309.5000;0.0733;-0.8121;
1309.8000;0.0765;-0.8055;
1310.1000;0.0733;-0.8099;
1310.4000;0.0716;-0.8143;
1310.7000;0.0765;-0.8010;
1311.0000;0.0749;-0.8055;
1311.3000;0.0724;-0.8099;
1311.6000;0.0716;-0.8143;
1311.9000;0.0741;-0.8033;
1312.2000;0.0806;-0.7855;
1312.5000;0.0724;-0.8077;
1312.8000;0.0667;-0.8143;
1313.1000;0.0684;-0.8099;
1313.4000;0.0708;-0.8187;
1313.7000;0.0716;-0.8187;
1314.0000;0.0724;-0.8232;
1314.3000;0.0749;-0.8187;
1314.6000;0.0749;-0.8165;
1314.9000;0.0741;-0.8121;
1315.2000;0.0733;-0.8077;
1315.5000;0.0781;-0.7988;
1315.8000;0.0757;-0.8077;
1316.1000;0.0733;-0.8121;
1316.4000;0.0741;-0.8099;
1316.7000;0.0602;-0.8320;
1317.0000;0.0708;-0.8055;
1317.3000;0.0619;-0.8342;
1317.6000;0.0716;-0.8077;
1317.9000;0.0724;-0.7944;
1318.2000;0.0716;-0.8143;
1318.5000;0.0667;-0.8121;
1318.8000;0.0716;-0.7944;
1319.1000;0.0716;-0.7878;
1319.4000;0.0733;-0.7878;
1319.7000;0.0749;-0.7789;
1320.0000;0.0741;-0.7900;
1320.3000;0.0708;-0.8143;
1320.6000;0.0765;-0.7988;
1320.9000;0.0724;-0.8055;
1321.2000;0.0724;-0.8055;
1321.5000;0.0602;-0.8409;
1321.8000;0.0781;-0.7944;
1322.1000;0.0700;-0.8210;
1322.4000;0.0724;-0.8165;
1322.7000;0.0708;-0.8232;
1323.0000;0.0733;-0.8121;
1323.3000;0.0741;-0.8099;
1323.6000;0.0765;-0.7966;
1323.9000;0.0724;-0.8121;
1324.2000;0.0741;-0.8165;
1324.5000;0.0733;-0.8254;
1324.8000;0.0741;-0.8143;
1325.1000;0.0708;-0.8276;
1325.4000;0.0741;-0.8320;
1325.7000;0.0724;-0.8387;
1326.0000;0.0733;-0.8453;
1326.3000;0.0716;-0.8431;
1326.6000;0.0716;-0.8409;
1326.9000;0.0773;-0.8276;
1327.2000;0.0733;-0.8387;
1327.5000;0.0708;-0.8364;
1327.8000;0.0733;-0.8342;
1328.1000;0.0733;-0.8298;
1328.4000;0.0757;-0.8254;
1328.7000;0.0708;-0.8276;
1329.0000;0.0749;-0.8187;
1329.3000;0.0724;-0.8165;
1329.6000;0.0733;-0.8187;
1329.9000;0.0708;-0.8232;
1330.2000;0.0806;-0.8077;
1330.5000;0.0741;-0.8298;
1330.8000;0.0773;-0.8165;
1331.1000;0.0724;-0.8276;
1331.4000;0.0708;-0.8254;
1331.7000;0.0700;-0.8232;
1332.0000;0.0724;-0.8165;
1332.3000;0.0676;-0.8387;
1332.6000;0.0692;-0.8342;
1332.9000;0.0700;-0.8187;
1333.2000;0.0708;-0.8143;
1333.5000;0.0708;-0.8254;
1333.8000;0.0741;-0.8232;
1334.1000;0.0708;-0.8431;
1334.4000;0.0716;-0.8519;
1334.7000;0.0716;-0.8409;
1335.0000;0.0627;-0.8497;
1335.3000;0.0733;-0.8187;
1335.6000;0.0700;-0.8187;
1335.9000;0.0806;-0.7944;
1336.2000;0.0667;-0.8320;
1336.5000;0.0700;-0.8276;
1336.8000;0.0741;-0.8165;
1337.1000;0.0757;-0.8077;
1337.4000;0.0700;-0.8210;
1337.7000;0.0700;-0.8254;
1338.0000;0.0570;-0.8453;
1338.3000;0.0733;-0.8033;
1338.6000;0.0708;-0.8099;
1338.9000;0.0708;-0.8055;
1339.2000;0.0733;-0.8055;
1339.5000;0.0708;-0.8121;
1339.8000;0.0733;-0.8099;
1340.1000;0.0716;-0.8165;
1340.4000;0.0659;-0.8387;
1340.7000;0.0716;-0.8276;
1341.0000;0.0749;-0.8232;
1341.3000;0.0733;-0.8232;
1341.6000;0.0708;-0.8276;
1341.9000;0.0692;-0.8276;
1342.2000;0.0700;-0.8165;
1342.5000;0.0708;-0.8099;
1342.8000;0.0733;-0.8055;
1343.1000;0.0716;-0.8077;
1343.4000;0.0830;-0.7767;
1343.7000;0.0659;-0.8187;
1344.0000;0.0708;-0.8099;
1344.3000;0.0708;-0.8077;
1344.6000;0.0781;-0.7966;
1344.9000;0.0716;-0.8010;
1345.2000;0.0716;-0.8010;
1345.5000;0.0716;-0.7966;
1345.8000;0.0733;-0.7855;
1346.1000;0.0692;-0.7900;
1346.4000;0.0773;-0.7855;
1346.7000;0.0724;-0.8055;
1347.0000;0.0741;-0.7922;
1347.3000;0.0716;-0.7922;
1347.6000;0.0741;-0.7789;
1347.9000;0.0708;-0.7900;
1348.2000;0.0724;-0.7878;
1348.5000;0.0692;-0.7988;
1348.8000;0.0733;-0.7944;
1349.1000;0.0733;-0.7922;
1349.4000;0.0733;-0.7944;
1349.7000;0.0667;-0.8121;
1350.0000;0.0708;-0.8099;
1350.3000;0.0724;-0.8077;
1350.6000;0.0716;-0.8033;
1350.9000;0.0692;-0.8099;
1351.2000;0.0708;-0.8055;
1351.5000;0.0716;-0.8055;
1351.8000;0.0733;-0.7944;
1352.1000;0.0708;-0.7966;
1352.4000;0.0700;-0.7966;
1352.7000;0.0733;-0.7900;
1353.0000;0.0700;-0.8099;
1353.3000;0.0716;-0.8077;
1353.6000;0.0708;-0.8099;
1353.9000;0.0692;-0.8165;
1354.2000;0.0733;-0.8033;
1354.5000;0.0716;-0.7988;
1354.8000;0.0741;-0.7988;
1355.1000;0.0749;-0.7988;
1355.4000;0.0822;-0.7855;
1355.7000;0.0716;-0.8143;
1356.0000;0.0667;-0.8232;
1356.3000;0.0708;-0.8187;
1356.6000;0.0724;-0.8143;
1356.9000;0.0635;-0.8276;
1357.2000;0.0716;-0.8077;
1357.5000;0.0700;-0.8121;
1357.8000;0.0692;-0.8077;
1358.1000;0.0692;-0.8055;
1358.4000;0.0741;-0.8033;
1358.7000;0.0716;-0.8033;
1359.0000;0.0716;-0.8033;
1359.3000;0.0708;-0.8055;
1359.6000;0.0708;-0.8033;
1359.9000;0.0602;-0.8254;
1360.2000;0.0749;-0.7922;
1360.5000;0.0749;-0.7900;
1360.8000;0.0733;-0.7878;
1361.1000;0.0700;-0.8010;
1361.4000;0.0708;-0.8099;
1361.7000;0.0716;-0.8121;
1362.0000;0.0724;-0.8099;
1362.3000;0.0749;-0.8121;
1362.6000;0.0700;-0.8121;
1362.9000;0.0692;-0.8077;
1363.2000;0.0733;-0.7944;
1363.5000;0.0847;-0.7789;
1363.8000;0.0716;-0.8055;
1364.1000;0.0716;-0.8010;
1364.4000;0.0790;-0.7833;
1364.7000;0.0700;-0.8077;
1365.0000;0.0733;-0.8055;
1365.3000;0.0724;-0.8077;
1365.6000;0.0700;-0.8165;
1365.9000;0.0724;-0.8210;
1366.2000;0.0733;-0.8210;
1366.5000;0.0724;-0.8232;
1366.8000;0.0733;-0.8232;
1367.1000;0.0733;-0.8232;
1367.4000;0.0741;-0.8232;
1367.7000;0.0733;-0.8232;
1368.0000;0.0708;-0.8298;
1368.3000;0.0700;-0.8320;
1368.6000;0.0716;-0.8254;
1368.9000;0.0749;-0.8165;
1369.2000;0.0716;-0.8276;
1369.5000;0.0724;-0.8276;
1369.8000;0.0733;-0.8254;
1370.1000;0.0733;-0.8187;
1370.4000;0.0741;-0.8055;
1370.7000;0.0733;-0.8077;
1371.0000;0.0781;-0.7900;
1371.3000;0.0741;-0.8055;
1371.6000;0.0716;-0.8077;
1371.9000;0.0700;-0.8143;
1372.2000;0.0749;-0.8143;
1372.5000;0.0822;-0.7988;
1372.8000;0.0847;-0.7944;
1373.1000;0.0741;-0.8187;
1373.4000;0.0733;-0.8143;
1373.7000;0.0830;-0.7855;
1374.0000;0.0765;-0.7944;
1374.3000;0.0708;-0.8099;
1374.6000;0.0724;-0.8055;
1374.9000;0.0716;-0.8055;
1375.2000;0.0716;-0.8143;
1375.5000;0.0684;-0.8298;
1375.8000;0.0781;-0.8099;
1376.1000;0.0708;-0.8254;
1376.4000;0.0733;-0.8187;
1376.7000;0.0765;-0.8010;
1377.0000;0.0700;-0.8187;
1377.3000;0.0676;-0.8232;
1377.6000;0.0733;-0.8099;
1377.9000;0.0724;-0.8165;
1378.2000;0.0716;-0.8210;
1378.5000;0.0708;-0.8210;
1378.8000;0.0724;-0.8121;
1379.1000;0.0716;-0.8187;
1379.4000;0.0716;-0.8187;
1379.7000;0.0749;-0.8187;
1380.0000;0.0716;-0.8276;
1380.3000;0.0773;-0.8033;
1380.6000;0.0749;-0.8055;
1380.9000;0.0708;-0.8187;
1381.2000;0.0741;-0.8143;
1381.5000;0.0724;-0.8055;
1381.8000;0.0667;-0.8232;
1382.1000;0.0790;-0.7922;
1382.4000;0.0716;-0.8165;
1382.7000;0.0733;-0.8187;
1383.0000;0.0790;-0.8010;
1383.3000;0.0659;-0.8320;
1383.6000;0.0741;-0.8099;
1383.9000;0.0570;-0.8453;
1384.2000;0.0708;-0.8077;
1384.5000;0.0692;-0.8121;
1384.8000;0.0716;-0.8099;
1385.1000;0.0733;-0.8099;
1385.4000;0.0822;-0.7922;
1385.7000;0.0700;-0.8077;
1386.0000;0.0724;-0.7966;
1386.3000;0.0781;-0.7900;
1386.6000;0.0733;-0.7944;
1386.9000;0.0684;-0.8099;
1387.2000;0.0708;-0.8033;
1387.5000;0.0700;-0.8055;
1387.8000;0.0733;-0.7966;
1388.1000;0.0724;-0.8077;
1388.4000;0.0757;-0.8077;
1388.7000;0.0749;-0.8143;
1389.0000;0.0708;-0.8210;
1389.3000;0.0724;-0.8143;
1389.6000;0.0708;-0.8143;
1389.9000;0.0716;-0.8077;
1390.2000;0.0733;-0.8010;
1390.5000;0.0692;-0.8121;
1390.8000;0.0716;-0.8143;
1391.1000;0.0741;-0.8077;
1391.4000;0.0708;-0.8143;
1391.7000;0.0708;-0.8232;
1392.0000;0.0733;-0.8187;
1392.3000;0.0733;-0.8165;
1392.6000;0.0749;-0.8055;
1392.9000;0.0716;-0.8077;
1393.2000;0.0659;-0.8165;
1393.5000;0.0708;-0.8033;
1393.8000;0.0708;-0.8033;
1394.1000;0.0733;-0.7922;
1394.4000;0.0578;-0.8320;
1394.7000;0.0700;-0.8055;
1395.0000;0.0749;-0.7900;
1395.3000;0.0716;-0.7988;
1395.6000;0.0724;-0.8055;
1395.9000;0.0708;-0.8055;
1396.2000;0.0708;-0.8055;
1396.5000;0.0765;-0.7966;
1396.8000;0.0733;-0.7922;
1397.1000;0.0733;-0.7922;
1397.4000;0.0708;-0.8033;
1397.7000;0.0716;-0.8099;
1398.0000;0.0733;-0.8055;
1398.3000;0.0708;-0.8099;
1398.6000;0.0716;-0.8165;
1398.9000;0.0708;-0.8210;
1399.2000;0.0757;-0.8099;
1399.5000;0.0749;-0.8121;
1399.8000;0.0716;-0.8210;
