time/ms;Fluo/V;P700 deltaI/I x10³;
-199.8000;0.0708;-0.7457;
-199.5000;0.0724;-0.7546;
-199.2000;0.0724;-0.7634;
-198.9000;0.0733;-0.7612;
-198.6000;0.0708;-0.7612;
-198.3000;0.0879;-0.7125;
-198.0000;0.0700;-0.7568;
-197.7000;0.0724;-0.7590;
-197.4000;0.0700;-0.7656;
-197.1000;0.0724;-0.7634;
-196.8000;0.0700;-0.7701;
-196.5000;0.0733;-0.7745;
-196.2000;0.0602;-0.7833;
-195.9000;0.0708;-0.7568;
-195.6000;0.0692;-0.7590;
-195.3000;0.0757;-0.7413;
-195.0000;0.0724;-0.7457;
-194.7000;0.0724;-0.7413;
-194.4000;0.0676;-0.7656;
-194.1000;0.0716;-0.7590;
-193.8000;0.0724;-0.7634;
-193.5000;0.0724;-0.7590;
-193.2000;0.0724;-0.7546;
-192.9000;0.0724;-0.7479;
-192.6000;0.0716;-0.7413;
-192.3000;0.0741;-0.7347;
-192.0000;0.0708;-0.7413;
-191.7000;0.0781;-0.7236;
-191.4000;0.0733;-0.7413;
-191.1000;0.0724;-0.7546;
-190.8000;0.0716;-0.7524;
-190.5000;0.0757;-0.7457;
-190.2000;0.0814;-0.7302;
-189.9000;0.0708;-0.7568;
-189.6000;0.0659;-0.7612;
-189.3000;0.0602;-0.7656;
-189.0000;0.0716;-0.7457;
-188.7000;0.0724;-0.7435;
-188.4000;0.0684;-0.7568;
-188.1000;0.0749;-0.7435;
-187.8000;0.0716;-0.7568;
-187.5000;0.0716;-0.7568;
-187.2000;0.0724;-0.7568;
-186.9000;0.0724;-0.7524;
-186.6000;0.0708;-0.7546;
-186.3000;0.0708;-0.7546;
-186.0000;0.0733;-0.7479;
-185.7000;0.0724;-0.7524;
-185.4000;0.0741;-0.7546;
-185.1000;0.0733;-0.7501;
-184.8000;0.0667;-0.7656;
-184.5000;0.0708;-0.7501;
-184.2000;0.0749;-0.7457;
-183.9000;0.0790;-0.7347;
-183.6000;0.0741;-0.7479;
-183.3000;0.0545;-0.7900;
-183.0000;0.0700;-0.7524;
-182.7000;0.0594;-0.7855;
-182.4000;0.0741;-0.7546;
-182.1000;0.0667;-0.7701;
-181.8000;0.0733;-0.7590;
-181.5000;0.0692;-0.7701;
-181.2000;0.0700;-0.7590;
-180.9000;0.0716;-0.7479;
-180.6000;0.0806;-0.7214;
-180.3000;0.0716;-0.7546;
-180.0000;0.0716;-0.7568;
-179.7000;0.0692;-0.7678;
-179.4000;0.0724;-0.7612;
-179.1000;0.0708;-0.7612;
-178.8000;0.0692;-0.7656;
-178.5000;0.0708;-0.7656;
-178.2000;0.0700;-0.7678;
-177.9000;0.0733;-0.7612;
-177.6000;0.0708;-0.7656;
-177.3000;0.0733;-0.7479;
-177.0000;0.0716;-0.7524;
-176.7000;0.0773;-0.7391;
-176.4000;0.0757;-0.7457;
-176.1000;0.0716;-0.7634;
-175.8000;0.0708;-0.7590;
-175.5000;0.0692;-0.7634;
-175.2000;0.0708;-0.7590;
-174.9000;0.0716;-0.7634;
-174.6000;0.0708;-0.7789;
-174.3000;0.0724;-0.7745;
-174.0000;0.0724;-0.7723;
-173.7000;0.0700;-0.7745;
-173.4000;0.0684;-0.7878;
-173.1000;0.0765;-0.7745;
-172.8000;0.0700;-0.7900;
-172.5000;0.0741;-0.7833;
-172.2000;0.0741;-0.7767;
-171.9000;0.0692;-0.7855;
-171.6000;0.0700;-0.7789;
-171.3000;0.0716;-0.7789;
-171.0000;0.0741;-0.7745;
-170.7000;0.0667;-0.7944;
-170.4000;0.0692;-0.7789;
-170.1000;0.0724;-0.7678;
-169.8000;0.0757;-0.7546;
-169.5000;0.0724;-0.7612;
-169.2000;0.0708;-0.7634;
-168.9000;0.0749;-0.7634;
-168.6000;0.0863;-0.7302;
-168.3000;0.0716;-0.7612;
-168.0000;0.0716;-0.7612;
-167.7000;0.0700;-0.7678;
-167.4000;0.0667;-0.7811;
-167.1000;0.0684;-0.7745;
-166.8000;0.0749;-0.7590;
-166.5000;0.0749;-0.7546;
-166.2000;0.0716;-0.7634;
-165.9000;0.0708;-0.7656;
-165.6000;0.0716;-0.7612;
-165.3000;0.0724;-0.7590;
-165.0000;0.0724;-0.7612;
-164.7000;0.0724;-0.7678;
-164.4000;0.0700;-0.7723;
-164.1000;0.0724;-0.7590;
-163.8000;0.0684;-0.7678;
-163.5000;0.0684;-0.7745;
-163.2000;0.0692;-0.7701;
-162.9000;0.0749;-0.7590;
-162.6000;0.0643;-0.7767;
-162.3000;0.0724;-0.7524;
-162.0000;0.0724;-0.7546;
-161.7000;0.0814;-0.7391;
-161.4000;0.0724;-0.7546;
-161.1000;0.0692;-0.7678;
-160.8000;0.0741;-0.7656;
-160.5000;0.0716;-0.7612;
-160.2000;0.0724;-0.7590;
-159.9000;0.0741;-0.7546;
-159.6000;0.0790;-0.7457;
-159.3000;0.0830;-0.7457;
-159.0000;0.0684;-0.7745;
-158.7000;0.0627;-0.7811;
-158.4000;0.0741;-0.7457;
-158.1000;0.0798;-0.7236;
-157.8000;0.0692;-0.7413;
-157.5000;0.0724;-0.7302;
-157.2000;0.0708;-0.7435;
-156.9000;0.0716;-0.7501;
-156.6000;0.0724;-0.7568;
-156.3000;0.0733;-0.7524;
-156.0000;0.0700;-0.7568;
-155.7000;0.0798;-0.7391;
-155.4000;0.0757;-0.7479;
-155.1000;0.0724;-0.7568;
-154.8000;0.0741;-0.7568;
-154.5000;0.0733;-0.7546;
-154.2000;0.0700;-0.7546;
-153.9000;0.0716;-0.7546;
-153.6000;0.0635;-0.7745;
-153.3000;0.0708;-0.7656;
-153.0000;0.0733;-0.7678;
-152.7000;0.0749;-0.7701;
-152.4000;0.0692;-0.7833;
-152.1000;0.0733;-0.7745;
-151.8000;0.0741;-0.7656;
-151.5000;0.0724;-0.7656;
-151.2000;0.0602;-0.7966;
-150.9000;0.0716;-0.7723;
-150.6000;0.0733;-0.7678;
-150.3000;0.0724;-0.7745;
-150.0000;0.0724;-0.7701;
-149.7000;0.0716;-0.7767;
-149.4000;0.0749;-0.7678;
-149.1000;0.0692;-0.7723;
-148.8000;0.0733;-0.7612;
-148.5000;0.0741;-0.7656;
-148.2000;0.0716;-0.7612;
-147.9000;0.0716;-0.7701;
-147.6000;0.0708;-0.7723;
-147.3000;0.0724;-0.7701;
-147.0000;0.0724;-0.7634;
-146.7000;0.0733;-0.7612;
-146.4000;0.0724;-0.7612;
-146.1000;0.0708;-0.7590;
-145.8000;0.0692;-0.7656;
-145.5000;0.0716;-0.7612;
-145.2000;0.0676;-0.7723;
-144.9000;0.0724;-0.7634;
-144.6000;0.0692;-0.7656;
-144.3000;0.0724;-0.7656;
-144.0000;0.0733;-0.7634;
-143.7000;0.0700;-0.7656;
-143.4000;0.0749;-0.7568;
-143.1000;0.0700;-0.7723;
-142.8000;0.0741;-0.7612;
-142.5000;0.0741;-0.7612;
-142.2000;0.0749;-0.7524;
-141.9000;0.0724;-0.7568;
-141.6000;0.0708;-0.7634;
-141.3000;0.0749;-0.7590;
-141.0000;0.0676;-0.7745;
-140.7000;0.0627;-0.7922;
-140.4000;0.0716;-0.7767;
-140.1000;0.0700;-0.7767;
-139.8000;0.0700;-0.7723;
-139.5000;0.0716;-0.7701;
-139.2000;0.0708;-0.7701;
-138.9000;0.0667;-0.7833;
-138.6000;0.0708;-0.7767;
-138.3000;0.0684;-0.7811;
-138.0000;0.0741;-0.7701;
-137.7000;0.0724;-0.7678;
-137.4000;0.0676;-0.7855;
-137.1000;0.0733;-0.7634;
-136.8000;0.0692;-0.7612;
-136.5000;0.0716;-0.7590;
-136.2000;0.0724;-0.7678;
-135.9000;0.0708;-0.7745;
-135.6000;0.0733;-0.7678;
-135.3000;0.0708;-0.7678;
-135.0000;0.0700;-0.7701;
-134.7000;0.0708;-0.7701;
-134.4000;0.0716;-0.7612;
-134.1000;0.0700;-0.7656;
-133.8000;0.0708;-0.7656;
-133.5000;0.0708;-0.7634;
-133.2000;0.0684;-0.7634;
-132.9000;0.0700;-0.7634;
-132.6000;0.0741;-0.7612;
-132.3000;0.0733;-0.7656;
-132.0000;0.0798;-0.7501;
-131.7000;0.0724;-0.7656;
-131.4000;0.0724;-0.7590;
-131.1000;0.0741;-0.7457;
-130.8000;0.0708;-0.7501;
-130.5000;0.0716;-0.7524;
-130.2000;0.0659;-0.7745;
-129.9000;0.0724;-0.7568;
-129.6000;0.0700;-0.7546;
-129.3000;0.0659;-0.7634;
-129.0000;0.0684;-0.7590;
-128.7000;0.0757;-0.7457;
-128.4000;0.0733;-0.7590;
-128.1000;0.0724;-0.7612;
-127.8000;0.0708;-0.7701;
-127.5000;0.0724;-0.7656;
-127.2000;0.0643;-0.7833;
-126.9000;0.0716;-0.7701;
-126.6000;0.0700;-0.7656;
-126.3000;0.0724;-0.7678;
-126.0000;0.0724;-0.7678;
-125.7000;0.0667;-0.7789;
-125.4000;0.0733;-0.7612;
-125.1000;0.0659;-0.7678;
-124.8000;0.0733;-0.7590;
-124.5000;0.0692;-0.7701;
-124.2000;0.0667;-0.7767;
-123.9000;0.0708;-0.7723;
-123.6000;0.0733;-0.7678;
-123.3000;0.0692;-0.7767;
-123.0000;0.0700;-0.7833;
-122.7000;0.0724;-0.7878;
-122.4000;0.0708;-0.7922;
-122.1000;0.0814;-0.7678;
-121.8000;0.0651;-0.7966;
-121.5000;0.0635;-0.8033;
-121.2000;0.0806;-0.7546;
-120.9000;0.0684;-0.7767;
-120.6000;0.0733;-0.7634;
-120.3000;0.0724;-0.7590;
-120.0000;0.0741;-0.7678;
-119.7000;0.0741;-0.7634;
-119.4000;0.0684;-0.7745;
-119.1000;0.0716;-0.7678;
-118.8000;0.0716;-0.7701;
-118.5000;0.0651;-0.7855;
-118.2000;0.0700;-0.7701;
-117.9000;0.0806;-0.7524;
-117.6000;0.0847;-0.7369;
-117.3000;0.0700;-0.7723;
-117.0000;0.0684;-0.7767;
-116.7000;0.0716;-0.7745;
-116.4000;0.0594;-0.8077;
-116.1000;0.0676;-0.7878;
-115.8000;0.0733;-0.7789;
-115.5000;0.0733;-0.7767;
-115.2000;0.0733;-0.7745;
-114.9000;0.0708;-0.7723;
-114.6000;0.0708;-0.7723;
-114.3000;0.0790;-0.7524;
-114.0000;0.0716;-0.7656;
-113.7000;0.0741;-0.7612;
-113.4000;0.0716;-0.7568;
-113.1000;0.0749;-0.7546;
-112.8000;0.0716;-0.7590;
-112.5000;0.0700;-0.7745;
-112.2000;0.0724;-0.7723;
-111.9000;0.0716;-0.7767;
-111.6000;0.0700;-0.7723;
-111.3000;0.0716;-0.7656;
-111.0000;0.0716;-0.7656;
-110.7000;0.0724;-0.7678;
-110.4000;0.0635;-0.7855;
-110.1000;0.0700;-0.7678;
-109.8000;0.0741;-0.7568;
-109.5000;0.0733;-0.7656;
-109.2000;0.0741;-0.7590;
-108.9000;0.0716;-0.7656;
-108.6000;0.0716;-0.7590;
-108.3000;0.0700;-0.7612;
-108.0000;0.0700;-0.7701;
-107.7000;0.0741;-0.7524;
-107.4000;0.0855;-0.7236;
-107.1000;0.0716;-0.7612;
-106.8000;0.0708;-0.7745;
-106.5000;0.0724;-0.7678;
-106.2000;0.0724;-0.7789;
-105.9000;0.0741;-0.7767;
-105.6000;0.0708;-0.7855;
-105.3000;0.0692;-0.7811;
-105.0000;0.0733;-0.7745;
-104.7000;0.0692;-0.7767;
-104.4000;0.0676;-0.7789;
-104.1000;0.0716;-0.7656;
-103.8000;0.0708;-0.7656;
-103.5000;0.0749;-0.7590;
-103.2000;0.0700;-0.7678;
-102.9000;0.0724;-0.7701;
-102.6000;0.0733;-0.7701;
-102.3000;0.0708;-0.7789;
-102.0000;0.0700;-0.7789;
-101.7000;0.0716;-0.7745;
-101.4000;0.0749;-0.7701;
-101.1000;0.0716;-0.7723;
-100.8000;0.0708;-0.7701;
-100.5000;0.0716;-0.7701;
-100.2000;0.0594;-0.8099;
-99.9000;0.0741;-0.7701;
-99.6000;0.0676;-0.7944;
-99.3000;0.0659;-0.8077;
-99.0000;0.0716;-0.7900;
-98.7000;0.0765;-0.7767;
-98.4000;0.0684;-0.7988;
-98.1000;0.0724;-0.7878;
-97.8000;0.0733;-0.7878;
-97.5000;0.0733;-0.7855;
-97.2000;0.0684;-0.7922;
-96.9000;0.0611;-0.8033;
-96.6000;0.0643;-0.7944;
-96.3000;0.0708;-0.7789;
-96.0000;0.0708;-0.7811;
-95.7000;0.0724;-0.7745;
-95.4000;0.0724;-0.7767;
-95.1000;0.0716;-0.7745;
-94.8000;0.0700;-0.7789;
-94.5000;0.0700;-0.7723;
-94.2000;0.0684;-0.7767;
-93.9000;0.0708;-0.7745;
-93.6000;0.0716;-0.7656;
-93.3000;0.0733;-0.7612;
-93.0000;0.0716;-0.7634;
-92.7000;0.0741;-0.7634;
-92.4000;0.0724;-0.7634;
-92.1000;0.0741;-0.7590;
-91.8000;0.0733;-0.7546;
-91.5000;0.0733;-0.7590;
-91.2000;0.0692;-0.7590;
-90.9000;0.0733;-0.7546;
-90.6000;0.0716;-0.7590;
-90.3000;0.0708;-0.7656;
-90.0000;0.0716;-0.7634;
-89.7000;0.0708;-0.7656;
-89.4000;0.0716;-0.7678;
-89.1000;0.0692;-0.7745;
-88.8000;0.0708;-0.7723;
-88.5000;0.0724;-0.7634;
-88.2000;0.0708;-0.7656;
-87.9000;0.0700;-0.7678;
-87.6000;0.0724;-0.7656;
-87.3000;0.0716;-0.7612;
-87.0000;0.0724;-0.7656;
-86.7000;0.0749;-0.7612;
-86.4000;0.0716;-0.7701;
-86.1000;0.0724;-0.7656;
-85.8000;0.0716;-0.7656;
-85.5000;0.0741;-0.7656;
-85.2000;0.0724;-0.7678;
-84.9000;0.0708;-0.7745;
-84.6000;0.0724;-0.7767;
-84.3000;0.0733;-0.7678;
-84.0000;0.0724;-0.7701;
-83.7000;0.0716;-0.7723;
-83.4000;0.0749;-0.7701;
-83.1000;0.0724;-0.7745;
-82.8000;0.0676;-0.7855;
-82.5000;0.0716;-0.7811;
-82.2000;0.0741;-0.7745;
-81.9000;0.0733;-0.7767;
-81.6000;0.0724;-0.7701;
-81.3000;0.0708;-0.7745;
-81.0000;0.0724;-0.7656;
-80.7000;0.0733;-0.7568;
-80.4000;0.0741;-0.7501;
-80.1000;0.0708;-0.7546;
-79.8000;0.0724;-0.7590;
-79.5000;0.0749;-0.7479;
-79.2000;0.0692;-0.7590;
-78.9000;0.0692;-0.7590;
-78.6000;0.0708;-0.7634;
-78.3000;0.0708;-0.7656;
-78.0000;0.0716;-0.7634;
-77.7000;0.0700;-0.7701;
-77.4000;0.0741;-0.7568;
-77.1000;0.0724;-0.7612;
-76.8000;0.0741;-0.7656;
-76.5000;0.0676;-0.7833;
-76.2000;0.0716;-0.7745;
-75.9000;0.0724;-0.7678;
-75.6000;0.0724;-0.7701;
-75.3000;0.0716;-0.7701;
-75.0000;0.0724;-0.7656;
-74.7000;0.0716;-0.7656;
-74.4000;0.0700;-0.7811;
-74.1000;0.0716;-0.7811;
-73.8000;0.0733;-0.7789;
-73.5000;0.0781;-0.7612;
-73.2000;0.0749;-0.7745;
-72.9000;0.0733;-0.7855;
-72.6000;0.0733;-0.7833;
-72.3000;0.0741;-0.7701;
-72.0000;0.0716;-0.7678;
-71.7000;0.0724;-0.7634;
-71.4000;0.0700;-0.7634;
-71.1000;0.0716;-0.7612;
-70.8000;0.0716;-0.7634;
-70.5000;0.0724;-0.7546;
-70.2000;0.0708;-0.7501;
-69.9000;0.0724;-0.7501;
-69.6000;0.0724;-0.7590;
-69.3000;0.0708;-0.7656;
-69.0000;0.0700;-0.7701;
-68.7000;0.0724;-0.7745;
-68.4000;0.0708;-0.7878;
-68.1000;0.0733;-0.7855;
-67.8000;0.0619;-0.8055;
-67.5000;0.0757;-0.7701;
-67.2000;0.0724;-0.7745;
-66.9000;0.0724;-0.7767;
-66.6000;0.0708;-0.7767;
-66.3000;0.0733;-0.7656;
-66.0000;0.0716;-0.7612;
-65.7000;0.0724;-0.7612;
-65.4000;0.0684;-0.7767;
-65.1000;0.0806;-0.7524;
-64.8000;0.0708;-0.7701;
-64.5000;0.0716;-0.7678;
-64.2000;0.0765;-0.7524;
-63.9000;0.0708;-0.7568;
-63.6000;0.0667;-0.7479;
-63.3000;0.0708;-0.7369;
-63.0000;0.0578;-0.7678;
-62.7000;0.0716;-0.7435;
-62.4000;0.0708;-0.7457;
-62.1000;0.0733;-0.7435;
-61.8000;0.0741;-0.7524;
-61.5000;0.0635;-0.7833;
-61.2000;0.0708;-0.7546;
-60.9000;0.0692;-0.7612;
-60.6000;0.0724;-0.7568;
-60.3000;0.0733;-0.7546;
-60.0000;0.0724;-0.7634;
-59.7000;0.0741;-0.7612;
-59.4000;0.0724;-0.7656;
-59.1000;0.0733;-0.7634;
-58.8000;0.0716;-0.7723;
-58.5000;0.0716;-0.7723;
-58.2000;0.0724;-0.7723;
-57.9000;0.0733;-0.7789;
-57.6000;0.0700;-0.7745;
-57.3000;0.0643;-0.7900;
-57.0000;0.0724;-0.7745;
-56.7000;0.0700;-0.7767;
-56.4000;0.0651;-0.7878;
-56.1000;0.0708;-0.7723;
-55.8000;0.0741;-0.7723;
-55.5000;0.0716;-0.7701;
-55.2000;0.0741;-0.7678;
-54.9000;0.0708;-0.7723;
-54.6000;0.0716;-0.7723;
-54.3000;0.0716;-0.7656;
-54.0000;0.0724;-0.7568;
-53.7000;0.0708;-0.7590;
-53.4000;0.0700;-0.7701;
-53.1000;0.0700;-0.7745;
-52.8000;0.0724;-0.7701;
-52.5000;0.0692;-0.7745;
-52.2000;0.0733;-0.7634;
-51.9000;0.0733;-0.7656;
-51.6000;0.0708;-0.7701;
-51.3000;0.0741;-0.7723;
-51.0000;0.0724;-0.7767;
-50.7000;0.0684;-0.7723;
-50.4000;0.0741;-0.7590;
-50.1000;0.0708;-0.7634;
-49.8000;0.0578;-0.8010;
-49.5000;0.0724;-0.7656;
-49.2000;0.0716;-0.7745;
-48.9000;0.0733;-0.7701;
-48.6000;0.0757;-0.7656;
-48.3000;0.0708;-0.7855;
-48.0000;0.0716;-0.7789;
-47.7000;0.0749;-0.7701;
-47.4000;0.0692;-0.7944;
-47.1000;0.0733;-0.7922;
-46.8000;0.0716;-0.7855;
-46.5000;0.0895;-0.7347;
-46.2000;0.0716;-0.7745;
-45.9000;0.0724;-0.7723;
-45.6000;0.0716;-0.7789;
-45.3000;0.0773;-0.7678;
-45.0000;0.0749;-0.7745;
-44.7000;0.0676;-0.7922;
-44.4000;0.0790;-0.7656;
-44.1000;0.0716;-0.7855;
-43.8000;0.0798;-0.7656;
-43.5000;0.0676;-0.7922;
-43.2000;0.0700;-0.7855;
-42.9000;0.0724;-0.7723;
-42.6000;0.0741;-0.7723;
-42.3000;0.0708;-0.7745;
-42.0000;0.0724;-0.7656;
-41.7000;0.0708;-0.7678;
-41.4000;0.0741;-0.7568;
-41.1000;0.0724;-0.7546;
-40.8000;0.0716;-0.7568;
-40.5000;0.0700;-0.7678;
-40.2000;0.0692;-0.7767;
-39.9000;0.0724;-0.7745;
-39.6000;0.0700;-0.7811;
-39.3000;0.0733;-0.7833;
-39.0000;0.0765;-0.7701;
-38.7000;0.0708;-0.7789;
-38.4000;0.0749;-0.7612;
-38.1000;0.0716;-0.7723;
-37.8000;0.0684;-0.7723;
-37.5000;0.0692;-0.7634;
-37.2000;0.0676;-0.7701;
-36.9000;0.0838;-0.7302;
-36.6000;0.0716;-0.7568;
-36.3000;0.0700;-0.7568;
-36.0000;0.0749;-0.7391;
-35.7000;0.0651;-0.7656;
-35.4000;0.0700;-0.7546;
-35.1000;0.0659;-0.7656;
-34.8000;0.0724;-0.7546;
-34.5000;0.0733;-0.7391;
-34.2000;0.0741;-0.7369;
-33.9000;0.0724;-0.7479;
-33.6000;0.0700;-0.7546;
-33.3000;0.0676;-0.7546;
-33.0000;0.0651;-0.7612;
-32.7000;0.0708;-0.7546;
-32.4000;0.0741;-0.7546;
-32.1000;0.0773;-0.7501;
-31.8000;0.0684;-0.7723;
-31.5000;0.0724;-0.7656;
-31.2000;0.0659;-0.7811;
-30.9000;0.0716;-0.7701;
-30.6000;0.0765;-0.7634;
-30.3000;0.0724;-0.7723;
-30.0000;0.0724;-0.7745;
-29.7000;0.0733;-0.7701;
-29.4000;0.0724;-0.7634;
-29.1000;0.0659;-0.7745;
-28.8000;0.0724;-0.7656;
-28.5000;0.0724;-0.7678;
-28.2000;0.0716;-0.7723;
-27.9000;0.0724;-0.7634;
-27.6000;0.0716;-0.7656;
-27.3000;0.0741;-0.7634;
-27.0000;0.0724;-0.7745;
-26.7000;0.0724;-0.7701;
-26.4000;0.0724;-0.7656;
-26.1000;0.0733;-0.7656;
-25.8000;0.0724;-0.7656;
-25.5000;0.0724;-0.7656;
-25.2000;0.0806;-0.7435;
-24.9000;0.0700;-0.7701;
-24.6000;0.0781;-0.7413;
-24.3000;0.0724;-0.7546;
-24.0000;0.0659;-0.7789;
-23.7000;0.0765;-0.7479;
-23.4000;0.0651;-0.7833;
-23.1000;0.0724;-0.7678;
-22.8000;0.0724;-0.7634;
-22.5000;0.0757;-0.7501;
-22.2000;0.0700;-0.7701;
-21.9000;0.0741;-0.7634;
-21.6000;0.0741;-0.7701;
-21.3000;0.0684;-0.7767;
-21.0000;0.0692;-0.7789;
-20.7000;0.0716;-0.7678;
-20.4000;0.0651;-0.7855;
-20.1000;0.0708;-0.7745;
-19.8000;0.0724;-0.7745;
-19.5000;0.0651;-0.7878;
-19.2000;0.0708;-0.7701;
-18.9000;0.0716;-0.7701;
-18.6000;0.0724;-0.7590;
-18.3000;0.0724;-0.7568;
-18.0000;0.0716;-0.7656;
-17.7000;0.0733;-0.7634;
-17.4000;0.0765;-0.7568;
-17.1000;0.0741;-0.7546;
-16.8000;0.0708;-0.7634;
-16.5000;0.0724;-0.7524;
-16.2000;0.0773;-0.7479;
-15.9000;0.0733;-0.7634;
-15.6000;0.0749;-0.7612;
-15.3000;0.0724;-0.7678;
-15.0000;0.0724;-0.7656;
-14.7000;0.0716;-0.7701;
-14.4000;0.0773;-0.7590;
-14.1000;0.0724;-0.7678;
-13.8000;0.0724;-0.7678;
-13.5000;0.0716;-0.7701;
-13.2000;0.0855;-0.7369;
-12.9000;0.0692;-0.7855;
-12.6000;0.0741;-0.7701;
-12.3000;0.0724;-0.7745;
-12.0000;0.0724;-0.7678;
-11.7000;0.0708;-0.7723;
-11.4000;0.0757;-0.7524;
-11.1000;0.0749;-0.7479;
-10.8000;0.0700;-0.7678;
-10.5000;0.0741;-0.7634;
-10.2000;0.0724;-0.7656;
-9.9000;0.0716;-0.7723;
-9.6000;0.0757;-0.7612;
-9.3000;0.0667;-0.7789;
-9.0000;0.0684;-0.7767;
-8.7000;0.0749;-0.7678;
-8.4000;0.0667;-0.7900;
-8.1000;0.0708;-0.7745;
-7.8000;0.0724;-0.7701;
-7.5000;0.0741;-0.7590;
-7.2000;0.0741;-0.7590;
-6.9000;0.0651;-0.7833;
-6.6000;0.0643;-0.7833;
-6.3000;0.0708;-0.7745;
-6.0000;0.0708;-0.7656;
-5.7000;0.0716;-0.7723;
-5.4000;0.0781;-0.7546;
-5.1000;0.0741;-0.7701;
-4.8000;0.0659;-0.7811;
-4.5000;0.0684;-0.7723;
-4.2000;0.0724;-0.7634;
-3.9000;0.0659;-0.7789;
-3.6000;0.0692;-0.7767;
-3.3000;0.0700;-0.7745;
-3.0000;0.0692;-0.7878;
-2.7000;0.0741;-0.7745;
-2.4000;0.0733;-0.7701;
-2.1000;0.0716;-0.7855;
-1.8000;0.0716;-0.7944;
-1.5000;0.0716;-0.7944;
-1.2000;0.0733;-0.7855;
-0.9000;0.0700;-0.7811;
-0.6000;0.0692;-0.7811;
-0.3000;0.0684;-0.7767;
0.0000;0.0684;-0.7767;
0.3000;0.0716;-0.7723;
0.6000;0.0684;-0.7723;
0.9000;0.0757;-0.7457;
1.2000;0.0741;-0.7479;
1.5000;0.0757;-0.7391;
1.8000;0.0806;-0.7280;
2.1000;0.0790;-0.7280;
2.4000;0.0814;-0.7192;
2.7000;0.0798;-0.7081;
3.0000;0.0814;-0.7015;
3.3000;0.0847;-0.7015;
3.6000;0.0806;-0.7037;
3.9000;0.0806;-0.6992;
4.2000;0.0838;-0.6860;
4.5000;0.0798;-0.6970;
4.8000;0.0855;-0.6860;
5.1000;0.0798;-0.6882;
5.4000;0.0814;-0.6860;
5.7000;0.0838;-0.6705;
6.0000;0.0830;-0.6683;
6.3000;0.0847;-0.6572;
6.6000;0.0830;-0.6572;
6.9000;0.0871;-0.6461;
7.2000;0.0847;-0.6417;
7.5000;0.0855;-0.6307;
7.8000;0.0838;-0.6284;
8.1000;0.0814;-0.6351;
8.4000;0.0855;-0.6284;
8.7000;0.0838;-0.6307;
9.0000;0.0822;-0.6351;
9.3000;0.0838;-0.6417;
9.6000;0.0855;-0.6417;
9.9000;0.0855;-0.6439;
10.2000;0.0814;-0.6572;
10.5000;0.0863;-0.6439;
10.8000;0.0773;-0.6616;
11.1000;0.0847;-0.6461;
11.4000;0.0871;-0.6373;
11.7000;0.0847;-0.6484;
12.0000;0.0838;-0.6506;
12.3000;0.0863;-0.6506;
12.6000;0.0887;-0.6395;
12.9000;0.0863;-0.6461;
13.2000;0.0961;-0.6262;
13.5000;0.0716;-0.6727;
13.8000;0.0806;-0.6439;
14.1000;0.0855;-0.6329;
14.4000;0.0855;-0.6329;
14.7000;0.0847;-0.6417;
15.0000;0.0863;-0.6373;
15.3000;0.0863;-0.6351;
15.6000;0.0847;-0.6395;
15.9000;0.0822;-0.6417;
16.2000;0.0822;-0.6373;
16.5000;0.0855;-0.6351;
16.8000;0.0863;-0.6351;
17.1000;0.0838;-0.6417;
17.4000;0.0863;-0.6351;
17.7000;0.0847;-0.6351;
18.0000;0.0879;-0.6284;
18.3000;0.0838;-0.6395;
18.6000;0.0855;-0.6373;
18.9000;0.0863;-0.6461;
19.2000;0.0879;-0.6461;
19.5000;0.0871;-0.6439;
19.8000;0.0855;-0.6506;
20.1000;0.0871;-0.6550;
20.4000;0.0855;-0.6550;
20.7000;0.0855;-0.6506;
21.0000;0.0855;-0.6461;
21.3000;0.0855;-0.6395;
21.6000;0.0855;-0.6439;
21.9000;0.0863;-0.6329;
22.2000;0.0863;-0.6329;
22.5000;0.0863;-0.6395;
22.8000;0.0863;-0.6484;
23.1000;0.0863;-0.6506;
23.4000;0.0847;-0.6506;
23.7000;0.0830;-0.6528;
24.0000;0.0855;-0.6572;
24.3000;0.0855;-0.6638;
24.6000;0.0838;-0.6550;
24.9000;0.0879;-0.6461;
25.2000;0.0863;-0.6528;
25.5000;0.0855;-0.6461;
25.8000;0.0871;-0.6373;
26.1000;0.0855;-0.6351;
26.4000;0.0847;-0.6417;
26.7000;0.0879;-0.6373;
27.0000;0.0871;-0.6395;
27.3000;0.0871;-0.6351;
27.6000;0.0895;-0.6373;
27.9000;0.0855;-0.6417;
28.2000;0.0969;-0.6174;
28.5000;0.0830;-0.6439;
28.8000;0.0855;-0.6373;
29.1000;0.0838;-0.6373;
29.4000;0.0863;-0.6373;
29.7000;0.0895;-0.6240;
30.0000;0.0847;-0.6351;
30.3000;0.0863;-0.6284;
30.6000;0.0871;-0.6262;
30.9000;0.0863;-0.6351;
31.2000;0.0855;-0.6329;
31.5000;0.0887;-0.6284;
31.8000;0.0855;-0.6351;
32.1000;0.0863;-0.6351;
32.4000;0.0863;-0.6373;
32.7000;0.0879;-0.6284;
33.0000;0.0863;-0.6373;
33.3000;0.0830;-0.6461;
33.6000;0.0847;-0.6461;
33.9000;0.0855;-0.6417;
34.2000;0.0871;-0.6417;
34.5000;0.0871;-0.6417;
34.8000;0.0806;-0.6528;
35.1000;0.0855;-0.6395;
35.4000;0.0863;-0.6395;
35.7000;0.0863;-0.6395;
36.0000;0.0847;-0.6417;
36.3000;0.0871;-0.6284;
36.6000;0.0871;-0.6218;
36.9000;0.0855;-0.6351;
37.2000;0.0838;-0.6395;
37.5000;0.0790;-0.6528;
37.8000;0.0847;-0.6329;
38.1000;0.0871;-0.6262;
38.4000;0.0830;-0.6351;
38.7000;0.0855;-0.6240;
39.0000;0.0855;-0.6196;
39.3000;0.0847;-0.6240;
39.6000;0.0871;-0.6218;
39.9000;0.0887;-0.6063;
40.2000;0.0863;-0.6085;
40.5000;0.0847;-0.6196;
40.8000;0.0871;-0.6196;
41.1000;0.0871;-0.6196;
41.4000;0.0855;-0.6174;
41.7000;0.0838;-0.6218;
42.0000;0.0806;-0.6284;
42.3000;0.0838;-0.6196;
42.6000;0.0871;-0.6107;
42.9000;0.0863;-0.6152;
43.2000;0.0871;-0.6085;
43.5000;0.0887;-0.6085;
43.8000;0.0863;-0.6307;
44.1000;0.0847;-0.6395;
44.4000;0.0847;-0.6417;
44.7000;0.0847;-0.6439;
45.0000;0.0887;-0.6329;
45.3000;0.0863;-0.6417;
45.6000;0.0855;-0.6417;
45.9000;0.0863;-0.6351;
46.2000;0.0757;-0.6594;
46.5000;0.0863;-0.6373;
46.8000;0.0863;-0.6417;
47.1000;0.0838;-0.6528;
47.4000;0.0895;-0.6439;
47.7000;0.0871;-0.6528;
48.0000;0.0855;-0.6439;
48.3000;0.0847;-0.6395;
48.6000;0.0716;-0.6815;
48.9000;0.0887;-0.6439;
49.2000;0.0904;-0.6307;
49.5000;0.0871;-0.6351;
49.8000;0.0847;-0.6395;
50.1000;0.0838;-0.6417;
50.4000;0.0855;-0.6307;
50.7000;0.0847;-0.6218;
51.0000;0.0847;-0.6284;
51.3000;0.0887;-0.6152;
51.6000;0.0838;-0.6174;
51.9000;0.0847;-0.6196;
52.2000;0.0887;-0.6174;
52.5000;0.0863;-0.6284;
52.8000;0.0830;-0.6395;
53.1000;0.0855;-0.6351;
53.4000;0.0895;-0.6240;
53.7000;0.0871;-0.6329;
54.0000;0.0863;-0.6351;
54.3000;0.0871;-0.6373;
54.6000;0.0830;-0.6572;
54.9000;0.0871;-0.6528;
55.2000;0.0838;-0.6594;
55.5000;0.0863;-0.6506;
55.8000;0.0863;-0.6373;
56.1000;0.0855;-0.6351;
56.4000;0.0920;-0.6307;
56.7000;0.0871;-0.6484;
57.0000;0.0887;-0.6528;
57.3000;0.0879;-0.6550;
57.6000;0.0863;-0.6484;
57.9000;0.0871;-0.6506;
58.2000;0.0871;-0.6484;
58.5000;0.0879;-0.6395;
58.8000;0.0871;-0.6417;
59.1000;0.0879;-0.6417;
59.4000;0.0879;-0.6417;
59.7000;0.0830;-0.6484;
60.0000;0.0863;-0.6484;
60.3000;0.0855;-0.6461;
60.6000;0.0944;-0.6262;
60.9000;0.0871;-0.6439;
61.2000;0.0871;-0.6439;
61.5000;0.0838;-0.6484;
61.8000;0.0871;-0.6351;
62.1000;0.0863;-0.6351;
62.4000;0.0912;-0.6174;
62.7000;0.0895;-0.6196;
63.0000;0.0863;-0.6174;
63.3000;0.0879;-0.6085;
63.6000;0.0871;-0.6240;
63.9000;0.0879;-0.6240;
64.2000;0.0838;-0.6351;
64.5000;0.0863;-0.6329;
64.8000;0.0928;-0.6174;
65.1000;0.0863;-0.6373;
65.4000;0.1009;-0.5975;
65.7000;0.0838;-0.6373;
66.0000;0.0855;-0.6329;
66.3000;0.0871;-0.6262;
66.6000;0.0871;-0.6240;
66.9000;0.0879;-0.6351;
67.2000;0.0863;-0.6373;
67.5000;0.0838;-0.6461;
67.8000;0.0879;-0.6439;
68.1000;0.0863;-0.6506;
68.4000;0.0798;-0.6638;
68.7000;0.0863;-0.6484;
69.0000;0.0879;-0.6461;
69.3000;0.0887;-0.6528;
69.6000;0.1034;-0.6107;
69.9000;0.0863;-0.6616;
70.2000;0.0895;-0.6373;
70.5000;0.0887;-0.6307;
70.8000;0.0838;-0.6329;
71.1000;0.0863;-0.6284;
71.4000;0.0871;-0.6307;
71.7000;0.0879;-0.6351;
72.0000;0.0855;-0.6439;
72.3000;0.0871;-0.6373;
72.6000;0.0855;-0.6373;
72.9000;0.0855;-0.6395;
73.2000;0.0928;-0.6240;
73.5000;0.0863;-0.6351;
73.8000;0.0863;-0.6196;
74.1000;0.0871;-0.6152;
74.4000;0.0879;-0.6174;
74.7000;0.0838;-0.6373;
75.0000;0.0822;-0.6506;
75.3000;0.0863;-0.6461;
75.6000;0.0871;-0.6461;
75.9000;0.0871;-0.6351;
76.2000;0.0838;-0.6439;
76.5000;0.0879;-0.6351;
76.8000;0.0928;-0.6129;
77.1000;0.0871;-0.6218;
77.4000;0.0879;-0.6196;
77.7000;0.0887;-0.6351;
78.0000;0.0879;-0.6417;
78.3000;0.0871;-0.6439;
78.6000;0.0863;-0.6461;
78.9000;0.0798;-0.6594;
79.2000;0.0724;-0.6793;
79.5000;0.0871;-0.6461;
79.8000;0.0871;-0.6439;
80.1000;0.0871;-0.6417;
80.4000;0.0863;-0.6506;
80.7000;0.0879;-0.6461;
81.0000;0.0863;-0.6461;
81.3000;0.0871;-0.6506;
81.6000;0.0895;-0.6461;
81.9000;0.0879;-0.6528;
82.2000;0.0830;-0.6661;
82.5000;0.0895;-0.6506;
82.8000;0.0977;-0.6284;
83.1000;0.0879;-0.6417;
83.4000;0.0879;-0.6373;
83.7000;0.0920;-0.6262;
84.0000;0.0879;-0.6417;
84.3000;0.0871;-0.6528;
84.6000;0.0904;-0.6506;
84.9000;0.0920;-0.6461;
85.2000;0.0993;-0.6152;
85.5000;0.0895;-0.6373;
85.8000;0.0814;-0.6506;
86.1000;0.0855;-0.6395;
86.4000;0.0871;-0.6395;
86.7000;0.0806;-0.6594;
87.0000;0.0863;-0.6550;
87.3000;0.0985;-0.6240;
87.6000;0.0838;-0.6506;
87.9000;0.0863;-0.6417;
88.2000;0.0847;-0.6528;
88.5000;0.0871;-0.6528;
88.8000;0.0863;-0.6594;
89.1000;0.0814;-0.6749;
89.4000;0.0855;-0.6616;
89.7000;0.0871;-0.6550;
90.0000;0.0993;-0.6240;
90.3000;0.0887;-0.6506;
90.6000;0.0993;-0.6218;
90.9000;0.0863;-0.6461;
91.2000;0.0863;-0.6484;
91.5000;0.0944;-0.6329;
91.8000;0.0871;-0.6484;
92.1000;0.0879;-0.6572;
92.4000;0.0871;-0.6506;
92.7000;0.0928;-0.6461;
93.0000;0.0855;-0.6550;
93.3000;0.0863;-0.6594;
93.6000;0.0871;-0.6484;
93.9000;0.0847;-0.6572;
94.2000;0.0822;-0.6638;
94.5000;0.0879;-0.6528;
94.8000;0.0863;-0.6638;
95.1000;0.0847;-0.6638;
95.4000;0.0855;-0.6638;
95.7000;0.0879;-0.6550;
96.0000;0.0863;-0.6661;
96.3000;0.0871;-0.6594;
96.6000;0.0887;-0.6528;
96.9000;0.0879;-0.6572;
97.2000;0.0887;-0.6572;
97.5000;0.0879;-0.6683;
97.8000;0.0863;-0.6727;
98.1000;0.0920;-0.6616;
98.4000;0.0871;-0.6727;
98.7000;0.0985;-0.6439;
99.0000;0.0871;-0.6683;
99.3000;0.0863;-0.6661;
99.6000;0.0871;-0.6661;
99.9000;0.0969;-0.6461;
100.2000;0.0863;-0.6705;
100.5000;0.0757;-0.7037;
100.8000;0.0895;-0.6683;
101.1000;0.0822;-0.6749;
101.4000;0.0863;-0.6661;
101.7000;0.0879;-0.6638;
102.0000;0.0879;-0.6638;
102.3000;0.0871;-0.6727;
102.6000;0.0855;-0.6815;
102.9000;0.0863;-0.6771;
103.2000;0.0863;-0.6727;
103.5000;0.0871;-0.6705;
103.8000;0.0871;-0.6727;
104.1000;0.0822;-0.6838;
104.4000;0.0879;-0.6727;
104.7000;0.0871;-0.6683;
105.0000;0.0863;-0.6661;
105.3000;0.0871;-0.6727;
105.6000;0.0871;-0.6749;
105.9000;0.0887;-0.6815;
106.2000;0.0863;-0.6882;
106.5000;0.0822;-0.6948;
106.8000;0.0847;-0.6992;
107.1000;0.0895;-0.6926;
107.4000;0.0895;-0.6838;
107.7000;0.0912;-0.6860;
108.0000;0.0879;-0.6948;
108.3000;0.0847;-0.7037;
108.6000;0.0904;-0.6815;
108.9000;0.0944;-0.6727;
109.2000;0.0952;-0.6727;
109.5000;0.0895;-0.6793;
109.8000;0.0757;-0.7059;
110.1000;0.0863;-0.6815;
110.4000;0.0879;-0.6838;
110.7000;0.0847;-0.6948;
111.0000;0.0895;-0.6860;
111.3000;0.0798;-0.7170;
111.6000;0.0863;-0.7103;
111.9000;0.0814;-0.7192;
112.2000;0.0887;-0.6926;
112.5000;0.0863;-0.6882;
112.8000;0.0855;-0.6970;
113.1000;0.0871;-0.6948;
113.4000;0.0879;-0.7037;
113.7000;0.0871;-0.7147;
114.0000;0.0879;-0.7103;
114.3000;0.0871;-0.7147;
114.6000;0.0871;-0.7059;
114.9000;0.0863;-0.7037;
115.2000;0.0855;-0.7037;
115.5000;0.0879;-0.7015;
115.8000;0.0887;-0.6970;
116.1000;0.0904;-0.6860;
116.4000;0.0887;-0.6948;
116.7000;0.0928;-0.6838;
117.0000;0.0879;-0.6882;
117.3000;0.0863;-0.6992;
117.6000;0.0887;-0.6904;
117.9000;0.0863;-0.7059;
118.2000;0.0912;-0.6838;
118.5000;0.0887;-0.6860;
118.8000;0.0887;-0.6860;
119.1000;0.0879;-0.6882;
119.4000;0.0855;-0.7015;
119.7000;0.0879;-0.7037;
120.0000;0.0863;-0.7059;
120.3000;0.0847;-0.7037;
120.6000;0.0879;-0.6926;
120.9000;0.0887;-0.6793;
121.2000;0.0904;-0.6727;
121.5000;0.0838;-0.6904;
121.8000;0.0863;-0.6860;
122.1000;0.0936;-0.6616;
122.4000;0.0920;-0.6727;
122.7000;0.0895;-0.6904;
123.0000;0.0847;-0.7059;
123.3000;0.0895;-0.6970;
123.6000;0.0871;-0.6992;
123.9000;0.0952;-0.6771;
124.2000;0.0806;-0.7015;
124.5000;0.0895;-0.6771;
124.8000;0.0904;-0.6638;
125.1000;0.0871;-0.6727;
125.4000;0.0871;-0.6727;
125.7000;0.0847;-0.6838;
126.0000;0.0871;-0.6860;
126.3000;0.0920;-0.6749;
126.6000;0.0920;-0.6771;
126.9000;0.0855;-0.6948;
127.2000;0.0855;-0.6860;
127.5000;0.0879;-0.6860;
127.8000;0.0887;-0.6749;
128.1000;0.0863;-0.6771;
128.4000;0.0879;-0.6705;
128.7000;0.0904;-0.6683;
129.0000;0.0879;-0.6683;
129.3000;0.0887;-0.6771;
129.6000;0.0863;-0.6926;
129.9000;0.0871;-0.6860;
130.2000;0.0855;-0.6926;
130.5000;0.0887;-0.6904;
130.8000;0.0887;-0.6882;
131.1000;0.0871;-0.6882;
131.4000;0.0912;-0.6771;
131.7000;0.0871;-0.6860;
132.0000;0.0871;-0.6860;
132.3000;0.0871;-0.6926;
132.6000;0.0895;-0.6793;
132.9000;0.0928;-0.6550;
133.2000;0.0879;-0.6705;
133.5000;0.0895;-0.6683;
133.8000;0.0879;-0.6638;
134.1000;0.0838;-0.6771;
134.4000;0.0879;-0.6705;
134.7000;0.0879;-0.6683;
135.0000;0.0895;-0.6683;
135.3000;0.0871;-0.6771;
135.6000;0.0847;-0.6793;
135.9000;0.0871;-0.6727;
136.2000;0.0887;-0.6749;
136.5000;0.0904;-0.6727;
136.8000;0.0855;-0.6815;
137.1000;0.0855;-0.6749;
137.4000;0.0855;-0.6771;
137.7000;0.0847;-0.6771;
138.0000;0.0855;-0.6661;
138.3000;0.0879;-0.6594;
138.6000;0.0855;-0.6727;
138.9000;0.0887;-0.6749;
139.2000;0.0871;-0.6793;
139.5000;0.0814;-0.6815;
139.8000;0.0871;-0.6705;
140.1000;0.0863;-0.6683;
140.4000;0.0879;-0.6661;
140.7000;0.0871;-0.6661;
141.0000;0.0879;-0.6727;
141.3000;0.0871;-0.6838;
141.6000;0.0871;-0.6860;
141.9000;0.0871;-0.6860;
142.2000;0.0879;-0.6860;
142.5000;0.0887;-0.6815;
142.8000;0.0895;-0.6749;
143.1000;0.0871;-0.6838;
143.4000;0.0847;-0.6838;
143.7000;0.0895;-0.6771;
144.0000;0.0895;-0.6793;
144.3000;0.0863;-0.6926;
144.6000;0.0863;-0.6904;
144.9000;0.0863;-0.6992;
145.2000;0.0871;-0.6904;
145.5000;0.0838;-0.6926;
145.8000;0.0871;-0.6882;
146.1000;0.0879;-0.6838;
146.4000;0.0904;-0.6771;
146.7000;0.0830;-0.6904;
147.0000;0.0871;-0.6815;
147.3000;0.0822;-0.7059;
147.6000;0.0863;-0.6970;
147.9000;0.0895;-0.6838;
148.2000;0.0855;-0.6904;
148.5000;0.0863;-0.6838;
148.8000;0.0863;-0.6815;
149.1000;0.0879;-0.6815;
149.4000;0.0863;-0.6970;
149.7000;0.0912;-0.6838;
150.0000;0.0871;-0.6904;
150.3000;0.0871;-0.6860;
150.6000;0.0887;-0.6815;
150.9000;0.0871;-0.6771;
151.2000;0.0871;-0.6793;
151.5000;0.0879;-0.6749;
151.8000;0.0887;-0.6749;
152.1000;0.0863;-0.6815;
152.4000;0.0838;-0.6904;
152.7000;0.0879;-0.6793;
153.0000;0.0871;-0.6771;
153.3000;0.0871;-0.6749;
153.6000;0.0863;-0.6727;
153.9000;0.0879;-0.6749;
154.2000;0.0895;-0.6815;
154.5000;0.0863;-0.6926;
154.8000;0.0855;-0.6815;
155.1000;0.0855;-0.6838;
155.4000;0.0781;-0.7081;
155.7000;0.0871;-0.6838;
156.0000;0.0871;-0.6815;
156.3000;0.0879;-0.6815;
156.6000;0.0879;-0.6771;
156.9000;0.0855;-0.6882;
157.2000;0.0855;-0.6860;
157.5000;0.0855;-0.6838;
157.8000;0.0863;-0.6749;
158.1000;0.0887;-0.6550;
158.4000;0.0887;-0.6661;
158.7000;0.0871;-0.6661;
159.0000;0.0871;-0.6638;
159.3000;0.0895;-0.6572;
159.6000;0.0863;-0.6638;
159.9000;0.0847;-0.6594;
160.2000;0.0871;-0.6550;
160.5000;0.0879;-0.6572;
160.8000;0.0855;-0.6638;
161.1000;0.0871;-0.6594;
161.4000;0.0838;-0.6616;
161.7000;0.0879;-0.6638;
162.0000;0.0887;-0.6594;
162.3000;0.0855;-0.6661;
162.6000;0.0847;-0.6638;
162.9000;0.0879;-0.6594;
163.2000;0.0863;-0.6638;
163.5000;0.0904;-0.6550;
163.8000;0.0887;-0.6616;
164.1000;0.0871;-0.6661;
164.4000;0.0887;-0.6661;
164.7000;0.0847;-0.6860;
165.0000;0.0936;-0.6683;
165.3000;0.0855;-0.6948;
165.6000;0.0969;-0.6616;
165.9000;0.0871;-0.6882;
166.2000;0.0871;-0.6838;
166.5000;0.0855;-0.6815;
166.8000;0.0847;-0.6815;
167.1000;0.0879;-0.6638;
167.4000;0.0863;-0.6683;
167.7000;0.0904;-0.6705;
168.0000;0.0887;-0.6815;
168.3000;0.0863;-0.6793;
168.6000;0.0863;-0.6882;
168.9000;0.0863;-0.6860;
169.2000;0.0871;-0.6815;
169.5000;0.0985;-0.6594;
169.8000;0.0847;-0.6948;
170.1000;0.0887;-0.6926;
170.4000;0.0847;-0.7015;
170.7000;0.0871;-0.6838;
171.0000;0.0822;-0.6970;
171.3000;0.0863;-0.6904;
171.6000;0.0855;-0.6970;
171.9000;0.0879;-0.6882;
172.2000;0.0977;-0.6550;
172.5000;0.0830;-0.6948;
172.8000;0.0863;-0.6904;
173.1000;0.0904;-0.6882;
173.4000;0.0977;-0.6749;
173.7000;0.0838;-0.7015;
174.0000;0.0887;-0.6904;
174.3000;0.0879;-0.6948;
174.6000;0.1058;-0.6417;
174.9000;0.0879;-0.6882;
175.2000;0.0887;-0.6904;
175.5000;0.0863;-0.6992;
175.8000;0.0895;-0.6815;
176.1000;0.0871;-0.6815;
176.4000;0.0847;-0.6904;
176.7000;0.0904;-0.6727;
177.0000;0.0871;-0.6749;
177.3000;0.0822;-0.6771;
177.6000;0.0798;-0.6948;
177.9000;0.0806;-0.6882;
178.2000;0.0871;-0.6705;
178.5000;0.0863;-0.6727;
178.8000;0.0912;-0.6594;
179.1000;0.0879;-0.6727;
179.4000;0.0879;-0.6727;
179.7000;0.0879;-0.6815;
180.0000;0.0879;-0.6815;
180.3000;0.0847;-0.6926;
180.6000;0.0887;-0.6838;
180.9000;0.0985;-0.6638;
181.2000;0.1018;-0.6550;
181.5000;0.0871;-0.6926;
181.8000;0.0879;-0.6904;
182.1000;0.0887;-0.6882;
182.4000;0.0798;-0.7103;
182.7000;0.0798;-0.7236;
183.0000;0.0838;-0.7103;
183.3000;0.0887;-0.7037;
183.6000;0.0904;-0.6970;
183.9000;0.0838;-0.7059;
184.2000;0.0895;-0.7037;
184.5000;0.0895;-0.7015;
184.8000;0.0855;-0.7015;
185.1000;0.0847;-0.7037;
185.4000;0.0879;-0.6970;
185.7000;0.0936;-0.6860;
186.0000;0.0879;-0.7059;
186.3000;0.0871;-0.7147;
186.6000;0.0879;-0.7125;
186.9000;0.0871;-0.7147;
187.2000;0.0887;-0.7081;
187.5000;0.0863;-0.7147;
187.8000;0.0879;-0.7081;
188.1000;0.0985;-0.6793;
188.4000;0.0904;-0.6904;
188.7000;0.0871;-0.6970;
189.0000;0.0879;-0.6992;
189.3000;0.0887;-0.7015;
189.6000;0.0879;-0.7059;
189.9000;0.0887;-0.7037;
190.2000;0.0855;-0.7125;
190.5000;0.0936;-0.7037;
190.8000;0.0871;-0.7236;
191.1000;0.0863;-0.7214;
191.4000;0.0904;-0.7125;
191.7000;0.0904;-0.7125;
192.0000;0.0887;-0.7170;
192.3000;0.0887;-0.7103;
192.6000;0.0871;-0.7125;
192.9000;0.0863;-0.7103;
193.2000;0.0879;-0.6992;
193.5000;0.0887;-0.7081;
193.8000;0.0871;-0.7037;
194.1000;0.0871;-0.7037;
194.4000;0.0879;-0.6970;
194.7000;0.0879;-0.6948;
195.0000;0.0863;-0.6926;
195.3000;0.0855;-0.6926;
195.6000;0.0855;-0.7015;
195.9000;0.0863;-0.7015;
196.2000;0.0944;-0.6838;
196.5000;0.0879;-0.6882;
196.8000;0.0879;-0.6860;
197.1000;0.0806;-0.6970;
197.4000;0.0830;-0.7037;
197.7000;0.0847;-0.6904;
198.0000;0.0887;-0.6749;
198.3000;0.0814;-0.7015;
198.6000;0.0887;-0.6771;
198.9000;0.0887;-0.6838;
199.2000;0.0822;-0.7015;
199.5000;0.0863;-0.6860;
199.8000;0.0895;-0.6749;
200.1000;0.0863;-0.6727;
200.4000;0.0806;-0.6815;
200.7000;0.0847;-0.6638;
201.0000;0.0887;-0.6638;
201.3000;0.0904;-0.6683;
201.6000;0.0871;-0.6793;
201.9000;0.0952;-0.6550;
202.2000;0.0855;-0.6749;
202.5000;0.0879;-0.6661;
202.8000;0.0912;-0.6594;
203.1000;0.0879;-0.6705;
203.4000;0.0879;-0.6727;
203.7000;0.0855;-0.6838;
204.0000;0.0871;-0.6793;
204.3000;0.0895;-0.6771;
204.6000;0.0871;-0.6771;
204.9000;0.0798;-0.7037;
205.2000;0.0814;-0.7037;
205.5000;0.0895;-0.6815;
205.8000;0.0879;-0.6838;
206.1000;0.0879;-0.6771;
206.4000;0.0814;-0.6948;
206.7000;0.0895;-0.6815;
207.0000;0.0904;-0.6815;
207.3000;0.0912;-0.6815;
207.6000;0.0912;-0.6815;
207.9000;0.0863;-0.6926;
208.2000;0.0871;-0.6882;
208.5000;0.0887;-0.6948;
208.8000;0.0879;-0.7037;
209.1000;0.0863;-0.6970;
209.4000;0.0871;-0.6882;
209.7000;0.0830;-0.6970;
210.0000;0.0952;-0.6771;
210.3000;0.0887;-0.6838;
210.6000;0.0879;-0.6727;
210.9000;0.0871;-0.6838;
211.2000;0.0879;-0.6727;
211.5000;0.0928;-0.6638;
211.8000;0.0855;-0.6860;
212.1000;0.0863;-0.6793;
212.4000;0.0863;-0.6749;
212.7000;0.0969;-0.6417;
213.0000;0.0871;-0.6661;
213.3000;0.0863;-0.6793;
213.6000;0.0912;-0.6705;
213.9000;0.0871;-0.6838;
214.2000;0.0871;-0.6882;
214.5000;0.0879;-0.6815;
214.8000;0.0887;-0.6793;
215.1000;0.0830;-0.6948;
215.4000;0.0904;-0.6705;
215.7000;0.0838;-0.6860;
216.0000;0.0887;-0.6705;
216.3000;0.0847;-0.6638;
216.6000;0.0863;-0.6683;
216.9000;0.0895;-0.6550;
217.2000;0.0871;-0.6683;
217.5000;0.0863;-0.6793;
217.8000;0.0920;-0.6616;
218.1000;0.0879;-0.6838;
218.4000;0.0879;-0.6815;
218.7000;0.0904;-0.6705;
219.0000;0.0757;-0.7037;
219.3000;0.0895;-0.6661;
219.6000;0.0855;-0.6771;
219.9000;0.0887;-0.6638;
220.2000;0.0879;-0.6616;
220.5000;0.0855;-0.6661;
220.8000;0.0847;-0.6638;
221.1000;0.0871;-0.6572;
221.4000;0.0855;-0.6661;
221.7000;0.0863;-0.6683;
222.0000;0.0879;-0.6727;
222.3000;0.0863;-0.6793;
222.6000;0.0879;-0.6838;
222.9000;0.0895;-0.6771;
223.2000;0.0822;-0.6970;
223.5000;0.0879;-0.6793;
223.8000;0.0847;-0.6838;
224.1000;0.0855;-0.6882;
224.4000;0.0871;-0.6860;
224.7000;0.0871;-0.6882;
225.0000;0.0847;-0.6904;
225.3000;0.0847;-0.6926;
225.6000;0.0863;-0.6904;
225.9000;0.0879;-0.6860;
226.2000;0.0863;-0.6838;
226.5000;0.0895;-0.6793;
226.8000;0.0904;-0.6815;
227.1000;0.0912;-0.6838;
227.4000;0.0798;-0.7103;
227.7000;0.0904;-0.6882;
228.0000;0.0887;-0.6815;
228.3000;0.0895;-0.6771;
228.6000;0.0879;-0.6860;
228.9000;0.0904;-0.6727;
229.2000;0.0863;-0.6860;
229.5000;0.0887;-0.6860;
229.8000;0.0863;-0.6948;
230.1000;0.0879;-0.6926;
230.4000;0.0871;-0.6948;
230.7000;0.0871;-0.6948;
231.0000;0.0879;-0.6904;
231.3000;0.0879;-0.6904;
231.6000;0.0871;-0.6926;
231.9000;0.0879;-0.6815;
232.2000;0.0822;-0.6860;
232.5000;0.0961;-0.6572;
232.8000;0.0863;-0.6860;
233.1000;0.0920;-0.6727;
233.4000;0.0838;-0.6904;
233.7000;0.0879;-0.6838;
234.0000;0.0895;-0.6727;
234.3000;0.0904;-0.6683;
234.6000;0.0863;-0.6771;
234.9000;0.0871;-0.6815;
235.2000;0.0928;-0.6727;
235.5000;0.0806;-0.6992;
235.8000;0.0912;-0.6815;
236.1000;0.0895;-0.6948;
236.4000;0.0847;-0.7147;
236.7000;0.0895;-0.7015;
237.0000;0.0920;-0.6948;
237.3000;0.0887;-0.7059;
237.6000;0.0887;-0.6970;
237.9000;0.0887;-0.7059;
238.2000;0.0887;-0.7015;
238.5000;0.0895;-0.6970;
238.8000;0.0863;-0.7037;
239.1000;0.0847;-0.7059;
239.4000;0.0830;-0.7170;
239.7000;0.0863;-0.7170;
240.0000;0.0920;-0.7015;
240.3000;0.0806;-0.7170;
240.6000;0.1050;-0.6528;
240.9000;0.0895;-0.6970;
241.2000;0.0871;-0.7015;
241.5000;0.0879;-0.6970;
241.8000;0.0904;-0.6926;
242.1000;0.0887;-0.6948;
242.4000;0.0887;-0.6860;
242.7000;0.0904;-0.6882;
243.0000;0.0790;-0.7192;
243.3000;0.0855;-0.7103;
243.6000;0.0895;-0.6992;
243.9000;0.0895;-0.6970;
244.2000;0.0871;-0.6992;
244.5000;0.0912;-0.6860;
244.8000;0.0895;-0.6815;
245.1000;0.0838;-0.7015;
245.4000;0.0887;-0.6970;
245.7000;0.0895;-0.6992;
246.0000;0.0871;-0.7015;
246.3000;0.0855;-0.7037;
246.6000;0.0879;-0.6970;
246.9000;0.0887;-0.6970;
247.2000;0.0879;-0.7015;
247.5000;0.0863;-0.6948;
247.8000;0.0863;-0.6948;
248.1000;0.0887;-0.6838;
248.4000;0.0887;-0.6882;
248.7000;0.0887;-0.6860;
249.0000;0.0887;-0.6904;
249.3000;0.0798;-0.7147;
249.6000;0.0838;-0.7192;
249.9000;0.0871;-0.7192;
250.2000;0.0863;-0.7103;
250.5000;0.0895;-0.7059;
250.8000;0.0887;-0.7081;
251.1000;0.0847;-0.7059;
251.4000;0.0879;-0.6970;
251.7000;0.0879;-0.6970;
252.0000;0.0871;-0.6992;
252.3000;0.0871;-0.7037;
252.6000;0.0871;-0.7125;
252.9000;0.0879;-0.7037;
253.2000;0.0847;-0.7059;
253.5000;0.0887;-0.6860;
253.8000;0.0863;-0.6926;
254.1000;0.0879;-0.6970;
254.4000;0.0920;-0.6815;
254.7000;0.0879;-0.6948;
255.0000;0.0904;-0.6882;
255.3000;0.0879;-0.6948;
255.6000;0.0895;-0.6970;
255.9000;0.0879;-0.7059;
256.2000;0.0871;-0.7059;
256.5000;0.0904;-0.6948;
256.8000;0.0879;-0.7125;
257.1000;0.0904;-0.7059;
257.4000;0.0879;-0.7037;
257.7000;0.0871;-0.7037;
258.0000;0.0847;-0.7059;
258.3000;0.0879;-0.6992;
258.6000;0.0895;-0.6970;
258.9000;0.0871;-0.7015;
259.2000;0.0855;-0.7015;
259.5000;0.0887;-0.6815;
259.8000;0.0904;-0.6838;
260.1000;0.0871;-0.6882;
260.4000;0.0830;-0.6970;
260.7000;0.0895;-0.6793;
261.0000;0.0879;-0.6838;
261.3000;0.0879;-0.6926;
261.6000;0.0871;-0.7081;
261.9000;0.0904;-0.7037;
262.2000;0.0895;-0.7059;
262.5000;0.0847;-0.7170;
262.8000;0.0895;-0.6926;
263.1000;0.0879;-0.6904;
263.4000;0.0879;-0.6904;
263.7000;0.0985;-0.6705;
264.0000;0.0879;-0.6882;
264.3000;0.0863;-0.6882;
264.6000;0.0895;-0.6882;
264.9000;0.0887;-0.6926;
265.2000;0.0863;-0.7015;
265.5000;0.0879;-0.6970;
265.8000;0.0879;-0.6970;
266.1000;0.0887;-0.7059;
266.4000;0.0871;-0.7081;
266.7000;0.0871;-0.7015;
267.0000;0.0863;-0.7037;
267.3000;0.0936;-0.6904;
267.6000;0.0920;-0.6970;
267.9000;0.0871;-0.7081;
268.2000;0.0863;-0.7081;
268.5000;0.0871;-0.7059;
268.8000;0.0912;-0.6926;
269.1000;0.0871;-0.7059;
269.4000;0.0855;-0.7103;
269.7000;0.0887;-0.7015;
270.0000;0.0879;-0.6992;
270.3000;0.0871;-0.7015;
270.6000;0.0969;-0.6793;
270.9000;0.0871;-0.7103;
271.2000;0.0863;-0.7081;
271.5000;0.0863;-0.7059;
271.8000;0.0871;-0.7015;
272.1000;0.0887;-0.6904;
272.4000;0.0904;-0.6771;
272.7000;0.0863;-0.6838;
273.0000;0.0879;-0.6926;
273.3000;0.0895;-0.6815;
273.6000;0.0920;-0.6727;
273.9000;0.0847;-0.6838;
274.2000;0.0904;-0.6749;
274.5000;0.0904;-0.6771;
274.8000;0.0790;-0.7037;
275.1000;0.0871;-0.6838;
275.4000;0.0871;-0.6749;
275.7000;0.0879;-0.6727;
276.0000;0.0887;-0.6771;
276.3000;0.0895;-0.6771;
276.6000;0.0871;-0.6882;
276.9000;0.0887;-0.6793;
277.2000;0.0879;-0.6727;
277.5000;0.0879;-0.6727;
277.8000;0.0863;-0.6727;
278.1000;0.0879;-0.6661;
278.4000;0.0871;-0.6727;
278.7000;0.0895;-0.6638;
279.0000;0.0904;-0.6616;
279.3000;0.0879;-0.6683;
279.6000;0.0936;-0.6616;
279.9000;0.0887;-0.6793;
280.2000;0.0838;-0.6815;
280.5000;0.0855;-0.6749;
280.8000;0.0895;-0.6661;
281.1000;0.0871;-0.6661;
281.4000;0.0895;-0.6616;
281.7000;0.0879;-0.6594;
282.0000;0.0863;-0.6683;
282.3000;0.0920;-0.6550;
282.6000;0.0920;-0.6616;
282.9000;0.0887;-0.6727;
283.2000;0.0855;-0.6771;
283.5000;0.0879;-0.6661;
283.8000;0.0895;-0.6638;
284.1000;0.0895;-0.6594;
284.4000;0.0863;-0.6594;
284.7000;0.0904;-0.6594;
285.0000;0.0847;-0.6815;
285.3000;0.0871;-0.6771;
285.6000;0.0912;-0.6749;
285.9000;0.0879;-0.6727;
286.2000;0.0879;-0.6727;
286.5000;0.0781;-0.6992;
286.8000;0.0887;-0.6771;
287.1000;0.0912;-0.6815;
287.4000;0.0822;-0.7081;
287.7000;0.0928;-0.6815;
288.0000;0.0847;-0.6992;
288.3000;0.0920;-0.6838;
288.6000;0.0871;-0.6926;
288.9000;0.0863;-0.6926;
289.2000;0.0879;-0.6926;
289.5000;0.0822;-0.7103;
289.8000;0.0855;-0.6992;
290.1000;0.0969;-0.6705;
290.4000;0.0863;-0.6904;
290.7000;0.0847;-0.6948;
291.0000;0.0838;-0.6904;
291.3000;0.0814;-0.7037;
291.6000;0.0863;-0.6926;
291.9000;0.0879;-0.6882;
292.2000;0.0871;-0.6860;
292.5000;0.0895;-0.6771;
292.8000;0.0912;-0.6749;
293.1000;0.0895;-0.6771;
293.4000;0.0863;-0.6838;
293.7000;0.0879;-0.6771;
294.0000;0.0879;-0.6749;
294.3000;0.0904;-0.6705;
294.6000;0.0790;-0.7059;
294.9000;0.0887;-0.6815;
295.2000;0.0838;-0.6970;
295.5000;0.0887;-0.6838;
295.8000;0.0895;-0.6771;
296.1000;0.0863;-0.6926;
296.4000;0.0798;-0.7081;
296.7000;0.0855;-0.6948;
297.0000;0.0879;-0.6904;
297.3000;0.0977;-0.6661;
297.6000;0.0895;-0.6882;
297.9000;0.1001;-0.6705;
298.2000;0.0977;-0.6749;
298.5000;0.0920;-0.6860;
298.8000;0.0847;-0.7081;
299.1000;0.0838;-0.7037;
299.4000;0.0887;-0.6904;
299.7000;0.0904;-0.7037;
300.0000;0.0879;-0.7192;
300.3000;0.0912;-0.7192;
300.6000;0.0871;-0.7280;
300.9000;0.0871;-0.7147;
301.2000;0.0838;-0.7170;
301.5000;0.0838;-0.7103;
301.8000;0.0895;-0.7103;
302.1000;0.0904;-0.7125;
302.4000;0.0879;-0.7170;
302.7000;0.0920;-0.7081;
303.0000;0.0904;-0.7147;
303.3000;0.0895;-0.7280;
303.6000;0.0912;-0.7214;
303.9000;0.0895;-0.7302;
304.2000;0.0879;-0.7236;
304.5000;0.0806;-0.7391;
304.8000;0.0879;-0.7324;
305.1000;0.0871;-0.7347;
305.4000;0.0895;-0.7258;
305.7000;0.0814;-0.7457;
306.0000;0.0879;-0.7236;
306.3000;0.0879;-0.7125;
306.6000;0.0863;-0.7125;
306.9000;0.0879;-0.6970;
307.2000;0.0879;-0.7037;
307.5000;0.0895;-0.7037;
307.8000;0.0838;-0.7192;
308.1000;0.0895;-0.7103;
308.4000;0.0879;-0.7214;
308.7000;0.0895;-0.7147;
309.0000;0.0887;-0.7125;
309.3000;0.0855;-0.7214;
309.6000;0.0928;-0.7081;
309.9000;0.0855;-0.7103;
310.2000;0.0855;-0.7037;
310.5000;0.0928;-0.6771;
310.8000;0.0871;-0.6970;
311.1000;0.0855;-0.6970;
311.4000;0.0887;-0.6904;
311.7000;0.0863;-0.6948;
312.0000;0.0814;-0.7103;
312.3000;0.0863;-0.6948;
312.6000;0.0863;-0.6948;
312.9000;0.0895;-0.6904;
313.2000;0.0895;-0.6882;
313.5000;0.0749;-0.7170;
313.8000;0.0757;-0.7214;
314.1000;0.0895;-0.6860;
314.4000;0.0887;-0.6882;
314.7000;0.0871;-0.6992;
315.0000;0.0863;-0.7015;
315.3000;0.0944;-0.6793;
315.6000;0.0895;-0.6860;
315.9000;0.0895;-0.6838;
316.2000;0.0879;-0.6882;
316.5000;0.0838;-0.7015;
316.8000;0.0838;-0.7015;
317.1000;0.0871;-0.6882;
317.4000;0.0895;-0.6882;
317.7000;0.0895;-0.6926;
318.0000;0.0936;-0.6771;
318.3000;0.0895;-0.6860;
318.6000;0.0847;-0.6838;
318.9000;0.0887;-0.6749;
319.2000;0.0895;-0.6771;
319.5000;0.0879;-0.6793;
319.8000;0.0912;-0.6705;
320.1000;0.0895;-0.6727;
320.4000;0.0944;-0.6572;
320.7000;0.0838;-0.6771;
321.0000;0.0863;-0.6749;
321.3000;0.0781;-0.6904;
321.6000;0.0887;-0.6771;
321.9000;0.0806;-0.6970;
322.2000;0.0936;-0.6727;
322.5000;0.0920;-0.6749;
322.8000;0.0847;-0.6926;
323.1000;0.0871;-0.6815;
323.4000;0.0871;-0.6838;
323.7000;0.0887;-0.6904;
324.0000;0.0863;-0.6948;
324.3000;0.0879;-0.6904;
324.6000;0.0871;-0.6992;
324.9000;0.0879;-0.6970;
325.2000;0.0855;-0.6970;
325.5000;0.0904;-0.6882;
325.8000;0.0887;-0.6926;
326.1000;0.0863;-0.6992;
326.4000;0.0887;-0.6904;
326.7000;0.0895;-0.6904;
327.0000;0.0928;-0.6815;
327.3000;0.0879;-0.6838;
327.6000;0.0912;-0.6705;
327.9000;0.0879;-0.6882;
328.2000;0.0887;-0.6838;
328.5000;0.0871;-0.6793;
328.8000;0.0895;-0.6749;
329.1000;0.1026;-0.6484;
329.4000;0.0879;-0.6926;
329.7000;0.0887;-0.6860;
330.0000;0.0879;-0.6904;
330.3000;0.0871;-0.6926;
330.6000;0.0847;-0.6948;
330.9000;0.0879;-0.6793;
331.2000;0.0879;-0.6749;
331.5000;0.0887;-0.6727;
331.8000;0.0895;-0.6705;
332.1000;0.0757;-0.6948;
332.4000;0.0904;-0.6661;
332.7000;0.0871;-0.6749;
333.0000;0.0895;-0.6727;
333.3000;0.0798;-0.6992;
333.6000;0.0952;-0.6638;
333.9000;0.0904;-0.6683;
334.2000;0.0790;-0.6948;
334.5000;0.0871;-0.6727;
334.8000;0.0863;-0.6705;
335.1000;0.0887;-0.6727;
335.4000;0.0830;-0.6860;
335.7000;0.0822;-0.6904;
336.0000;0.0879;-0.6815;
336.3000;0.0895;-0.6749;
336.6000;0.0912;-0.6749;
336.9000;0.0887;-0.6815;
337.2000;0.0887;-0.6860;
337.5000;0.0895;-0.6815;
337.8000;0.0814;-0.7125;
338.1000;0.0879;-0.6970;
338.4000;0.0895;-0.6926;
338.7000;0.0887;-0.6904;
339.0000;0.0790;-0.7081;
339.3000;0.0904;-0.6838;
339.6000;0.0904;-0.6838;
339.9000;0.0863;-0.6926;
340.2000;0.0806;-0.7103;
340.5000;0.0871;-0.6970;
340.8000;0.0887;-0.6926;
341.1000;0.0871;-0.6948;
341.4000;0.0879;-0.7059;
341.7000;0.0847;-0.7125;
342.0000;0.0920;-0.6860;
342.3000;0.0887;-0.6992;
342.6000;0.0863;-0.7103;
342.9000;0.0871;-0.7081;
343.2000;0.0895;-0.7103;
343.5000;0.0871;-0.7125;
343.8000;0.0871;-0.7192;
344.1000;0.0855;-0.7214;
344.4000;0.0879;-0.7147;
344.7000;0.0871;-0.7103;
345.0000;0.0781;-0.7236;
345.3000;0.0920;-0.6948;
345.6000;0.0863;-0.7125;
345.9000;0.0879;-0.7170;
346.2000;0.0904;-0.7103;
346.5000;0.0863;-0.7258;
346.8000;0.0879;-0.7170;
347.1000;0.0887;-0.7081;
347.4000;0.0863;-0.7147;
347.7000;0.0863;-0.7125;
348.0000;0.0871;-0.7059;
348.3000;0.0879;-0.7059;
348.6000;0.0879;-0.6970;
348.9000;0.0863;-0.6970;
349.2000;0.0944;-0.6793;
349.5000;0.0944;-0.6860;
349.8000;0.0904;-0.6970;
350.1000;0.0887;-0.7081;
350.4000;0.0855;-0.7103;
350.7000;0.0879;-0.7081;
351.0000;0.0887;-0.7059;
351.3000;0.0879;-0.7103;
351.6000;0.0879;-0.7037;
351.9000;0.0879;-0.7081;
352.2000;0.0887;-0.7015;
352.5000;0.0887;-0.7059;
352.8000;0.0887;-0.6992;
353.1000;0.0855;-0.7081;
353.4000;0.0879;-0.7037;
353.7000;0.0855;-0.7103;
354.0000;0.0887;-0.6992;
354.3000;0.0887;-0.7015;
354.6000;0.0920;-0.6882;
354.9000;0.0871;-0.6948;
355.2000;0.0887;-0.6838;
355.5000;0.0847;-0.6860;
355.8000;0.0904;-0.6815;
356.1000;0.0871;-0.7015;
356.4000;0.0952;-0.6793;
356.7000;0.0855;-0.7125;
357.0000;0.0871;-0.6992;
357.3000;0.0895;-0.6838;
357.6000;0.0887;-0.6793;
357.9000;0.0895;-0.6771;
358.2000;0.0895;-0.6838;
358.5000;0.0887;-0.6904;
358.8000;0.0871;-0.6970;
359.1000;0.0887;-0.6948;
359.4000;0.0879;-0.6904;
359.7000;0.0887;-0.6882;
360.0000;0.0895;-0.6904;
360.3000;0.0904;-0.6860;
360.6000;0.0863;-0.6926;
360.9000;0.0871;-0.6904;
361.2000;0.0871;-0.6970;
361.5000;0.0879;-0.6948;
361.8000;0.0855;-0.7037;
362.1000;0.0879;-0.7015;
362.4000;0.0871;-0.7059;
362.7000;0.0863;-0.7037;
363.0000;0.0871;-0.6926;
363.3000;0.0871;-0.6882;
363.6000;0.0871;-0.6904;
363.9000;0.0879;-0.6904;
364.2000;0.0871;-0.6948;
364.5000;0.0977;-0.6749;
364.8000;0.0863;-0.7037;
365.1000;0.0871;-0.6992;
365.4000;0.0887;-0.6904;
365.7000;0.0871;-0.6970;
366.0000;0.0904;-0.6882;
366.3000;0.0863;-0.7015;
366.6000;0.0879;-0.6970;
366.9000;0.0879;-0.6882;
367.2000;0.0871;-0.6838;
367.5000;0.0912;-0.6749;
367.8000;0.0871;-0.6793;
368.1000;0.0863;-0.6815;
368.4000;0.0887;-0.6815;
368.7000;0.0879;-0.6838;
369.0000;0.0773;-0.7081;
369.3000;0.0904;-0.6749;
369.6000;0.0863;-0.6860;
369.9000;0.0904;-0.6771;
370.2000;0.0887;-0.6838;
370.5000;0.0879;-0.6904;
370.8000;0.0879;-0.6926;
371.1000;0.0879;-0.6948;
371.4000;0.0895;-0.6860;
371.7000;0.0895;-0.6926;
372.0000;0.0887;-0.6904;
372.3000;0.0871;-0.6904;
372.6000;0.0920;-0.6838;
372.9000;0.0863;-0.6970;
373.2000;0.0879;-0.7059;
373.5000;0.0847;-0.7214;
373.8000;0.0895;-0.7214;
374.1000;0.0887;-0.7147;
374.4000;0.0879;-0.7103;
374.7000;0.0879;-0.7147;
375.0000;0.0855;-0.7103;
375.3000;0.0871;-0.7103;
375.6000;0.0871;-0.7236;
375.9000;0.0879;-0.7192;
376.2000;0.0887;-0.7214;
376.5000;0.0879;-0.7258;
376.8000;0.0887;-0.7170;
377.1000;0.0879;-0.7214;
377.4000;0.0871;-0.7214;
377.7000;0.0895;-0.7192;
378.0000;0.0871;-0.7258;
378.3000;0.0863;-0.7280;
378.6000;0.0871;-0.7302;
378.9000;0.0895;-0.7236;
379.2000;0.0855;-0.7214;
379.5000;0.0798;-0.7347;
379.8000;0.0879;-0.7147;
380.1000;0.0879;-0.7081;
380.4000;0.0863;-0.7081;
380.7000;0.0952;-0.6793;
381.0000;0.0887;-0.6970;
381.3000;0.0871;-0.6992;
381.6000;0.0895;-0.7015;
381.9000;0.0871;-0.7015;
382.2000;0.0879;-0.7037;
382.5000;0.0912;-0.6948;
382.8000;0.0887;-0.6948;
383.1000;0.0887;-0.6992;
383.4000;0.0879;-0.7037;
383.7000;0.0887;-0.6948;
384.0000;0.0887;-0.6860;
384.3000;0.1042;-0.6550;
384.6000;0.0887;-0.6904;
384.9000;0.0871;-0.6904;
385.2000;0.0887;-0.6882;
385.5000;0.0895;-0.6860;
385.8000;0.0871;-0.6992;
386.1000;0.0806;-0.7192;
386.4000;0.0879;-0.7059;
386.7000;0.0904;-0.7103;
387.0000;0.0895;-0.7170;
387.3000;0.0887;-0.7081;
387.6000;0.0920;-0.6926;
387.9000;0.0879;-0.6882;
388.2000;0.0879;-0.6926;
388.5000;0.0863;-0.6970;
388.8000;0.0887;-0.6926;
389.1000;0.0887;-0.6904;
389.4000;0.0912;-0.6860;
389.7000;0.0871;-0.7037;
390.0000;0.0863;-0.7081;
390.3000;0.0895;-0.7015;
390.6000;0.0879;-0.7081;
390.9000;0.0928;-0.6926;
391.2000;0.0863;-0.7059;
391.5000;0.1009;-0.6838;
391.8000;0.0887;-0.7147;
392.1000;0.0895;-0.7147;
392.4000;0.0830;-0.7258;
392.7000;0.0871;-0.7236;
393.0000;0.0879;-0.7192;
393.3000;0.0879;-0.7236;
393.6000;0.0871;-0.7302;
393.9000;0.0871;-0.7258;
394.2000;0.0904;-0.7125;
394.5000;0.0904;-0.7081;
394.8000;0.0871;-0.7147;
395.1000;0.0871;-0.7125;
395.4000;0.0904;-0.6992;
395.7000;0.0895;-0.7059;
396.0000;0.0879;-0.7059;
396.3000;0.0879;-0.7059;
396.6000;0.0904;-0.6992;
396.9000;0.0879;-0.6992;
397.2000;0.0912;-0.6948;
397.5000;0.0814;-0.7147;
397.8000;0.0887;-0.6992;
398.1000;0.0879;-0.7059;
398.4000;0.0912;-0.6970;
398.7000;0.0871;-0.7059;
399.0000;0.0871;-0.7103;
399.3000;0.0871;-0.7103;
399.6000;0.0879;-0.7170;
399.9000;0.0863;-0.7170;
400.2000;0.0871;-0.7147;
400.5000;0.0871;-0.7125;
400.8000;0.0855;-0.7214;
401.1000;0.0871;-0.7214;
401.4000;0.0847;-0.7147;
401.7000;0.0863;-0.7103;
402.0000;0.0895;-0.7037;
402.3000;0.0879;-0.7081;
402.6000;0.0887;-0.6970;
402.9000;0.0895;-0.6860;
403.2000;0.0887;-0.6815;
403.5000;0.0904;-0.6727;
403.8000;0.0863;-0.6882;
404.1000;0.0887;-0.6749;
404.4000;0.0887;-0.6749;
404.7000;0.0871;-0.6793;
405.0000;0.0879;-0.6771;
405.3000;0.0871;-0.6749;
405.6000;0.0863;-0.6771;
405.9000;0.0879;-0.6727;
406.2000;0.0855;-0.6793;
406.5000;0.0871;-0.6860;
406.8000;0.0879;-0.6771;
407.1000;0.0838;-0.6948;
407.4000;0.1001;-0.6572;
407.7000;0.0879;-0.6882;
408.0000;0.0879;-0.6948;
408.3000;0.0863;-0.6860;
408.6000;0.0887;-0.6793;
408.9000;0.0871;-0.6882;
409.2000;0.0790;-0.7170;
409.5000;0.0895;-0.6882;
409.8000;0.0887;-0.6904;
410.1000;0.0855;-0.6904;
410.4000;0.0871;-0.6815;
410.7000;0.0871;-0.6705;
411.0000;0.0863;-0.6638;
411.3000;0.0895;-0.6572;
411.6000;0.0855;-0.6749;
411.9000;0.0863;-0.6749;
412.2000;0.0887;-0.6705;
412.5000;0.0895;-0.6727;
412.8000;0.0871;-0.6815;
413.1000;0.0863;-0.6904;
413.4000;0.0863;-0.6926;
413.7000;0.0879;-0.6882;
414.0000;0.0863;-0.6793;
414.3000;0.0847;-0.6882;
414.6000;0.0928;-0.6638;
414.9000;0.0871;-0.6749;
415.2000;0.0912;-0.6705;
415.5000;0.0871;-0.6815;
415.8000;0.0879;-0.6793;
416.1000;0.0879;-0.6705;
416.4000;0.0895;-0.6661;
416.7000;0.0863;-0.6860;
417.0000;0.0863;-0.6860;
417.3000;0.0887;-0.6838;
417.6000;0.0855;-0.6838;
417.9000;0.0879;-0.6793;
418.2000;0.0855;-0.6815;
418.5000;0.0895;-0.6705;
418.8000;0.0871;-0.6771;
419.1000;0.0871;-0.6771;
419.4000;0.0847;-0.6926;
419.7000;0.0847;-0.6838;
420.0000;0.0895;-0.6683;
420.3000;0.0887;-0.6683;
420.6000;0.0863;-0.6705;
420.9000;0.0928;-0.6550;
421.2000;0.0879;-0.6616;
421.5000;0.0871;-0.6683;
421.8000;0.0822;-0.6793;
422.1000;0.0879;-0.6705;
422.4000;0.0887;-0.6661;
422.7000;0.0895;-0.6749;
423.0000;0.0887;-0.6860;
423.3000;0.0806;-0.7037;
423.6000;0.0912;-0.6793;
423.9000;0.0855;-0.6904;
424.2000;0.0871;-0.6860;
424.5000;0.0830;-0.6860;
424.8000;0.0904;-0.6727;
425.1000;0.0879;-0.6838;
425.4000;0.0879;-0.6904;
425.7000;0.0879;-0.6992;
426.0000;0.0847;-0.7125;
426.3000;0.0887;-0.7037;
426.6000;0.0871;-0.6992;
426.9000;0.0863;-0.6992;
427.2000;0.0863;-0.7015;
427.5000;0.0879;-0.7015;
427.8000;0.0822;-0.7125;
428.1000;0.0879;-0.7037;
428.4000;0.0887;-0.7015;
428.7000;0.0904;-0.6992;
429.0000;0.0879;-0.6948;
429.3000;0.0969;-0.6749;
429.6000;0.0952;-0.6727;
429.9000;0.0879;-0.6838;
430.2000;0.0871;-0.6838;
430.5000;0.0879;-0.6860;
430.8000;0.0879;-0.6970;
431.1000;0.0871;-0.6992;
431.4000;0.0806;-0.7103;
431.7000;0.0887;-0.6904;
432.0000;0.0887;-0.6860;
432.3000;0.0871;-0.6882;
432.6000;0.0887;-0.6860;
432.9000;0.0863;-0.6970;
433.2000;0.0879;-0.6904;
433.5000;0.0944;-0.6749;
433.8000;0.0895;-0.6860;
434.1000;0.0838;-0.6970;
434.4000;0.0887;-0.6860;
434.7000;0.0887;-0.6882;
435.0000;0.0904;-0.6926;
435.3000;0.0977;-0.6727;
435.6000;0.0904;-0.6838;
435.9000;0.0879;-0.6970;
436.2000;0.0806;-0.7125;
436.5000;0.0887;-0.6926;
436.8000;0.0904;-0.6904;
437.1000;0.0871;-0.7015;
437.4000;0.0887;-0.6992;
437.7000;0.0887;-0.7037;
438.0000;0.0879;-0.7037;
438.3000;0.0887;-0.6838;
438.6000;0.0887;-0.6793;
438.9000;0.0895;-0.6771;
439.2000;0.0895;-0.6860;
439.5000;0.0879;-0.6860;
439.8000;0.0871;-0.6926;
440.1000;0.0879;-0.6904;
440.4000;0.0871;-0.6904;
440.7000;0.0895;-0.6860;
441.0000;0.0879;-0.6860;
441.3000;0.0871;-0.6838;
441.6000;0.0863;-0.6882;
441.9000;0.0871;-0.6727;
442.2000;0.0855;-0.6793;
442.5000;0.0879;-0.6749;
442.8000;0.0904;-0.6771;
443.1000;0.0887;-0.6815;
443.4000;0.0879;-0.6815;
443.7000;0.0887;-0.6838;
444.0000;0.0895;-0.6838;
444.3000;0.0863;-0.6926;
444.6000;0.0871;-0.6970;
444.9000;0.0928;-0.6838;
445.2000;0.0863;-0.6970;
445.5000;0.0887;-0.6948;
445.8000;0.0887;-0.7059;
446.1000;0.0855;-0.7125;
446.4000;0.0847;-0.7170;
446.7000;0.0920;-0.7081;
447.0000;0.0863;-0.7258;
447.3000;0.0895;-0.7170;
447.6000;0.0895;-0.7103;
447.9000;0.0895;-0.6992;
448.2000;0.0895;-0.6970;
448.5000;0.0887;-0.6970;
448.8000;0.0855;-0.7059;
449.1000;0.0895;-0.6860;
449.4000;0.0879;-0.6926;
449.7000;0.0928;-0.6904;
450.0000;0.0895;-0.6904;
450.3000;0.0887;-0.6904;
450.6000;0.0879;-0.6904;
450.9000;0.0871;-0.6948;
451.2000;0.0871;-0.6904;
451.5000;0.0879;-0.6926;
451.8000;0.0936;-0.6638;
452.1000;0.0863;-0.6793;
452.4000;0.0961;-0.6572;
452.7000;0.0879;-0.6860;
453.0000;0.0855;-0.6904;
453.3000;0.0969;-0.6616;
453.6000;0.0944;-0.6616;
453.9000;0.0806;-0.6992;
454.2000;0.0855;-0.6771;
454.5000;0.0879;-0.6638;
454.8000;0.0863;-0.6705;
455.1000;0.0871;-0.6683;
455.4000;0.0871;-0.6749;
455.7000;0.0863;-0.6838;
456.0000;0.0912;-0.6661;
456.3000;0.0863;-0.6749;
456.6000;0.0895;-0.6705;
456.9000;0.0871;-0.6882;
457.2000;0.0814;-0.7015;
457.5000;0.0871;-0.7015;
457.8000;0.0879;-0.6948;
458.1000;0.0879;-0.6992;
458.4000;0.0920;-0.6970;
458.7000;0.0879;-0.7081;
459.0000;0.0871;-0.6970;
459.3000;0.0871;-0.6904;
459.6000;0.0879;-0.6860;
459.9000;0.0871;-0.6860;
460.2000;0.0895;-0.6815;
460.5000;0.0944;-0.6749;
460.8000;0.0871;-0.7037;
461.1000;0.0879;-0.7037;
461.4000;0.0863;-0.7081;
461.7000;0.0879;-0.7015;
462.0000;0.0871;-0.7015;
462.3000;0.0871;-0.7015;
462.6000;0.0920;-0.6882;
462.9000;0.0879;-0.6992;
463.2000;0.0871;-0.7015;
463.5000;0.0887;-0.6970;
463.8000;0.0781;-0.7258;
464.1000;0.0887;-0.6904;
464.4000;0.0871;-0.6904;
464.7000;0.0871;-0.6904;
465.0000;0.0879;-0.6926;
465.3000;0.0879;-0.6926;
465.6000;0.0871;-0.6970;
465.9000;0.0871;-0.7015;
466.2000;0.0822;-0.7037;
466.5000;0.0838;-0.6992;
466.8000;0.0879;-0.6860;
467.1000;0.0887;-0.6904;
467.4000;0.0855;-0.6904;
467.7000;0.0765;-0.7081;
468.0000;0.0887;-0.6793;
468.3000;0.0863;-0.6838;
468.6000;0.0912;-0.6771;
468.9000;0.0879;-0.6838;
469.2000;0.0977;-0.6705;
469.5000;0.0879;-0.6948;
469.8000;0.0928;-0.6860;
470.1000;0.0871;-0.6948;
470.4000;0.0871;-0.6926;
470.7000;0.0952;-0.6749;
471.0000;0.0855;-0.6904;
471.3000;0.0790;-0.6992;
471.6000;0.0887;-0.6860;
471.9000;0.0879;-0.6793;
472.2000;0.0969;-0.6594;
472.5000;0.0871;-0.6860;
472.8000;0.0887;-0.6838;
473.1000;0.0887;-0.6815;
473.4000;0.0928;-0.6749;
473.7000;0.0855;-0.6904;
474.0000;0.0920;-0.6749;
474.3000;0.0879;-0.6793;
474.6000;0.0879;-0.6882;
474.9000;0.0879;-0.6948;
475.2000;0.0887;-0.6970;
475.5000;0.0822;-0.7147;
475.8000;0.0895;-0.6970;
476.1000;0.0895;-0.6970;
476.4000;0.0806;-0.7192;
476.7000;0.0863;-0.7081;
477.0000;0.0887;-0.7037;
477.3000;0.0863;-0.7103;
477.6000;0.0863;-0.7103;
477.9000;0.0887;-0.7015;
478.2000;0.0871;-0.7059;
478.5000;0.0871;-0.7037;
478.8000;0.0879;-0.7015;
479.1000;0.0879;-0.6992;
479.4000;0.0855;-0.7015;
479.7000;0.0895;-0.6860;
480.0000;0.0887;-0.6860;
480.3000;0.0879;-0.6882;
480.6000;0.0871;-0.6970;
480.9000;0.0855;-0.6948;
481.2000;0.0895;-0.6904;
481.5000;0.0879;-0.6882;
481.8000;0.0871;-0.6926;
482.1000;0.0863;-0.6948;
482.4000;0.0887;-0.6948;
482.7000;0.0863;-0.6948;
483.0000;0.0879;-0.6882;
483.3000;0.0904;-0.6838;
483.6000;0.0887;-0.6904;
483.9000;0.0871;-0.6992;
484.2000;0.0895;-0.6970;
484.5000;0.0904;-0.6948;
484.8000;0.0904;-0.6904;
485.1000;0.0879;-0.6948;
485.4000;0.0863;-0.6882;
485.7000;0.0863;-0.6926;
486.0000;0.0879;-0.7015;
486.3000;0.0863;-0.7081;
486.6000;0.0977;-0.6882;
486.9000;0.0871;-0.7081;
487.2000;0.0879;-0.6992;
487.5000;0.0871;-0.6926;
487.8000;0.0879;-0.6904;
488.1000;0.0887;-0.6838;
488.4000;0.0879;-0.6926;
488.7000;0.0871;-0.6948;
489.0000;0.0871;-0.6860;
489.3000;0.0871;-0.6948;
489.6000;0.0887;-0.6926;
489.9000;0.0749;-0.7170;
490.2000;0.0887;-0.6815;
490.5000;0.0863;-0.6970;
490.8000;0.0863;-0.6948;
491.1000;0.0814;-0.7037;
491.4000;0.0871;-0.6860;
491.7000;0.0830;-0.6992;
492.0000;0.0863;-0.6815;
492.3000;0.0887;-0.6771;
492.6000;0.0814;-0.7037;
492.9000;0.0855;-0.6904;
493.2000;0.0887;-0.6771;
493.5000;0.0871;-0.6771;
493.8000;0.0879;-0.6838;
494.1000;0.0871;-0.6860;
494.4000;0.0879;-0.6705;
494.7000;0.0879;-0.6638;
495.0000;0.0863;-0.6705;
495.3000;0.0879;-0.6705;
495.6000;0.0879;-0.6749;
495.9000;0.0871;-0.6793;
496.2000;0.0895;-0.6815;
496.5000;0.0887;-0.6926;
496.8000;0.0871;-0.6948;
497.1000;0.0961;-0.6638;
497.4000;0.0969;-0.6572;
497.7000;0.0879;-0.6771;
498.0000;0.0879;-0.6749;
498.3000;0.0920;-0.6683;
498.6000;0.0879;-0.6771;
498.9000;0.0887;-0.6749;
499.2000;0.0871;-0.6860;
499.5000;0.0757;-0.7103;
499.8000;0.0879;-0.6838;
500.1000;0.0904;-0.6727;
500.4000;0.0887;-0.6727;
500.7000;0.0895;-0.6727;
501.0000;0.0879;-0.6793;
501.3000;0.0895;-0.6749;
501.6000;0.0887;-0.6727;
501.9000;0.0855;-0.6838;
502.2000;0.0806;-0.6948;
502.5000;0.0871;-0.6771;
502.8000;0.0871;-0.6793;
503.1000;0.0993;-0.6439;
503.4000;0.0895;-0.6638;
503.7000;0.0887;-0.6705;
504.0000;0.0879;-0.6616;
504.3000;0.0944;-0.6417;
504.6000;0.0847;-0.6661;
504.9000;0.0798;-0.6838;
505.2000;0.0887;-0.6616;
505.5000;0.0936;-0.6572;
505.8000;0.0879;-0.6705;
506.1000;0.0871;-0.6661;
506.4000;0.0871;-0.6661;
506.7000;0.0871;-0.6683;
507.0000;0.0863;-0.6727;
507.3000;0.0871;-0.6749;
507.6000;0.0920;-0.6705;
507.9000;0.0887;-0.6838;
508.2000;0.0847;-0.6948;
508.5000;0.0863;-0.6948;
508.8000;0.0863;-0.6948;
509.1000;0.0871;-0.6882;
509.4000;0.0822;-0.7037;
509.7000;0.0871;-0.6970;
510.0000;0.0855;-0.6992;
510.3000;0.0855;-0.7015;
510.6000;0.0863;-0.6948;
510.9000;0.0855;-0.6926;
511.2000;0.0871;-0.6926;
511.5000;0.0830;-0.6992;
511.8000;0.0765;-0.7081;
512.1000;0.0863;-0.6727;
512.4000;0.0863;-0.6771;
512.7000;0.0871;-0.6749;
513.0000;0.0887;-0.6727;
513.3000;0.0871;-0.6793;
513.6000;0.0879;-0.6793;
513.9000;0.0912;-0.6727;
514.2000;0.0895;-0.6727;
514.5000;0.0871;-0.6727;
514.8000;0.0904;-0.6616;
515.1000;0.0863;-0.6749;
515.4000;0.0863;-0.6727;
515.7000;0.0781;-0.6904;
516.0000;0.0855;-0.6705;
516.3000;0.0838;-0.6749;
516.6000;0.0871;-0.6661;
516.9000;0.0920;-0.6572;
517.2000;0.0773;-0.6882;
517.5000;0.0847;-0.6661;
517.8000;0.0830;-0.6771;
518.1000;0.0895;-0.6661;
518.4000;0.0879;-0.6749;
518.7000;0.0912;-0.6771;
519.0000;0.0944;-0.6616;
519.3000;0.0871;-0.6749;
519.6000;0.0871;-0.6727;
519.9000;0.0879;-0.6749;
520.2000;0.0855;-0.6771;
520.5000;0.0781;-0.6926;
520.8000;0.0830;-0.6793;
521.1000;0.0879;-0.6705;
521.4000;0.0863;-0.6705;
521.7000;0.0871;-0.6749;
522.0000;0.0847;-0.6727;
522.3000;0.0879;-0.6638;
522.6000;0.0887;-0.6572;
522.9000;0.0855;-0.6683;
523.2000;0.0838;-0.6705;
523.5000;0.0887;-0.6594;
523.8000;0.0952;-0.6439;
524.1000;0.0879;-0.6616;
524.4000;0.0871;-0.6727;
524.7000;0.0871;-0.6705;
525.0000;0.0887;-0.6661;
525.3000;0.0977;-0.6461;
525.6000;0.0871;-0.6638;
525.9000;0.0847;-0.6638;
526.2000;0.0879;-0.6594;
526.5000;0.0871;-0.6683;
526.8000;0.0879;-0.6661;
527.1000;0.0871;-0.6683;
527.4000;0.0887;-0.6594;
527.7000;0.0879;-0.6616;
528.0000;0.0749;-0.6793;
528.3000;0.0912;-0.6484;
528.6000;0.0871;-0.6616;
528.9000;0.0863;-0.6638;
529.2000;0.0912;-0.6528;
529.5000;0.0798;-0.6815;
529.8000;0.0887;-0.6661;
530.1000;0.0887;-0.6727;
530.4000;0.0814;-0.6815;
530.7000;0.0838;-0.6749;
531.0000;0.0855;-0.6727;
531.3000;0.0838;-0.6793;
531.6000;0.0871;-0.6793;
531.9000;0.0863;-0.6838;
532.2000;0.0847;-0.6926;
532.5000;0.0863;-0.6838;
532.8000;0.0863;-0.6727;
533.1000;0.0838;-0.6749;
533.4000;0.0887;-0.6661;
533.7000;0.0887;-0.6683;
534.0000;0.0895;-0.6638;
534.3000;0.0904;-0.6550;
534.6000;0.0887;-0.6572;
534.9000;0.0887;-0.6550;
535.2000;0.0773;-0.6683;
535.5000;0.0871;-0.6484;
535.8000;0.0847;-0.6616;
536.1000;0.0871;-0.6594;
536.4000;0.0871;-0.6528;
536.7000;0.0879;-0.6528;
537.0000;0.0887;-0.6572;
537.3000;0.0847;-0.6661;
537.6000;0.0887;-0.6550;
537.9000;0.0838;-0.6661;
538.2000;0.0879;-0.6594;
538.5000;0.0871;-0.6616;
538.8000;0.0879;-0.6550;
539.1000;0.0993;-0.6284;
539.4000;0.0887;-0.6683;
539.7000;0.0814;-0.6860;
540.0000;0.0863;-0.6727;
540.3000;0.0871;-0.6661;
540.6000;0.0855;-0.6749;
540.9000;0.0879;-0.6749;
541.2000;0.0936;-0.6528;
541.5000;0.0855;-0.6815;
541.8000;0.0887;-0.6749;
542.1000;0.0879;-0.6727;
542.4000;0.0863;-0.6793;
542.7000;0.0904;-0.6705;
543.0000;0.0879;-0.6705;
543.3000;0.0879;-0.6683;
543.6000;0.0871;-0.6705;
543.9000;0.0863;-0.6749;
544.2000;0.0887;-0.6683;
544.5000;0.0887;-0.6638;
544.8000;0.0790;-0.6926;
545.1000;0.0879;-0.6705;
545.4000;0.0863;-0.6638;
545.7000;0.0920;-0.6417;
546.0000;0.0855;-0.6528;
546.3000;0.0863;-0.6550;
546.6000;0.0863;-0.6461;
546.9000;0.0863;-0.6417;
547.2000;0.0895;-0.6351;
547.5000;0.0830;-0.6484;
547.8000;0.0863;-0.6484;
548.1000;0.0895;-0.6417;
548.4000;0.0863;-0.6484;
548.7000;0.0814;-0.6616;
549.0000;0.0871;-0.6461;
549.3000;0.0928;-0.6373;
549.6000;0.0879;-0.6550;
549.9000;0.0879;-0.6638;
550.2000;0.0871;-0.6683;
550.5000;0.0838;-0.6727;
550.8000;0.0855;-0.6705;
551.1000;0.0920;-0.6506;
551.4000;0.0912;-0.6528;
551.7000;0.0879;-0.6594;
552.0000;0.0895;-0.6572;
552.3000;0.0830;-0.6793;
552.6000;0.0887;-0.6705;
552.9000;0.0847;-0.6793;
553.2000;0.0855;-0.6749;
553.5000;0.0887;-0.6661;
553.8000;0.0871;-0.6705;
554.1000;0.0871;-0.6771;
554.4000;0.0904;-0.6749;
554.7000;0.0871;-0.6727;
555.0000;0.0879;-0.6749;
555.3000;0.0871;-0.6727;
555.6000;0.0879;-0.6683;
555.9000;0.0879;-0.6616;
556.2000;0.0887;-0.6572;
556.5000;0.0879;-0.6461;
556.8000;0.0855;-0.6484;
557.1000;0.0887;-0.6395;
557.4000;0.0879;-0.6417;
557.7000;0.0887;-0.6484;
558.0000;0.0863;-0.6461;
558.3000;0.0879;-0.6417;
558.6000;0.0961;-0.6196;
558.9000;0.0830;-0.6528;
559.2000;0.0879;-0.6417;
559.5000;0.0871;-0.6461;
559.8000;0.0895;-0.6461;
560.1000;0.0847;-0.6550;
560.4000;0.0879;-0.6439;
560.7000;0.1042;-0.6063;
561.0000;0.0871;-0.6506;
561.3000;0.0879;-0.6528;
561.6000;0.0871;-0.6506;
561.9000;0.0895;-0.6506;
562.2000;0.0887;-0.6616;
562.5000;0.0871;-0.6572;
562.8000;0.0855;-0.6572;
563.1000;0.0887;-0.6550;
563.4000;0.0936;-0.6484;
563.7000;0.0814;-0.6793;
564.0000;0.0879;-0.6572;
564.3000;0.0912;-0.6506;
564.6000;0.0871;-0.6616;
564.9000;0.0887;-0.6661;
565.2000;0.0830;-0.6815;
565.5000;0.0879;-0.6815;
565.8000;0.0871;-0.6815;
566.1000;0.0871;-0.6838;
566.4000;0.0895;-0.6727;
566.7000;0.0879;-0.6638;
567.0000;0.0871;-0.6550;
567.3000;0.0847;-0.6550;
567.6000;0.0887;-0.6484;
567.9000;0.0863;-0.6594;
568.2000;0.0765;-0.6860;
568.5000;0.0895;-0.6506;
568.8000;0.0952;-0.6373;
569.1000;0.0871;-0.6616;
569.4000;0.0887;-0.6550;
569.7000;0.0879;-0.6550;
570.0000;0.0887;-0.6594;
570.3000;0.0895;-0.6572;
570.6000;0.0887;-0.6594;
570.9000;0.0879;-0.6572;
571.2000;0.0904;-0.6572;
571.5000;0.0830;-0.6793;
571.8000;0.0920;-0.6638;
572.1000;0.0879;-0.6683;
572.4000;0.0863;-0.6661;
572.7000;0.0863;-0.6572;
573.0000;0.0863;-0.6594;
573.3000;0.0879;-0.6528;
573.6000;0.0879;-0.6417;
573.9000;0.0871;-0.6461;
574.2000;0.0863;-0.6506;
574.5000;0.0895;-0.6506;
574.8000;0.0887;-0.6439;
575.1000;0.0871;-0.6439;
575.4000;0.0863;-0.6550;
575.7000;0.0871;-0.6572;
576.0000;0.0855;-0.6528;
576.3000;0.0871;-0.6461;
576.6000;0.0879;-0.6439;
576.9000;0.0855;-0.6506;
577.2000;0.0871;-0.6417;
577.5000;0.0912;-0.6373;
577.8000;0.0879;-0.6506;
578.1000;0.0879;-0.6461;
578.4000;0.0887;-0.6506;
578.7000;0.0920;-0.6417;
579.0000;0.0855;-0.6550;
579.3000;0.0904;-0.6461;
579.6000;0.0863;-0.6616;
579.9000;0.0904;-0.6506;
580.2000;0.0895;-0.6506;
580.5000;0.0871;-0.6550;
580.8000;0.0887;-0.6572;
581.1000;0.0879;-0.6594;
581.4000;0.0895;-0.6572;
581.7000;0.0830;-0.6727;
582.0000;0.0887;-0.6550;
582.3000;0.0904;-0.6550;
582.6000;0.0895;-0.6594;
582.9000;0.0847;-0.6661;
583.2000;0.0871;-0.6705;
583.5000;0.0920;-0.6616;
583.8000;0.0814;-0.6838;
584.1000;0.0838;-0.6749;
584.4000;0.0879;-0.6705;
584.7000;0.0838;-0.6860;
585.0000;0.0879;-0.6683;
585.3000;0.0887;-0.6683;
585.6000;0.0895;-0.6572;
585.9000;0.0855;-0.6638;
586.2000;0.0863;-0.6594;
586.5000;0.0879;-0.6638;
586.8000;0.0790;-0.6904;
587.1000;0.0847;-0.6771;
587.4000;0.0757;-0.6926;
587.7000;0.0863;-0.6683;
588.0000;0.0879;-0.6661;
588.3000;0.0798;-0.6771;
588.6000;0.0879;-0.6638;
588.9000;0.0961;-0.6329;
589.2000;0.0855;-0.6572;
589.5000;0.0887;-0.6439;
589.8000;0.0855;-0.6484;
590.1000;0.0879;-0.6439;
590.4000;0.0863;-0.6484;
590.7000;0.0838;-0.6550;
591.0000;0.0863;-0.6506;
591.3000;0.0781;-0.6683;
591.6000;0.0855;-0.6461;
591.9000;0.0952;-0.6307;
592.2000;0.0895;-0.6484;
592.5000;0.0879;-0.6572;
592.8000;0.0879;-0.6616;
593.1000;0.0847;-0.6638;
593.4000;0.0879;-0.6594;
593.7000;0.0863;-0.6638;
594.0000;0.0879;-0.6705;
594.3000;0.0855;-0.6572;
594.6000;0.0879;-0.6484;
594.9000;0.0887;-0.6373;
595.2000;0.0838;-0.6484;
595.5000;0.0871;-0.6528;
595.8000;0.0871;-0.6506;
596.1000;0.0863;-0.6461;
596.4000;0.0863;-0.6506;
596.7000;0.0847;-0.6572;
597.0000;0.0855;-0.6550;
597.3000;0.0879;-0.6484;
597.6000;0.0847;-0.6506;
597.9000;0.0895;-0.6461;
598.2000;0.0879;-0.6439;
598.5000;0.0887;-0.6395;
598.8000;0.0920;-0.6351;
599.1000;0.0871;-0.6395;
599.4000;0.0928;-0.6329;
599.7000;0.0863;-0.6550;
600.0000;0.0855;-0.6461;
600.3000;0.0879;-0.6417;
600.6000;0.0724;-0.6815;
600.9000;0.0781;-0.6771;
601.2000;0.0855;-0.6528;
601.5000;0.0871;-0.6661;
601.8000;0.0838;-0.6771;
602.1000;0.0838;-0.6926;
602.4000;0.0838;-0.6948;
602.7000;0.0822;-0.7081;
603.0000;0.0830;-0.7125;
603.3000;0.0830;-0.7103;
603.6000;0.0822;-0.7147;
603.9000;0.0855;-0.7170;
604.2000;0.0822;-0.7347;
604.5000;0.0855;-0.7347;
604.8000;0.0830;-0.7435;
605.1000;0.0830;-0.7457;
605.4000;0.0822;-0.7435;
605.7000;0.0790;-0.7457;
606.0000;0.0838;-0.7324;
606.3000;0.0749;-0.7568;
606.6000;0.0822;-0.7391;
606.9000;0.0708;-0.7678;
607.2000;0.0798;-0.7568;
607.5000;0.0798;-0.7568;
607.8000;0.0708;-0.7922;
608.1000;0.0814;-0.7701;
608.4000;0.0806;-0.7701;
608.7000;0.0798;-0.7723;
609.0000;0.0798;-0.7723;
609.3000;0.0798;-0.7723;
609.6000;0.0741;-0.7833;
609.9000;0.0798;-0.7723;
610.2000;0.0838;-0.7678;
610.5000;0.0790;-0.7833;
610.8000;0.0781;-0.7789;
611.1000;0.0790;-0.7745;
611.4000;0.0773;-0.7767;
611.7000;0.0773;-0.7723;
612.0000;0.0773;-0.7745;
612.3000;0.0781;-0.7723;
612.6000;0.0781;-0.7723;
612.9000;0.0781;-0.7678;
613.2000;0.0814;-0.7590;
613.5000;0.0773;-0.7723;
613.8000;0.0781;-0.7701;
614.1000;0.0781;-0.7678;
614.4000;0.0790;-0.7701;
614.7000;0.0773;-0.7678;
615.0000;0.0781;-0.7723;
615.3000;0.0741;-0.7811;
615.6000;0.0781;-0.7656;
615.9000;0.0765;-0.7723;
616.2000;0.0773;-0.7745;
616.5000;0.0765;-0.7811;
616.8000;0.0790;-0.7811;
617.1000;0.0773;-0.7855;
617.4000;0.0822;-0.7701;
617.7000;0.0790;-0.7811;
618.0000;0.0773;-0.7767;
618.3000;0.0855;-0.7590;
618.6000;0.0676;-0.8077;
618.9000;0.0757;-0.7900;
619.2000;0.0684;-0.8121;
619.5000;0.0781;-0.7900;
619.8000;0.0765;-0.7922;
620.1000;0.0667;-0.8143;
620.4000;0.0757;-0.7944;
620.7000;0.0757;-0.7988;
621.0000;0.0773;-0.7988;
621.3000;0.0667;-0.8187;
621.6000;0.0757;-0.7944;
621.9000;0.0757;-0.7922;
622.2000;0.0765;-0.7944;
622.5000;0.0716;-0.8055;
622.8000;0.0765;-0.8055;
623.1000;0.0708;-0.8187;
623.4000;0.0741;-0.8077;
623.7000;0.0741;-0.8099;
624.0000;0.0757;-0.7988;
624.3000;0.0749;-0.8010;
624.6000;0.0765;-0.7966;
624.9000;0.0733;-0.8033;
625.2000;0.0765;-0.7966;
625.5000;0.0863;-0.7767;
625.8000;0.0765;-0.8010;
626.1000;0.0773;-0.7988;
626.4000;0.0822;-0.7855;
626.7000;0.0741;-0.8077;
627.0000;0.0773;-0.7988;
627.3000;0.0757;-0.8099;
627.6000;0.0757;-0.8077;
627.9000;0.0700;-0.8298;
628.2000;0.0757;-0.8210;
628.5000;0.0741;-0.8210;
628.8000;0.0733;-0.8121;
629.1000;0.0749;-0.8077;
629.4000;0.0741;-0.8033;
629.7000;0.0790;-0.7966;
630.0000;0.0749;-0.8121;
630.3000;0.0773;-0.8010;
630.6000;0.0733;-0.8165;
630.9000;0.0757;-0.8121;
631.2000;0.0741;-0.8232;
631.5000;0.0749;-0.8276;
631.8000;0.0667;-0.8431;
632.1000;0.0741;-0.8187;
632.4000;0.0741;-0.8143;
632.7000;0.0724;-0.8077;
633.0000;0.0757;-0.8010;
633.3000;0.0724;-0.8077;
633.6000;0.0741;-0.7966;
633.9000;0.0757;-0.7966;
634.2000;0.0724;-0.8099;
634.5000;0.0741;-0.7944;
634.8000;0.0733;-0.7944;
635.1000;0.0741;-0.8010;
635.4000;0.0724;-0.8055;
635.7000;0.0765;-0.7878;
636.0000;0.0741;-0.7878;
636.3000;0.0741;-0.7767;
636.6000;0.0724;-0.7723;
636.9000;0.0765;-0.7745;
637.2000;0.0887;-0.7524;
637.5000;0.0757;-0.7789;
637.8000;0.0765;-0.7767;
638.1000;0.0757;-0.7833;
638.4000;0.0733;-0.7878;
638.7000;0.0749;-0.7833;
639.0000;0.0700;-0.7922;
639.3000;0.0765;-0.7789;
639.6000;0.0741;-0.7855;
639.9000;0.0733;-0.7944;
640.2000;0.0716;-0.7922;
640.5000;0.0733;-0.7811;
640.8000;0.0676;-0.7922;
641.1000;0.0700;-0.7878;
641.4000;0.0733;-0.7878;
641.7000;0.0773;-0.7811;
642.0000;0.0741;-0.7922;
642.3000;0.0733;-0.7900;
642.6000;0.0798;-0.7789;
642.9000;0.0692;-0.7922;
643.2000;0.0847;-0.7546;
643.5000;0.0765;-0.7789;
643.8000;0.0724;-0.7855;
644.1000;0.0700;-0.7878;
644.4000;0.0724;-0.7811;
644.7000;0.0741;-0.7745;
645.0000;0.0822;-0.7568;
645.3000;0.0749;-0.7723;
645.6000;0.0724;-0.7833;
645.9000;0.0741;-0.7878;
646.2000;0.0741;-0.7789;
646.5000;0.0716;-0.7767;
646.8000;0.0724;-0.7811;
647.1000;0.0733;-0.7811;
647.4000;0.0741;-0.7723;
647.7000;0.0724;-0.7833;
648.0000;0.0716;-0.7789;
648.3000;0.0781;-0.7723;
648.6000;0.0773;-0.7745;
648.9000;0.0733;-0.7900;
649.2000;0.0757;-0.7900;
649.5000;0.0749;-0.7988;
649.8000;0.0716;-0.7922;
650.1000;0.0700;-0.7966;
650.4000;0.0741;-0.7944;
650.7000;0.0741;-0.8010;
651.0000;0.0733;-0.7966;
651.3000;0.0733;-0.7922;
651.6000;0.0741;-0.7944;
651.9000;0.0781;-0.7811;
652.2000;0.0733;-0.7900;
652.5000;0.0716;-0.7855;
652.8000;0.0708;-0.7878;
653.1000;0.0708;-0.7922;
653.4000;0.0724;-0.7833;
653.7000;0.0741;-0.7745;
654.0000;0.0781;-0.7678;
654.3000;0.0757;-0.7745;
654.6000;0.0724;-0.7789;
654.9000;0.0724;-0.7767;
655.2000;0.0765;-0.7723;
655.5000;0.0741;-0.7745;
655.8000;0.0724;-0.7811;
656.1000;0.0635;-0.8099;
656.4000;0.0733;-0.7944;
656.7000;0.0700;-0.8010;
657.0000;0.0741;-0.7900;
657.3000;0.0741;-0.7701;
657.6000;0.0724;-0.7701;
657.9000;0.0676;-0.7900;
658.2000;0.0765;-0.7701;
658.5000;0.0733;-0.7811;
658.8000;0.0716;-0.7855;
659.1000;0.0684;-0.7966;
659.4000;0.0733;-0.7855;
659.7000;0.0733;-0.7922;
660.0000;0.0733;-0.8010;
660.3000;0.0643;-0.8210;
660.6000;0.0716;-0.8033;
660.9000;0.0724;-0.7966;
661.2000;0.0716;-0.7966;
661.5000;0.0684;-0.7988;
661.8000;0.0781;-0.7678;
662.1000;0.0733;-0.7855;
662.4000;0.0757;-0.7833;
662.7000;0.0700;-0.7833;
663.0000;0.0724;-0.7878;
663.3000;0.0708;-0.7944;
663.6000;0.0773;-0.7855;
663.9000;0.0733;-0.7988;
664.2000;0.0757;-0.7878;
664.5000;0.0741;-0.7900;
664.8000;0.0798;-0.7878;
665.1000;0.0724;-0.8033;
665.4000;0.0659;-0.8099;
665.7000;0.0733;-0.8010;
666.0000;0.0724;-0.7966;
666.3000;0.0724;-0.7966;
666.6000;0.0700;-0.8121;
666.9000;0.0708;-0.8077;
667.2000;0.0749;-0.7922;
667.5000;0.0733;-0.7900;
667.8000;0.0716;-0.7855;
668.1000;0.0781;-0.7678;
668.4000;0.0765;-0.7723;
668.7000;0.0724;-0.7833;
669.0000;0.0716;-0.7767;
669.3000;0.0708;-0.7900;
669.6000;0.0773;-0.7745;
669.9000;0.0700;-0.7855;
670.2000;0.0733;-0.7855;
670.5000;0.0724;-0.7900;
670.8000;0.0708;-0.7944;
671.1000;0.0724;-0.7878;
671.4000;0.0700;-0.7944;
671.7000;0.0749;-0.7855;
672.0000;0.0724;-0.7944;
672.3000;0.0716;-0.7966;
672.6000;0.0700;-0.7944;
672.9000;0.0741;-0.7944;
673.2000;0.0749;-0.7855;
673.5000;0.0733;-0.7900;
673.8000;0.0757;-0.7900;
674.1000;0.0749;-0.7900;
674.4000;0.0708;-0.7988;
674.7000;0.0708;-0.8077;
675.0000;0.0741;-0.7988;
675.3000;0.0765;-0.7988;
675.6000;0.0716;-0.8165;
675.9000;0.0716;-0.8143;
676.2000;0.0757;-0.8055;
676.5000;0.0684;-0.8187;
676.8000;0.0692;-0.8143;
677.1000;0.0733;-0.8033;
677.4000;0.0700;-0.8033;
677.7000;0.0757;-0.7966;
678.0000;0.0733;-0.8077;
678.3000;0.0700;-0.8077;
678.6000;0.0749;-0.7944;
678.9000;0.0733;-0.7900;
679.2000;0.0708;-0.7878;
679.5000;0.0708;-0.7833;
679.8000;0.0676;-0.7900;
680.1000;0.0757;-0.7745;
680.4000;0.0773;-0.7745;
680.7000;0.0790;-0.7745;
681.0000;0.0724;-0.7922;
681.3000;0.0700;-0.7966;
681.6000;0.0741;-0.7944;
681.9000;0.0741;-0.7855;
682.2000;0.0659;-0.8033;
682.5000;0.0741;-0.7833;
682.8000;0.0724;-0.7789;
683.1000;0.0708;-0.7723;
683.4000;0.0724;-0.7678;
683.7000;0.0765;-0.7678;
684.0000;0.0733;-0.7745;
684.3000;0.0733;-0.7789;
684.6000;0.0684;-0.7811;
684.9000;0.0733;-0.7745;
685.2000;0.0757;-0.7678;
685.5000;0.0676;-0.7833;
685.8000;0.0692;-0.7767;
686.1000;0.0733;-0.7789;
686.4000;0.0708;-0.7745;
686.7000;0.0700;-0.7767;
687.0000;0.0708;-0.7745;
687.3000;0.0724;-0.7767;
687.6000;0.0733;-0.7789;
687.9000;0.0741;-0.7767;
688.2000;0.0733;-0.7789;
688.5000;0.0700;-0.7878;
688.8000;0.0724;-0.7900;
689.1000;0.0708;-0.7988;
689.4000;0.0708;-0.8099;
689.7000;0.0708;-0.8099;
690.0000;0.0733;-0.8099;
690.3000;0.0724;-0.8055;
690.6000;0.0733;-0.7988;
690.9000;0.0733;-0.7878;
691.2000;0.0733;-0.7789;
691.5000;0.0716;-0.7833;
691.8000;0.0741;-0.7855;
692.1000;0.0749;-0.7701;
692.4000;0.0716;-0.7811;
692.7000;0.0724;-0.7767;
693.0000;0.0757;-0.7701;
693.3000;0.0716;-0.7900;
693.6000;0.0676;-0.8033;
693.9000;0.0741;-0.7922;
694.2000;0.0724;-0.7944;
694.5000;0.0651;-0.8121;
694.8000;0.0700;-0.8033;
695.1000;0.0733;-0.7966;
695.4000;0.0724;-0.7900;
695.7000;0.0716;-0.7855;
696.0000;0.0790;-0.7656;
696.3000;0.0724;-0.7701;
696.6000;0.0757;-0.7701;
696.9000;0.0733;-0.7745;
697.2000;0.0708;-0.7811;
697.5000;0.0741;-0.7745;
697.8000;0.0724;-0.7767;
698.1000;0.0700;-0.7855;
698.4000;0.0700;-0.7900;
698.7000;0.0741;-0.7833;
699.0000;0.0716;-0.7833;
699.3000;0.0716;-0.7811;
699.6000;0.0619;-0.8077;
699.9000;0.0781;-0.7656;
700.2000;0.0724;-0.7811;
700.5000;0.0749;-0.7767;
700.8000;0.0627;-0.7966;
701.1000;0.0741;-0.7701;
701.4000;0.0708;-0.7833;
701.7000;0.0790;-0.7723;
702.0000;0.0724;-0.7988;
702.3000;0.0667;-0.8143;
702.6000;0.0716;-0.7944;
702.9000;0.0716;-0.7988;
703.2000;0.0765;-0.7922;
703.5000;0.0773;-0.7878;
703.8000;0.0724;-0.8010;
704.1000;0.0733;-0.7944;
704.4000;0.0716;-0.7966;
704.7000;0.0716;-0.7966;
705.0000;0.0724;-0.7878;
705.3000;0.0741;-0.7789;
705.6000;0.0724;-0.7833;
705.9000;0.0716;-0.7855;
706.2000;0.0708;-0.7900;
706.5000;0.0692;-0.7878;
706.8000;0.0684;-0.7878;
707.1000;0.0724;-0.7767;
707.4000;0.0716;-0.7833;
707.7000;0.0716;-0.7833;
708.0000;0.0749;-0.7855;
708.3000;0.0635;-0.8232;
708.6000;0.0733;-0.8033;
708.9000;0.0724;-0.8033;
709.2000;0.0757;-0.7855;
709.5000;0.0692;-0.7944;
709.8000;0.0716;-0.7966;
710.1000;0.0708;-0.8033;
710.4000;0.0741;-0.8099;
710.7000;0.0741;-0.8033;
711.0000;0.0708;-0.8055;
711.3000;0.0716;-0.7988;
711.6000;0.0700;-0.7988;
711.9000;0.0773;-0.7789;
712.2000;0.0716;-0.7900;
712.5000;0.0700;-0.7900;
712.8000;0.0790;-0.7745;
713.1000;0.0733;-0.7878;
713.4000;0.0716;-0.7944;
713.7000;0.0716;-0.8099;
714.0000;0.0741;-0.8121;
714.3000;0.0733;-0.8121;
714.6000;0.0741;-0.8077;
714.9000;0.0733;-0.8143;
715.2000;0.0716;-0.8210;
715.5000;0.0757;-0.8055;
715.8000;0.0724;-0.8143;
716.1000;0.0733;-0.8210;
716.4000;0.0700;-0.8276;
716.7000;0.0741;-0.8187;
717.0000;0.0708;-0.8077;
717.3000;0.0700;-0.8077;
717.6000;0.0733;-0.7922;
717.9000;0.0733;-0.7988;
718.2000;0.0741;-0.7944;
718.5000;0.0733;-0.7988;
718.8000;0.0700;-0.8055;
719.1000;0.0692;-0.8033;
719.4000;0.0716;-0.7922;
719.7000;0.0724;-0.7944;
720.0000;0.0716;-0.7988;
720.3000;0.0716;-0.7966;
720.6000;0.0733;-0.7966;
720.9000;0.0724;-0.7988;
721.2000;0.0724;-0.8055;
721.5000;0.0716;-0.8010;
721.8000;0.0741;-0.7855;
722.1000;0.0716;-0.7900;
722.4000;0.0716;-0.7922;
722.7000;0.0733;-0.7878;
723.0000;0.0757;-0.7855;
723.3000;0.0724;-0.7944;
723.6000;0.0716;-0.7922;
723.9000;0.0749;-0.7900;
724.2000;0.0724;-0.8010;
724.5000;0.0716;-0.8010;
724.8000;0.0676;-0.8077;
725.1000;0.0716;-0.7988;
725.4000;0.0749;-0.7833;
725.7000;0.0700;-0.7944;
726.0000;0.0708;-0.8033;
726.3000;0.0724;-0.7966;
726.6000;0.0724;-0.7988;
726.9000;0.0781;-0.7833;
727.2000;0.0708;-0.7922;
727.5000;0.0733;-0.7900;
727.8000;0.0708;-0.7900;
728.1000;0.0741;-0.7789;
728.4000;0.0716;-0.7811;
728.7000;0.0667;-0.7966;
729.0000;0.0716;-0.7922;
729.3000;0.0733;-0.7855;
729.6000;0.0733;-0.7900;
729.9000;0.0700;-0.7944;
730.2000;0.0692;-0.7944;
730.5000;0.0724;-0.7855;
730.8000;0.0716;-0.7811;
731.1000;0.0733;-0.7723;
731.4000;0.0838;-0.7479;
731.7000;0.0692;-0.7878;
732.0000;0.0700;-0.7922;
732.3000;0.0741;-0.7767;
732.6000;0.0716;-0.7833;
732.9000;0.0692;-0.7988;
733.2000;0.0724;-0.7922;
733.5000;0.0741;-0.7878;
733.8000;0.0741;-0.7855;
734.1000;0.0724;-0.7833;
734.4000;0.0578;-0.8143;
734.7000;0.0733;-0.7745;
735.0000;0.0676;-0.7922;
735.3000;0.0716;-0.7767;
735.6000;0.0757;-0.7701;
735.9000;0.0733;-0.7745;
736.2000;0.0708;-0.7855;
736.5000;0.0724;-0.7833;
736.8000;0.0781;-0.7855;
737.1000;0.0741;-0.7988;
737.4000;0.0700;-0.8165;
737.7000;0.0684;-0.8077;
738.0000;0.0643;-0.8099;
738.3000;0.0716;-0.7900;
738.6000;0.0724;-0.7855;
738.9000;0.0708;-0.7900;
739.2000;0.0708;-0.7900;
739.5000;0.0741;-0.7878;
739.8000;0.0724;-0.7922;
740.1000;0.0708;-0.7944;
740.4000;0.0708;-0.7944;
740.7000;0.0716;-0.7878;
741.0000;0.0716;-0.7900;
741.3000;0.0716;-0.7900;
741.6000;0.0700;-0.8055;
741.9000;0.0667;-0.8099;
742.2000;0.0692;-0.7900;
742.5000;0.0716;-0.7833;
742.8000;0.0627;-0.7966;
743.1000;0.0822;-0.7479;
743.4000;0.0700;-0.7789;
743.7000;0.0724;-0.7767;
744.0000;0.0619;-0.8143;
744.3000;0.0724;-0.7811;
744.6000;0.0724;-0.7833;
744.9000;0.0724;-0.7855;
745.2000;0.0708;-0.7944;
745.5000;0.0708;-0.7944;
745.8000;0.0749;-0.7922;
746.1000;0.0749;-0.7878;
746.4000;0.0676;-0.8143;
746.7000;0.0716;-0.8055;
747.0000;0.0716;-0.8010;
747.3000;0.0684;-0.8010;
747.6000;0.0602;-0.8320;
747.9000;0.0716;-0.8033;
748.2000;0.0692;-0.8077;
748.5000;0.0716;-0.7944;
748.8000;0.0659;-0.8010;
749.1000;0.0716;-0.7966;
749.4000;0.0733;-0.7900;
749.7000;0.0700;-0.7900;
750.0000;0.0708;-0.7855;
750.3000;0.0692;-0.7900;
750.6000;0.0627;-0.8077;
750.9000;0.0830;-0.7546;
751.2000;0.0716;-0.7900;
751.5000;0.0700;-0.7922;
751.8000;0.0700;-0.7900;
752.1000;0.0708;-0.7811;
752.4000;0.0627;-0.8077;
752.7000;0.0700;-0.7922;
753.0000;0.0700;-0.7966;
753.3000;0.0692;-0.8033;
753.6000;0.0733;-0.7944;
753.9000;0.0724;-0.7966;
754.2000;0.0724;-0.7900;
754.5000;0.0700;-0.7900;
754.8000;0.0716;-0.7878;
755.1000;0.0708;-0.7878;
755.4000;0.0692;-0.8010;
755.7000;0.0716;-0.7922;
756.0000;0.0700;-0.8033;
756.3000;0.0733;-0.7966;
756.6000;0.0700;-0.7966;
756.9000;0.0684;-0.8055;
757.2000;0.0708;-0.7944;
757.5000;0.0708;-0.7966;
757.8000;0.0627;-0.8099;
758.1000;0.0700;-0.7988;
758.4000;0.0700;-0.7900;
758.7000;0.0733;-0.7944;
759.0000;0.0700;-0.8010;
759.3000;0.0741;-0.7944;
759.6000;0.0708;-0.8121;
759.9000;0.0700;-0.8033;
760.2000;0.0700;-0.7944;
760.5000;0.0684;-0.7944;
760.8000;0.0611;-0.8165;
761.1000;0.0708;-0.7966;
761.4000;0.0716;-0.8010;
761.7000;0.0635;-0.8276;
762.0000;0.0724;-0.8099;
762.3000;0.0708;-0.8099;
762.6000;0.0724;-0.7966;
762.9000;0.0741;-0.7922;
763.2000;0.0700;-0.7988;
763.5000;0.0684;-0.7988;
763.8000;0.0724;-0.7878;
764.1000;0.0708;-0.7922;
764.4000;0.0700;-0.7833;
764.7000;0.0724;-0.7811;
765.0000;0.0708;-0.7855;
765.3000;0.0733;-0.7878;
765.6000;0.0716;-0.7922;
765.9000;0.0708;-0.7966;
766.2000;0.0708;-0.8033;
766.5000;0.0708;-0.8055;
766.8000;0.0724;-0.7988;
767.1000;0.0838;-0.7833;
767.4000;0.0692;-0.8121;
767.7000;0.0716;-0.8055;
768.0000;0.0724;-0.7988;
768.3000;0.0724;-0.7966;
768.6000;0.0716;-0.8033;
768.9000;0.0749;-0.8010;
769.2000;0.0741;-0.8010;
769.5000;0.0708;-0.8099;
769.8000;0.0724;-0.8099;
770.1000;0.0724;-0.8077;
770.4000;0.0716;-0.8055;
770.7000;0.0733;-0.8077;
771.0000;0.0741;-0.8143;
771.3000;0.0733;-0.8165;
771.6000;0.0692;-0.8232;
771.9000;0.0724;-0.8165;
772.2000;0.0700;-0.8276;
772.5000;0.0781;-0.8010;
772.8000;0.0733;-0.8187;
773.1000;0.0733;-0.8165;
773.4000;0.0741;-0.8055;
773.7000;0.0700;-0.8055;
774.0000;0.0724;-0.7944;
774.3000;0.0692;-0.7988;
774.6000;0.0733;-0.7944;
774.9000;0.0749;-0.7966;
775.2000;0.0635;-0.8232;
775.5000;0.0700;-0.8143;
775.8000;0.0700;-0.8143;
776.1000;0.0741;-0.8055;
776.4000;0.0700;-0.7922;
776.7000;0.0724;-0.7833;
777.0000;0.0708;-0.7855;
777.3000;0.0700;-0.7900;
777.6000;0.0708;-0.7922;
777.9000;0.0733;-0.7833;
778.2000;0.0733;-0.7855;
778.5000;0.0708;-0.7966;
778.8000;0.0716;-0.8010;
779.1000;0.0749;-0.7944;
779.4000;0.0676;-0.8143;
779.7000;0.0724;-0.7944;
780.0000;0.0773;-0.7855;
780.3000;0.0716;-0.7988;
780.6000;0.0733;-0.7988;
780.9000;0.0733;-0.7944;
781.2000;0.0708;-0.7944;
781.5000;0.0716;-0.7944;
781.8000;0.0733;-0.7944;
782.1000;0.0716;-0.7988;
782.4000;0.0700;-0.8033;
782.7000;0.0700;-0.8033;
783.0000;0.0716;-0.7966;
783.3000;0.0700;-0.7988;
783.6000;0.0733;-0.7944;
783.9000;0.0716;-0.7944;
784.2000;0.0716;-0.7944;
784.5000;0.0700;-0.7944;
784.8000;0.0700;-0.7855;
785.1000;0.0692;-0.7900;
785.4000;0.0806;-0.7656;
785.7000;0.0708;-0.7767;
786.0000;0.0684;-0.7855;
786.3000;0.0716;-0.7878;
786.6000;0.0692;-0.8010;
786.9000;0.0716;-0.7966;
787.2000;0.0700;-0.8010;
787.5000;0.0733;-0.7789;
787.8000;0.0757;-0.7767;
788.1000;0.0676;-0.7966;
788.4000;0.0724;-0.7833;
788.7000;0.0716;-0.7922;
789.0000;0.0749;-0.7900;
789.3000;0.0716;-0.7900;
789.6000;0.0716;-0.7922;
789.9000;0.0757;-0.7789;
790.2000;0.0684;-0.7789;
790.5000;0.0765;-0.7612;
790.8000;0.0651;-0.7944;
791.1000;0.0757;-0.7767;
791.4000;0.0708;-0.7922;
791.7000;0.0700;-0.7878;
792.0000;0.0716;-0.7944;
792.3000;0.0733;-0.7966;
792.6000;0.0692;-0.8077;
792.9000;0.0716;-0.7944;
793.2000;0.0692;-0.8010;
793.5000;0.0765;-0.7855;
793.8000;0.0773;-0.7855;
794.1000;0.0708;-0.8033;
794.4000;0.0724;-0.7988;
794.7000;0.0733;-0.7988;
795.0000;0.0692;-0.8077;
795.3000;0.0724;-0.7944;
795.6000;0.0814;-0.7701;
795.9000;0.0708;-0.7966;
796.2000;0.0733;-0.8010;
796.5000;0.0611;-0.8276;
796.8000;0.0724;-0.7944;
797.1000;0.0724;-0.7900;
797.4000;0.0692;-0.8033;
797.7000;0.0708;-0.8055;
798.0000;0.0700;-0.8099;
798.3000;0.0708;-0.8055;
798.6000;0.0700;-0.8033;
798.9000;0.0708;-0.7988;
799.2000;0.0708;-0.8010;
799.5000;0.0708;-0.8033;
799.8000;0.0733;-0.8010;
800.1000;0.0708;-0.8165;
800.4000;0.0790;-0.7966;
800.7000;0.0708;-0.8143;
801.0000;0.0684;-0.8121;
801.3000;0.0676;-0.8187;
801.6000;0.0716;-0.8099;
801.9000;0.0733;-0.8077;
802.2000;0.0659;-0.8276;
802.5000;0.0741;-0.7988;
802.8000;0.0708;-0.8099;
803.1000;0.0724;-0.8010;
803.4000;0.0838;-0.7634;
803.7000;0.0749;-0.7833;
804.0000;0.0724;-0.7833;
804.3000;0.0724;-0.7855;
804.6000;0.0708;-0.7966;
804.9000;0.0733;-0.7922;
805.2000;0.0733;-0.7966;
805.5000;0.0667;-0.8077;
805.8000;0.0716;-0.7988;
806.1000;0.0700;-0.8010;
806.4000;0.0806;-0.7745;
806.7000;0.0708;-0.8055;
807.0000;0.0708;-0.8033;
807.3000;0.0700;-0.8010;
807.6000;0.0684;-0.7988;
807.9000;0.0724;-0.7900;
808.2000;0.0708;-0.7944;
808.5000;0.0741;-0.7878;
808.8000;0.0724;-0.8033;
809.1000;0.0700;-0.8033;
809.4000;0.0904;-0.7524;
809.7000;0.0765;-0.7855;
810.0000;0.0773;-0.7767;
810.3000;0.0692;-0.7988;
810.6000;0.0741;-0.7811;
810.9000;0.0724;-0.7944;
811.2000;0.0700;-0.7944;
811.5000;0.0684;-0.7966;
811.8000;0.0635;-0.8143;
812.1000;0.0692;-0.8055;
812.4000;0.0708;-0.8055;
812.7000;0.0692;-0.8033;
813.0000;0.0692;-0.8033;
813.3000;0.0716;-0.7966;
813.6000;0.0684;-0.7988;
813.9000;0.0724;-0.7922;
814.2000;0.0594;-0.8187;
814.5000;0.0611;-0.8099;
814.8000;0.0773;-0.7767;
815.1000;0.0724;-0.7900;
815.4000;0.0700;-0.8010;
815.7000;0.0708;-0.7922;
816.0000;0.0716;-0.7878;
816.3000;0.0700;-0.7878;
816.6000;0.0708;-0.7855;
816.9000;0.0724;-0.7811;
817.2000;0.0733;-0.7811;
817.5000;0.0676;-0.7900;
817.8000;0.0708;-0.7767;
818.1000;0.0716;-0.7767;
818.4000;0.0700;-0.7811;
818.7000;0.0733;-0.7745;
819.0000;0.0700;-0.7811;
819.3000;0.0692;-0.7833;
819.6000;0.0724;-0.7767;
819.9000;0.0708;-0.7833;
820.2000;0.0692;-0.7723;
820.5000;0.0676;-0.7701;
820.8000;0.0716;-0.7678;
821.1000;0.0716;-0.7656;
821.4000;0.0741;-0.7656;
821.7000;0.0700;-0.7789;
822.0000;0.0716;-0.7789;
822.3000;0.0708;-0.7701;
822.6000;0.0716;-0.7612;
822.9000;0.0798;-0.7413;
823.2000;0.0692;-0.7656;
823.5000;0.0700;-0.7656;
823.8000;0.0684;-0.7745;
824.1000;0.0700;-0.7811;
824.4000;0.0700;-0.7855;
824.7000;0.0741;-0.7833;
825.0000;0.0741;-0.7811;
825.3000;0.0659;-0.7922;
825.6000;0.0708;-0.7811;
825.9000;0.0716;-0.7811;
826.2000;0.0716;-0.7767;
826.5000;0.0651;-0.7944;
826.8000;0.0724;-0.7789;
827.1000;0.0716;-0.7789;
827.4000;0.0806;-0.7612;
827.7000;0.0724;-0.7745;
828.0000;0.0733;-0.7723;
828.3000;0.0741;-0.7701;
828.6000;0.0700;-0.7701;
828.9000;0.0708;-0.7701;
829.2000;0.0708;-0.7745;
829.5000;0.0684;-0.7811;
829.8000;0.0749;-0.7678;
830.1000;0.0708;-0.7745;
830.4000;0.0692;-0.7900;
830.7000;0.0733;-0.7900;
831.0000;0.0773;-0.7855;
831.3000;0.0692;-0.7966;
831.6000;0.0708;-0.7966;
831.9000;0.0684;-0.7944;
832.2000;0.0724;-0.7855;
832.5000;0.0733;-0.7900;
832.8000;0.0741;-0.7878;
833.1000;0.0716;-0.7922;
833.4000;0.0659;-0.8010;
833.7000;0.0700;-0.7789;
834.0000;0.0716;-0.7745;
834.3000;0.0757;-0.7745;
834.6000;0.0724;-0.7900;
834.9000;0.0708;-0.7922;
835.2000;0.0724;-0.7878;
835.5000;0.0724;-0.7789;
835.8000;0.0830;-0.7612;
836.1000;0.0692;-0.7944;
836.4000;0.0692;-0.8033;
836.7000;0.0708;-0.8055;
837.0000;0.0700;-0.8121;
837.3000;0.0724;-0.7988;
837.6000;0.0716;-0.8033;
837.9000;0.0724;-0.7944;
838.2000;0.0716;-0.7988;
838.5000;0.0676;-0.8055;
838.8000;0.0716;-0.7922;
839.1000;0.0871;-0.7546;
839.4000;0.0700;-0.7922;
839.7000;0.0708;-0.7988;
840.0000;0.0716;-0.8033;
840.3000;0.0700;-0.7988;
840.6000;0.0708;-0.8010;
840.9000;0.0684;-0.8121;
841.2000;0.0716;-0.7966;
841.5000;0.0692;-0.8033;
841.8000;0.0708;-0.8055;
842.1000;0.0676;-0.8099;
842.4000;0.0716;-0.7944;
842.7000;0.0643;-0.8099;
843.0000;0.0716;-0.8010;
843.3000;0.0733;-0.8010;
843.6000;0.0716;-0.7966;
843.9000;0.0724;-0.7966;
844.2000;0.0724;-0.8010;
844.5000;0.0733;-0.7922;
844.8000;0.0692;-0.7988;
845.1000;0.0692;-0.7944;
845.4000;0.0692;-0.7922;
845.7000;0.0684;-0.7966;
846.0000;0.0757;-0.7922;
846.3000;0.0659;-0.8121;
846.6000;0.0749;-0.7833;
846.9000;0.0708;-0.7900;
847.2000;0.0708;-0.7855;
847.5000;0.0700;-0.7811;
847.8000;0.0716;-0.7789;
848.1000;0.0692;-0.7878;
848.4000;0.0667;-0.8055;
848.7000;0.0724;-0.7922;
849.0000;0.0708;-0.7944;
849.3000;0.0749;-0.7811;
849.6000;0.0716;-0.7789;
849.9000;0.0700;-0.7767;
850.2000;0.0724;-0.7767;
850.5000;0.0741;-0.7789;
850.8000;0.0741;-0.7767;
851.1000;0.0692;-0.7878;
851.4000;0.0700;-0.7855;
851.7000;0.0700;-0.7900;
852.0000;0.0708;-0.7855;
852.3000;0.0716;-0.7922;
852.6000;0.0708;-0.8010;
852.9000;0.0700;-0.7944;
853.2000;0.0733;-0.7922;
853.5000;0.0724;-0.7966;
853.8000;0.0716;-0.7988;
854.1000;0.0733;-0.7855;
854.4000;0.0716;-0.7900;
854.7000;0.0733;-0.7767;
855.0000;0.0773;-0.7590;
855.3000;0.0700;-0.7767;
855.6000;0.0692;-0.7811;
855.9000;0.0708;-0.7745;
856.2000;0.0692;-0.7745;
856.5000;0.0749;-0.7656;
856.8000;0.0635;-0.7900;
857.1000;0.0676;-0.7833;
857.4000;0.0733;-0.7678;
857.7000;0.0700;-0.7878;
858.0000;0.0716;-0.7833;
858.3000;0.0676;-0.7811;
858.6000;0.0692;-0.7878;
858.9000;0.0733;-0.7789;
859.2000;0.0741;-0.7789;
859.5000;0.0708;-0.7922;
859.8000;0.0708;-0.7966;
860.1000;0.0708;-0.7855;
860.4000;0.0733;-0.7811;
860.7000;0.0708;-0.7855;
861.0000;0.0716;-0.7855;
861.3000;0.0708;-0.7789;
861.6000;0.0716;-0.7789;
861.9000;0.0716;-0.7833;
862.2000;0.0692;-0.7900;
862.5000;0.0684;-0.7900;
862.8000;0.0724;-0.7789;
863.1000;0.0716;-0.7745;
863.4000;0.0708;-0.7767;
863.7000;0.0944;-0.7214;
864.0000;0.0716;-0.7811;
864.3000;0.0798;-0.7612;
864.6000;0.0716;-0.7833;
864.9000;0.0676;-0.7900;
865.2000;0.0708;-0.7855;
865.5000;0.0708;-0.7833;
865.8000;0.0659;-0.7944;
866.1000;0.0700;-0.7944;
866.4000;0.0716;-0.7855;
866.7000;0.0733;-0.7833;
867.0000;0.0716;-0.7855;
867.3000;0.0684;-0.7944;
867.6000;0.0724;-0.7833;
867.9000;0.0716;-0.7811;
868.2000;0.0700;-0.7900;
868.5000;0.0724;-0.7811;
868.8000;0.0724;-0.7767;
869.1000;0.0708;-0.7767;
869.4000;0.0635;-0.7966;
869.7000;0.0733;-0.7678;
870.0000;0.0716;-0.7745;
870.3000;0.0716;-0.7767;
870.6000;0.0765;-0.7634;
870.9000;0.0749;-0.7678;
871.2000;0.0684;-0.7855;
871.5000;0.0651;-0.8143;
871.8000;0.0700;-0.7944;
872.1000;0.0733;-0.7855;
872.4000;0.0635;-0.8010;
872.7000;0.0716;-0.7789;
873.0000;0.0667;-0.7855;
873.3000;0.0676;-0.7811;
873.6000;0.0692;-0.7833;
873.9000;0.0692;-0.7878;
874.2000;0.0708;-0.7922;
874.5000;0.0684;-0.7878;
874.8000;0.0692;-0.7922;
875.1000;0.0692;-0.7944;
875.4000;0.0708;-0.7922;
875.7000;0.0700;-0.7966;
876.0000;0.0749;-0.7811;
876.3000;0.0708;-0.7789;
876.6000;0.0692;-0.7855;
876.9000;0.0700;-0.7833;
877.2000;0.0708;-0.7767;
877.5000;0.0708;-0.7767;
877.8000;0.0692;-0.7745;
878.1000;0.0611;-0.7922;
878.4000;0.0700;-0.7745;
878.7000;0.0733;-0.7656;
879.0000;0.0716;-0.7678;
879.3000;0.0716;-0.7678;
879.6000;0.0684;-0.7789;
879.9000;0.0716;-0.7701;
880.2000;0.0716;-0.7634;
880.5000;0.0708;-0.7546;
880.8000;0.0602;-0.7723;
881.1000;0.0838;-0.7192;
881.4000;0.0733;-0.7501;
881.7000;0.0724;-0.7524;
882.0000;0.0708;-0.7590;
882.3000;0.0741;-0.7612;
882.6000;0.0594;-0.8033;
882.9000;0.0676;-0.7767;
883.2000;0.0741;-0.7678;
883.5000;0.0692;-0.7767;
883.8000;0.0716;-0.7789;
884.1000;0.0757;-0.7723;
884.4000;0.0708;-0.7745;
884.7000;0.0708;-0.7811;
885.0000;0.0676;-0.7966;
885.3000;0.0733;-0.7723;
885.6000;0.0676;-0.7833;
885.9000;0.0798;-0.7590;
886.2000;0.0716;-0.7767;
886.5000;0.0667;-0.7922;
886.8000;0.0708;-0.7767;
887.1000;0.0676;-0.7855;
887.4000;0.0757;-0.7723;
887.7000;0.0741;-0.7701;
888.0000;0.0724;-0.7745;
888.3000;0.0708;-0.7745;
888.6000;0.0594;-0.8077;
888.9000;0.0716;-0.7811;
889.2000;0.0708;-0.7833;
889.5000;0.0667;-0.7900;
889.8000;0.0716;-0.7789;
890.1000;0.0716;-0.7767;
890.4000;0.0733;-0.7723;
890.7000;0.0643;-0.7966;
891.0000;0.0716;-0.7701;
891.3000;0.0651;-0.7789;
891.6000;0.0684;-0.7745;
891.9000;0.0676;-0.7878;
892.2000;0.0651;-0.7988;
892.5000;0.0716;-0.7789;
892.8000;0.0708;-0.7767;
893.1000;0.0684;-0.7833;
893.4000;0.0708;-0.7789;
893.7000;0.0700;-0.7789;
894.0000;0.0594;-0.8077;
894.3000;0.0733;-0.7767;
894.6000;0.0708;-0.7767;
894.9000;0.0716;-0.7678;
895.2000;0.0733;-0.7634;
895.5000;0.0733;-0.7656;
895.8000;0.0708;-0.7723;
896.1000;0.0733;-0.7656;
896.4000;0.0578;-0.8010;
896.7000;0.0716;-0.7678;
897.0000;0.0716;-0.7524;
897.3000;0.0676;-0.7568;
897.6000;0.0716;-0.7546;
897.9000;0.0716;-0.7568;
898.2000;0.0700;-0.7656;
898.5000;0.0700;-0.7656;
898.8000;0.0733;-0.7656;
899.1000;0.0700;-0.7745;
899.4000;0.0733;-0.7590;
899.7000;0.0757;-0.7501;
900.0000;0.0708;-0.7701;
900.3000;0.0708;-0.7723;
900.6000;0.0586;-0.8010;
900.9000;0.0716;-0.7678;
901.2000;0.0692;-0.7745;
901.5000;0.0765;-0.7568;
901.8000;0.0716;-0.7745;
902.1000;0.0692;-0.7833;
902.4000;0.0724;-0.7745;
902.7000;0.0676;-0.7789;
903.0000;0.0781;-0.7634;
903.3000;0.0806;-0.7524;
903.6000;0.0619;-0.7966;
903.9000;0.0724;-0.7745;
904.2000;0.0700;-0.7767;
904.5000;0.0733;-0.7701;
904.8000;0.0733;-0.7745;
905.1000;0.0741;-0.7789;
905.4000;0.0554;-0.8210;
905.7000;0.0716;-0.7944;
906.0000;0.0659;-0.8010;
906.3000;0.0708;-0.7988;
906.6000;0.0635;-0.8187;
906.9000;0.0716;-0.8055;
907.2000;0.0667;-0.8187;
907.5000;0.0724;-0.8121;
907.8000;0.0692;-0.8232;
908.1000;0.0724;-0.8232;
908.4000;0.0724;-0.8187;
908.7000;0.0692;-0.8187;
909.0000;0.0716;-0.8232;
909.3000;0.0684;-0.8298;
909.6000;0.0733;-0.8165;
909.9000;0.0667;-0.8298;
910.2000;0.0708;-0.8055;
910.5000;0.0724;-0.7966;
910.8000;0.0708;-0.7988;
911.1000;0.0700;-0.8010;
911.4000;0.0749;-0.7855;
911.7000;0.0773;-0.7855;
912.0000;0.0700;-0.7988;
912.3000;0.0724;-0.7922;
912.6000;0.0724;-0.7878;
912.9000;0.0586;-0.8210;
913.2000;0.0773;-0.7723;
913.5000;0.0716;-0.7811;
913.8000;0.0716;-0.7789;
914.1000;0.0724;-0.7833;
914.4000;0.0627;-0.8187;
914.7000;0.0700;-0.8077;
915.0000;0.0790;-0.7811;
915.3000;0.0716;-0.7966;
915.6000;0.0716;-0.7944;
915.9000;0.0708;-0.7900;
916.2000;0.0716;-0.7944;
916.5000;0.0741;-0.7900;
916.8000;0.0692;-0.7988;
917.1000;0.0692;-0.7966;
917.4000;0.0651;-0.8232;
917.7000;0.0700;-0.8099;
918.0000;0.0700;-0.8099;
918.3000;0.0708;-0.8165;
918.6000;0.0684;-0.8232;
918.9000;0.0700;-0.8187;
919.2000;0.0749;-0.8055;
919.5000;0.0790;-0.8010;
919.8000;0.0692;-0.8232;
920.1000;0.0733;-0.8187;
920.4000;0.0684;-0.8320;
920.7000;0.0684;-0.8320;
921.0000;0.0692;-0.8276;
921.3000;0.0724;-0.8298;
921.6000;0.0741;-0.8342;
921.9000;0.0700;-0.8409;
922.2000;0.0724;-0.8364;
922.5000;0.0708;-0.8497;
922.8000;0.0741;-0.8364;
923.1000;0.0708;-0.8320;
923.4000;0.0724;-0.8298;
923.7000;0.0733;-0.8276;
924.0000;0.0708;-0.8320;
924.3000;0.0716;-0.8210;
924.6000;0.0708;-0.8187;
924.9000;0.0741;-0.8187;
925.2000;0.0733;-0.8254;
925.5000;0.0676;-0.8387;
925.8000;0.0692;-0.8298;
926.1000;0.0700;-0.8320;
926.4000;0.0700;-0.8298;
926.7000;0.0700;-0.8342;
927.0000;0.0733;-0.8320;
927.3000;0.0684;-0.8409;
927.6000;0.0724;-0.8320;
927.9000;0.0676;-0.8342;
928.2000;0.0659;-0.8364;
928.5000;0.0814;-0.7944;
928.8000;0.0814;-0.7944;
929.1000;0.0667;-0.8187;
929.4000;0.0724;-0.8099;
929.7000;0.0716;-0.8099;
930.0000;0.0708;-0.8121;
930.3000;0.0847;-0.7811;
930.6000;0.0757;-0.8033;
930.9000;0.0708;-0.8121;
931.2000;0.0708;-0.8143;
931.5000;0.0708;-0.8099;
931.8000;0.0708;-0.8143;
932.1000;0.0724;-0.8143;
932.4000;0.0692;-0.8210;
932.7000;0.0741;-0.8187;
933.0000;0.0724;-0.8276;
933.3000;0.0700;-0.8342;
933.6000;0.0716;-0.8254;
933.9000;0.0676;-0.8364;
934.2000;0.0724;-0.8276;
934.5000;0.0863;-0.7878;
934.8000;0.0741;-0.8232;
935.1000;0.0716;-0.8254;
935.4000;0.0765;-0.8077;
935.7000;0.0692;-0.8254;
936.0000;0.0716;-0.8210;
936.3000;0.0692;-0.8210;
936.6000;0.0724;-0.8165;
936.9000;0.0716;-0.8165;
937.2000;0.0708;-0.8187;
937.5000;0.0724;-0.8187;
937.8000;0.0741;-0.8210;
938.1000;0.0692;-0.8187;
938.4000;0.0781;-0.7988;
938.7000;0.0700;-0.8165;
939.0000;0.0700;-0.8165;
939.3000;0.0724;-0.8055;
939.6000;0.0708;-0.8099;
939.9000;0.0716;-0.8099;
940.2000;0.0724;-0.8099;
940.5000;0.0724;-0.8099;
940.8000;0.0781;-0.7988;
941.1000;0.0708;-0.8121;
941.4000;0.0635;-0.8143;
941.7000;0.0700;-0.7944;
942.0000;0.0716;-0.7922;
942.3000;0.0716;-0.7944;
942.6000;0.0700;-0.7966;
942.9000;0.0716;-0.8010;
943.2000;0.0733;-0.8010;
943.5000;0.0708;-0.8099;
943.8000;0.0602;-0.8387;
944.1000;0.0741;-0.7988;
944.4000;0.0733;-0.7988;
944.7000;0.0724;-0.8055;
945.0000;0.0716;-0.8010;
945.3000;0.0667;-0.8143;
945.6000;0.0741;-0.8033;
945.9000;0.0724;-0.8010;
946.2000;0.0716;-0.8010;
946.5000;0.0708;-0.8010;
946.8000;0.0716;-0.8033;
947.1000;0.0627;-0.8276;
947.4000;0.0716;-0.8055;
947.7000;0.0733;-0.7922;
948.0000;0.0643;-0.8187;
948.3000;0.0700;-0.8033;
948.6000;0.0700;-0.8055;
948.9000;0.0700;-0.8033;
949.2000;0.0643;-0.8165;
949.5000;0.0700;-0.7966;
949.8000;0.0716;-0.7944;
950.1000;0.0724;-0.7922;
950.4000;0.0708;-0.7922;
950.7000;0.0724;-0.7944;
951.0000;0.0716;-0.7922;
951.3000;0.0700;-0.7944;
951.6000;0.0708;-0.7900;
951.9000;0.0716;-0.7900;
952.2000;0.0716;-0.7944;
952.5000;0.0676;-0.8099;
952.8000;0.0700;-0.7988;
953.1000;0.0700;-0.8033;
953.4000;0.0700;-0.8121;
953.7000;0.0716;-0.8143;
954.0000;0.0757;-0.8099;
954.3000;0.0733;-0.8121;
954.6000;0.0667;-0.8210;
954.9000;0.0708;-0.8143;
955.2000;0.0708;-0.8077;
955.5000;0.0733;-0.8077;
955.8000;0.0676;-0.8232;
956.1000;0.0724;-0.8165;
956.4000;0.0708;-0.8187;
956.7000;0.0700;-0.8254;
957.0000;0.0733;-0.8187;
957.3000;0.0741;-0.8165;
957.6000;0.0716;-0.8276;
957.9000;0.0676;-0.8298;
958.2000;0.0716;-0.8187;
958.5000;0.0676;-0.8298;
958.8000;0.0716;-0.8187;
959.1000;0.0692;-0.8210;
959.4000;0.0733;-0.8143;
959.7000;0.0700;-0.8254;
960.0000;0.0708;-0.8254;
960.3000;0.0700;-0.8276;
960.6000;0.0716;-0.8187;
960.9000;0.0806;-0.7966;
961.2000;0.0708;-0.8165;
961.5000;0.0692;-0.8254;
961.8000;0.0659;-0.8342;
962.1000;0.0700;-0.8210;
962.4000;0.0676;-0.8143;
962.7000;0.0635;-0.8342;
963.0000;0.0700;-0.8232;
963.3000;0.0684;-0.8276;
963.6000;0.0724;-0.8187;
963.9000;0.0814;-0.7988;
964.2000;0.0700;-0.8254;
964.5000;0.0659;-0.8342;
964.8000;0.0708;-0.8210;
965.1000;0.0676;-0.8254;
965.4000;0.0716;-0.8254;
965.7000;0.0716;-0.8143;
966.0000;0.0716;-0.8121;
966.3000;0.0749;-0.8077;
966.6000;0.0700;-0.8187;
966.9000;0.0619;-0.8364;
967.2000;0.0716;-0.8099;
967.5000;0.0724;-0.8033;
967.8000;0.0692;-0.8121;
968.1000;0.0708;-0.8121;
968.4000;0.0724;-0.8143;
968.7000;0.0724;-0.8143;
969.0000;0.0716;-0.8187;
969.3000;0.0716;-0.8210;
969.6000;0.0724;-0.8165;
969.9000;0.0684;-0.8254;
970.2000;0.0708;-0.8232;
970.5000;0.0733;-0.8143;
970.8000;0.0700;-0.8254;
971.1000;0.0676;-0.8387;
971.4000;0.0716;-0.8254;
971.7000;0.0651;-0.8364;
972.0000;0.0684;-0.8320;
972.3000;0.0676;-0.8320;
972.6000;0.0749;-0.8121;
972.9000;0.0708;-0.8232;
973.2000;0.0716;-0.8143;
973.5000;0.0716;-0.8143;
973.8000;0.0659;-0.8254;
974.1000;0.0692;-0.8121;
974.4000;0.0724;-0.8033;
974.7000;0.0692;-0.8099;
975.0000;0.0700;-0.8254;
975.3000;0.0684;-0.8298;
975.6000;0.0781;-0.8055;
975.9000;0.0716;-0.8187;
976.2000;0.0724;-0.8143;
976.5000;0.0692;-0.8210;
976.8000;0.0700;-0.8143;
977.1000;0.0708;-0.8121;
977.4000;0.0716;-0.8033;
977.7000;0.0724;-0.7966;
978.0000;0.0724;-0.7944;
978.3000;0.0700;-0.8033;
978.6000;0.0806;-0.8010;
978.9000;0.0733;-0.8121;
979.2000;0.0724;-0.8143;
979.5000;0.0676;-0.8210;
979.8000;0.0724;-0.8033;
980.1000;0.0692;-0.8143;
980.4000;0.0724;-0.8143;
980.7000;0.0847;-0.7811;
981.0000;0.0773;-0.8033;
981.3000;0.0700;-0.8165;
981.6000;0.0643;-0.8254;
981.9000;0.0700;-0.8165;
982.2000;0.0798;-0.7900;
982.5000;0.0716;-0.8010;
982.8000;0.0741;-0.7922;
983.1000;0.0700;-0.8033;
983.4000;0.0749;-0.8010;
983.7000;0.0700;-0.8121;
984.0000;0.0733;-0.8033;
984.3000;0.0708;-0.8055;
984.6000;0.0724;-0.8077;
984.9000;0.0757;-0.8010;
985.2000;0.0838;-0.7922;
985.5000;0.0692;-0.8298;
985.8000;0.0700;-0.8187;
986.1000;0.0757;-0.8077;
986.4000;0.0765;-0.8010;
986.7000;0.0806;-0.7922;
987.0000;0.0708;-0.8165;
987.3000;0.0814;-0.7966;
987.6000;0.0692;-0.8143;
987.9000;0.0700;-0.8033;
988.2000;0.0733;-0.7900;
988.5000;0.0798;-0.7767;
988.8000;0.0741;-0.7922;
989.1000;0.0724;-0.7944;
989.4000;0.0741;-0.7811;
989.7000;0.0700;-0.7944;
990.0000;0.0700;-0.7966;
990.3000;0.0716;-0.7988;
990.6000;0.0708;-0.7922;
990.9000;0.0716;-0.7900;
991.2000;0.0749;-0.7833;
991.5000;0.0651;-0.8055;
991.8000;0.0708;-0.7922;
992.1000;0.0716;-0.8055;
992.4000;0.0716;-0.8033;
992.7000;0.0708;-0.8010;
993.0000;0.0733;-0.8055;
993.3000;0.0708;-0.8165;
993.6000;0.0733;-0.8121;
993.9000;0.0684;-0.8276;
994.2000;0.0700;-0.8187;
994.5000;0.0724;-0.8232;
994.8000;0.0724;-0.8143;
995.1000;0.0733;-0.8077;
995.4000;0.0700;-0.8121;
995.7000;0.0667;-0.8121;
996.0000;0.0700;-0.8010;
996.3000;0.0659;-0.8099;
996.6000;0.0871;-0.7678;
996.9000;0.0716;-0.7988;
997.2000;0.0724;-0.7944;
997.5000;0.0741;-0.7855;
997.8000;0.0700;-0.7988;
998.1000;0.0684;-0.8033;
998.4000;0.0700;-0.7988;
998.7000;0.0749;-0.7878;
999.0000;0.0684;-0.7988;
999.3000;0.0667;-0.8077;
999.6000;0.0684;-0.8033;
999.9000;0.0724;-0.7900;
1000.2000;0.0708;-0.7966;
1000.5000;0.0708;-0.7988;
1000.8000;0.0692;-0.8099;
1001.1000;0.0700;-0.8121;
1001.4000;0.0684;-0.8276;
1001.7000;0.0724;-0.8232;
1002.0000;0.0676;-0.8276;
1002.3000;0.0700;-0.8254;
1002.6000;0.0570;-0.8541;
1002.9000;0.0708;-0.8187;
1003.2000;0.0692;-0.8187;
1003.5000;0.0700;-0.8099;
1003.8000;0.0692;-0.8121;
1004.1000;0.0724;-0.8010;
1004.4000;0.0716;-0.8055;
1004.7000;0.0798;-0.7922;
1005.0000;0.0724;-0.8121;
1005.3000;0.0724;-0.8143;
1005.6000;0.0708;-0.8210;
1005.9000;0.0708;-0.8210;
1006.2000;0.0611;-0.8387;
1006.5000;0.0700;-0.8187;
1006.8000;0.0700;-0.8187;
1007.1000;0.0692;-0.8121;
1007.4000;0.0676;-0.8121;
1007.7000;0.0692;-0.8055;
1008.0000;0.0708;-0.8055;
1008.3000;0.0716;-0.7988;
1008.6000;0.0716;-0.8077;
1008.9000;0.0724;-0.8077;
1009.2000;0.0667;-0.8210;
1009.5000;0.0716;-0.8187;
1009.8000;0.0716;-0.8121;
1010.1000;0.0724;-0.8055;
1010.4000;0.0724;-0.8010;
1010.7000;0.0814;-0.7723;
1011.0000;0.0676;-0.8055;
1011.3000;0.0708;-0.8055;
1011.6000;0.0716;-0.8033;
1011.9000;0.0708;-0.8055;
1012.2000;0.0733;-0.8033;
1012.5000;0.0724;-0.8077;
1012.8000;0.0741;-0.8033;
1013.1000;0.0700;-0.8077;
1013.4000;0.0716;-0.8077;
1013.7000;0.0716;-0.8033;
1014.0000;0.0741;-0.7966;
1014.3000;0.0741;-0.7966;
1014.6000;0.0716;-0.7988;
1014.9000;0.0643;-0.8165;
1015.2000;0.0724;-0.7966;
1015.5000;0.0757;-0.7966;
1015.8000;0.0716;-0.7944;
1016.1000;0.0708;-0.7966;
1016.4000;0.0692;-0.7988;
1016.7000;0.0602;-0.8254;
1017.0000;0.0716;-0.7966;
1017.3000;0.0708;-0.7944;
1017.6000;0.0716;-0.7900;
1017.9000;0.0724;-0.7833;
1018.2000;0.0716;-0.7922;
1018.5000;0.0708;-0.7944;
1018.8000;0.0708;-0.7878;
1019.1000;0.0716;-0.7855;
1019.4000;0.0708;-0.8010;
1019.7000;0.0847;-0.7678;
1020.0000;0.0684;-0.8055;
1020.3000;0.0708;-0.8121;
1020.6000;0.0716;-0.8099;
1020.9000;0.0700;-0.8077;
1021.2000;0.0863;-0.7745;
1021.5000;0.0749;-0.8010;
1021.8000;0.0716;-0.8055;
1022.1000;0.0724;-0.8033;
1022.4000;0.0741;-0.7922;
1022.7000;0.0700;-0.7988;
1023.0000;0.0676;-0.8010;
1023.3000;0.0716;-0.7900;
1023.6000;0.0741;-0.7833;
1023.9000;0.0708;-0.8010;
1024.2000;0.0741;-0.7988;
1024.5000;0.0749;-0.8033;
1024.8000;0.0700;-0.8121;
1025.1000;0.0708;-0.8143;
1025.4000;0.0684;-0.8165;
1025.7000;0.0676;-0.8143;
1026.0000;0.0708;-0.8143;
1026.3000;0.0716;-0.8033;
1026.6000;0.0692;-0.8077;
1026.9000;0.0676;-0.8121;
1027.2000;0.0700;-0.8055;
1027.5000;0.0700;-0.8055;
1027.8000;0.0822;-0.7789;
1028.1000;0.0708;-0.7988;
1028.4000;0.0708;-0.7900;
1028.7000;0.0724;-0.7789;
1029.0000;0.0700;-0.7900;
1029.3000;0.0676;-0.7966;
1029.6000;0.0692;-0.7966;
1029.9000;0.0757;-0.7855;
1030.2000;0.0684;-0.7966;
1030.5000;0.0724;-0.7833;
1030.8000;0.0684;-0.7922;
1031.1000;0.0692;-0.7789;
1031.4000;0.0700;-0.7811;
1031.7000;0.0733;-0.7855;
1032.0000;0.0627;-0.8143;
1032.3000;0.0684;-0.7944;
1032.6000;0.0733;-0.7789;
1032.9000;0.0790;-0.7745;
1033.2000;0.0643;-0.8165;
1033.5000;0.0733;-0.7900;
1033.8000;0.0692;-0.8077;
1034.1000;0.0708;-0.8121;
1034.4000;0.0724;-0.8033;
1034.7000;0.0716;-0.8033;
1035.0000;0.0887;-0.7546;
1035.3000;0.0773;-0.7767;
1035.6000;0.0700;-0.7855;
1035.9000;0.0700;-0.7900;
1036.2000;0.0724;-0.7767;
1036.5000;0.0708;-0.7789;
1036.8000;0.0700;-0.7878;
1037.1000;0.0708;-0.7878;
1037.4000;0.0749;-0.7811;
1037.7000;0.0676;-0.7922;
1038.0000;0.0733;-0.7900;
1038.3000;0.0716;-0.7922;
1038.6000;0.0716;-0.8010;
1038.9000;0.0700;-0.8033;
1039.2000;0.0716;-0.8010;
1039.5000;0.0716;-0.8033;
1039.8000;0.0700;-0.8033;
1040.1000;0.0749;-0.7900;
1040.4000;0.0716;-0.7922;
1040.7000;0.0741;-0.7855;
1041.0000;0.0684;-0.8010;
1041.3000;0.0684;-0.7988;
1041.6000;0.0863;-0.7590;
1041.9000;0.0708;-0.7966;
1042.2000;0.0716;-0.7900;
1042.5000;0.0708;-0.7944;
1042.8000;0.0554;-0.8364;
1043.1000;0.0651;-0.8121;
1043.4000;0.0749;-0.7944;
1043.7000;0.0724;-0.8077;
1044.0000;0.0741;-0.8033;
1044.3000;0.0749;-0.8033;
1044.6000;0.0684;-0.8121;
1044.9000;0.0716;-0.8055;
1045.2000;0.0676;-0.8099;
1045.5000;0.0741;-0.7922;
1045.8000;0.0741;-0.7922;
1046.1000;0.0765;-0.7878;
1046.4000;0.0708;-0.7922;
1046.7000;0.0708;-0.7878;
1047.0000;0.0716;-0.7944;
1047.3000;0.0692;-0.8099;
1047.6000;0.0700;-0.8010;
1047.9000;0.0716;-0.7944;
1048.2000;0.0716;-0.7878;
1048.5000;0.0716;-0.7900;
1048.8000;0.0708;-0.7944;
1049.1000;0.0692;-0.7922;
1049.4000;0.0692;-0.7900;
1049.7000;0.0716;-0.7855;
1050.0000;0.0700;-0.7811;
1050.3000;0.0708;-0.7811;
1050.6000;0.0700;-0.7811;
1050.9000;0.0684;-0.7833;
1051.2000;0.0724;-0.7767;
1051.5000;0.0716;-0.7833;
1051.8000;0.0684;-0.7922;
1052.1000;0.0708;-0.7833;
1052.4000;0.0733;-0.7833;
1052.7000;0.0700;-0.7922;
1053.0000;0.0830;-0.7612;
1053.3000;0.0708;-0.7833;
1053.6000;0.0708;-0.7855;
1053.9000;0.0724;-0.7833;
1054.2000;0.0692;-0.7878;
1054.5000;0.0724;-0.7811;
1054.8000;0.0700;-0.7922;
1055.1000;0.0676;-0.7988;
1055.4000;0.0700;-0.7900;
1055.7000;0.0708;-0.7944;
1056.0000;0.0716;-0.7833;
1056.3000;0.0733;-0.7878;
1056.6000;0.0716;-0.7855;
1056.9000;0.0578;-0.8298;
1057.2000;0.0651;-0.8099;
1057.5000;0.0724;-0.7966;
1057.8000;0.0733;-0.8033;
1058.1000;0.0708;-0.8121;
1058.4000;0.0716;-0.8099;
1058.7000;0.0708;-0.8010;
1059.0000;0.0684;-0.8033;
1059.3000;0.0700;-0.7944;
1059.6000;0.0684;-0.7966;
1059.9000;0.0594;-0.8187;
1060.2000;0.0716;-0.7855;
1060.5000;0.0700;-0.7900;
1060.8000;0.0716;-0.7922;
1061.1000;0.0724;-0.7833;
1061.4000;0.0700;-0.7900;
1061.7000;0.0716;-0.7833;
1062.0000;0.0733;-0.7767;
1062.3000;0.0724;-0.7767;
1062.6000;0.0692;-0.7855;
1062.9000;0.0708;-0.7745;
1063.2000;0.0692;-0.7878;
1063.5000;0.0716;-0.7900;
1063.8000;0.0602;-0.8232;
1064.1000;0.0741;-0.7900;
1064.4000;0.0676;-0.8010;
1064.7000;0.0716;-0.7900;
1065.0000;0.0716;-0.8010;
1065.3000;0.0692;-0.8055;
1065.6000;0.0716;-0.7988;
1065.9000;0.0708;-0.7922;
1066.2000;0.0733;-0.7966;
1066.5000;0.0724;-0.7966;
1066.8000;0.0684;-0.8121;
1067.1000;0.0724;-0.8055;
1067.4000;0.0749;-0.7966;
1067.7000;0.0708;-0.8143;
1068.0000;0.0684;-0.8232;
1068.3000;0.0733;-0.8143;
1068.6000;0.0692;-0.8276;
1068.9000;0.0700;-0.8165;
1069.2000;0.0692;-0.8187;
1069.5000;0.0708;-0.8077;
1069.8000;0.0724;-0.8010;
1070.1000;0.0724;-0.7944;
1070.4000;0.0724;-0.7944;
1070.7000;0.0700;-0.8033;
1071.0000;0.0724;-0.8033;
1071.3000;0.0676;-0.8165;
1071.6000;0.0724;-0.8010;
1071.9000;0.0667;-0.8033;
1072.2000;0.0692;-0.7944;
1072.5000;0.0700;-0.7900;
1072.8000;0.0700;-0.7878;
1073.1000;0.0716;-0.7811;
1073.4000;0.0724;-0.7745;
1073.7000;0.0700;-0.7833;
1074.0000;0.0724;-0.7789;
1074.3000;0.0667;-0.8010;
1074.6000;0.0724;-0.7988;
1074.9000;0.0724;-0.7922;
1075.2000;0.0733;-0.7855;
1075.5000;0.0659;-0.8121;
1075.8000;0.0708;-0.8033;
1076.1000;0.0676;-0.8077;
1076.4000;0.0684;-0.8055;
1076.7000;0.0733;-0.7855;
1077.0000;0.0716;-0.7833;
1077.3000;0.0724;-0.7789;
1077.6000;0.0716;-0.7811;
1077.9000;0.0700;-0.7833;
1078.2000;0.0676;-0.7900;
1078.5000;0.0700;-0.7789;
1078.8000;0.0716;-0.7811;
1079.1000;0.0708;-0.7789;
1079.4000;0.0708;-0.7811;
1079.7000;0.0724;-0.7855;
1080.0000;0.0724;-0.7855;
1080.3000;0.0741;-0.7878;
1080.6000;0.0692;-0.8010;
1080.9000;0.0724;-0.7878;
1081.2000;0.0749;-0.7878;
1081.5000;0.0724;-0.7944;
1081.8000;0.0708;-0.7944;
1082.1000;0.0676;-0.7966;
1082.4000;0.0708;-0.7922;
1082.7000;0.0676;-0.8033;
1083.0000;0.0692;-0.7988;
1083.3000;0.0700;-0.7966;
1083.6000;0.0692;-0.8010;
1083.9000;0.0716;-0.7988;
1084.2000;0.0692;-0.7944;
1084.5000;0.0708;-0.7966;
1084.8000;0.0708;-0.7988;
1085.1000;0.0700;-0.7900;
1085.4000;0.0659;-0.8099;
1085.7000;0.0700;-0.7900;
1086.0000;0.0716;-0.7922;
1086.3000;0.0700;-0.7833;
1086.6000;0.0716;-0.7900;
1086.9000;0.0741;-0.7922;
1087.2000;0.0700;-0.7944;
1087.5000;0.0724;-0.7855;
1087.8000;0.0716;-0.7833;
1088.1000;0.0741;-0.7833;
1088.4000;0.0716;-0.7900;
1088.7000;0.0806;-0.7656;
1089.0000;0.0651;-0.8033;
1089.3000;0.0749;-0.7833;
1089.6000;0.0716;-0.7988;
1089.9000;0.0716;-0.7900;
1090.2000;0.0700;-0.7900;
1090.5000;0.0716;-0.7855;
1090.8000;0.0700;-0.7900;
1091.1000;0.0700;-0.7900;
1091.4000;0.0684;-0.7900;
1091.7000;0.0676;-0.7878;
1092.0000;0.0733;-0.7767;
1092.3000;0.0741;-0.7811;
1092.6000;0.0667;-0.7855;
1092.9000;0.0676;-0.7767;
1093.2000;0.0708;-0.7723;
1093.5000;0.0716;-0.7723;
1093.8000;0.0708;-0.7767;
1094.1000;0.0651;-0.7900;
1094.4000;0.0724;-0.7745;
1094.7000;0.0733;-0.7634;
1095.0000;0.0651;-0.7855;
1095.3000;0.0708;-0.7723;
1095.6000;0.0708;-0.7723;
1095.9000;0.0627;-0.7944;
1096.2000;0.0716;-0.7767;
1096.5000;0.0676;-0.7833;
1096.8000;0.0733;-0.7811;
1097.1000;0.0708;-0.7811;
1097.4000;0.0724;-0.7789;
1097.7000;0.0724;-0.7811;
1098.0000;0.0684;-0.7855;
1098.3000;0.0708;-0.7855;
1098.6000;0.0667;-0.7988;
1098.9000;0.0733;-0.7811;
1099.2000;0.0724;-0.7789;
1099.5000;0.0676;-0.7811;
1099.8000;0.0684;-0.7922;
1100.1000;0.0700;-0.7900;
1100.4000;0.0773;-0.7745;
1100.7000;0.0700;-0.7833;
1101.0000;0.0806;-0.7590;
1101.3000;0.0765;-0.7678;
1101.6000;0.0708;-0.7855;
1101.9000;0.0781;-0.7701;
1102.2000;0.0724;-0.7833;
1102.5000;0.0684;-0.7878;
1102.8000;0.0741;-0.7767;
1103.1000;0.0716;-0.7833;
1103.4000;0.0716;-0.7745;
1103.7000;0.0716;-0.7723;
1104.0000;0.0708;-0.7634;
1104.3000;0.0643;-0.7767;
1104.6000;0.0684;-0.7701;
1104.9000;0.0708;-0.7656;
1105.2000;0.0700;-0.7678;
1105.5000;0.0700;-0.7701;
1105.8000;0.0741;-0.7701;
1106.1000;0.0700;-0.7701;
1106.4000;0.0708;-0.7723;
1106.7000;0.0724;-0.7656;
1107.0000;0.0708;-0.7701;
1107.3000;0.0724;-0.7678;
1107.6000;0.0708;-0.7678;
1107.9000;0.0700;-0.7678;
1108.2000;0.0708;-0.7634;
1108.5000;0.0798;-0.7391;
1108.8000;0.0716;-0.7678;
1109.1000;0.0716;-0.7701;
1109.4000;0.0700;-0.7811;
1109.7000;0.0724;-0.7789;
1110.0000;0.0708;-0.7811;
1110.3000;0.0749;-0.7811;
1110.6000;0.0700;-0.7966;
1110.9000;0.0716;-0.7944;
1111.2000;0.0692;-0.8033;
1111.5000;0.0716;-0.8099;
1111.8000;0.0692;-0.8210;
1112.1000;0.0708;-0.8121;
1112.4000;0.0627;-0.8364;
1112.7000;0.0847;-0.7767;
1113.0000;0.0724;-0.8099;
1113.3000;0.0716;-0.7966;
1113.6000;0.0757;-0.7878;
1113.9000;0.0708;-0.7988;
1114.2000;0.0700;-0.8010;
1114.5000;0.0741;-0.7944;
1114.8000;0.0659;-0.8077;
1115.1000;0.0578;-0.8298;
1115.4000;0.0847;-0.7678;
1115.7000;0.0716;-0.7900;
1116.0000;0.0716;-0.7833;
1116.3000;0.0724;-0.7811;
1116.6000;0.0724;-0.7855;
1116.9000;0.0716;-0.7878;
1117.2000;0.0733;-0.7811;
1117.5000;0.0708;-0.7789;
1117.8000;0.0733;-0.7811;
1118.1000;0.0716;-0.7833;
1118.4000;0.0814;-0.7723;
1118.7000;0.0708;-0.7855;
1119.0000;0.0700;-0.7878;
1119.3000;0.0716;-0.7833;
1119.6000;0.0716;-0.7767;
1119.9000;0.0798;-0.7501;
1120.2000;0.0700;-0.7701;
1120.5000;0.0692;-0.7701;
1120.8000;0.0741;-0.7524;
1121.1000;0.0692;-0.7568;
1121.4000;0.0700;-0.7568;
1121.7000;0.0700;-0.7678;
1122.0000;0.0708;-0.7678;
1122.3000;0.0692;-0.7678;
1122.6000;0.0708;-0.7767;
1122.9000;0.0692;-0.7833;
1123.2000;0.0757;-0.7745;
1123.5000;0.0733;-0.7833;
1123.8000;0.0708;-0.7833;
1124.1000;0.0806;-0.7656;
1124.4000;0.0708;-0.7855;
1124.7000;0.0716;-0.7789;
1125.0000;0.0847;-0.7590;
1125.3000;0.0708;-0.7966;
1125.6000;0.0724;-0.7922;
1125.9000;0.0716;-0.7900;
1126.2000;0.0724;-0.7833;
1126.5000;0.0741;-0.7745;
1126.8000;0.0692;-0.7745;
1127.1000;0.0724;-0.7723;
1127.4000;0.0692;-0.7745;
1127.7000;0.0651;-0.7811;
1128.0000;0.0692;-0.7767;
1128.3000;0.0643;-0.7900;
1128.6000;0.0716;-0.7723;
1128.9000;0.0676;-0.7811;
1129.2000;0.0700;-0.7789;
1129.5000;0.0570;-0.8033;
1129.8000;0.0700;-0.7745;
1130.1000;0.0716;-0.7745;
1130.4000;0.0651;-0.7944;
1130.7000;0.0741;-0.7767;
1131.0000;0.0716;-0.7767;
1131.3000;0.0716;-0.7745;
1131.6000;0.0692;-0.7723;
1131.9000;0.0749;-0.7568;
1132.2000;0.0700;-0.7701;
1132.5000;0.0741;-0.7701;
1132.8000;0.0692;-0.7789;
1133.1000;0.0716;-0.7745;
1133.4000;0.0700;-0.7789;
1133.7000;0.0716;-0.7701;
1134.0000;0.0700;-0.7767;
1134.3000;0.0724;-0.7678;
1134.6000;0.0684;-0.7789;
1134.9000;0.0708;-0.7767;
1135.2000;0.0684;-0.7878;
1135.5000;0.0692;-0.7922;
1135.8000;0.0684;-0.7878;
1136.1000;0.0684;-0.7900;
1136.4000;0.0757;-0.7745;
1136.7000;0.0651;-0.8077;
1137.0000;0.0700;-0.7944;
1137.3000;0.0749;-0.7855;
1137.6000;0.0716;-0.7833;
1137.9000;0.0716;-0.7878;
1138.2000;0.0708;-0.7855;
1138.5000;0.0684;-0.7966;
1138.8000;0.0741;-0.7855;
1139.1000;0.0765;-0.7811;
1139.4000;0.0708;-0.7900;
1139.7000;0.0716;-0.7878;
1140.0000;0.0733;-0.7855;
1140.3000;0.0700;-0.7944;
1140.6000;0.0716;-0.7855;
1140.9000;0.0700;-0.7900;
1141.2000;0.0741;-0.7745;
1141.5000;0.0667;-0.7855;
1141.8000;0.0724;-0.7745;
1142.1000;0.0716;-0.7767;
1142.4000;0.0684;-0.7811;
1142.7000;0.0708;-0.7855;
1143.0000;0.0676;-0.7966;
1143.3000;0.0708;-0.7833;
1143.6000;0.0708;-0.7811;
1143.9000;0.0716;-0.7745;
1144.2000;0.0700;-0.7745;
1144.5000;0.0708;-0.7745;
1144.8000;0.0708;-0.7767;
1145.1000;0.0741;-0.7789;
1145.4000;0.0716;-0.7855;
1145.7000;0.0692;-0.8010;
1146.0000;0.0676;-0.8099;
1146.3000;0.0716;-0.7966;
1146.6000;0.0684;-0.8077;
1146.9000;0.0708;-0.7966;
1147.2000;0.0700;-0.8010;
1147.5000;0.0692;-0.7944;
1147.8000;0.0692;-0.7966;
1148.1000;0.0708;-0.7922;
1148.4000;0.0708;-0.7966;
1148.7000;0.0692;-0.7944;
1149.0000;0.0651;-0.8010;
1149.3000;0.0692;-0.7944;
1149.6000;0.0700;-0.7922;
1149.9000;0.0716;-0.7855;
1150.2000;0.0798;-0.7656;
1150.5000;0.0741;-0.7767;
1150.8000;0.0708;-0.7855;
1151.1000;0.0733;-0.7833;
1151.4000;0.0724;-0.7833;
1151.7000;0.0765;-0.7811;
1152.0000;0.0700;-0.7878;
1152.3000;0.0765;-0.7678;
1152.6000;0.0724;-0.7767;
1152.9000;0.0724;-0.7789;
1153.2000;0.0716;-0.7855;
1153.5000;0.0586;-0.8187;
1153.8000;0.0716;-0.7878;
1154.1000;0.0733;-0.7922;
1154.4000;0.0716;-0.8010;
1154.7000;0.0716;-0.7922;
1155.0000;0.0724;-0.7811;
1155.3000;0.0700;-0.7922;
1155.6000;0.0684;-0.7922;
1155.9000;0.0733;-0.7701;
1156.2000;0.0733;-0.7745;
1156.5000;0.0700;-0.7745;
1156.8000;0.0676;-0.7811;
1157.1000;0.0724;-0.7678;
1157.4000;0.0733;-0.7678;
1157.7000;0.0733;-0.7701;
1158.0000;0.0692;-0.7723;
1158.3000;0.0708;-0.7723;
1158.6000;0.0724;-0.7678;
1158.9000;0.0708;-0.7678;
1159.2000;0.0716;-0.7723;
1159.5000;0.0635;-0.7878;
1159.8000;0.0659;-0.7855;
1160.1000;0.0692;-0.7855;
1160.4000;0.0667;-0.7988;
1160.7000;0.0651;-0.8033;
1161.0000;0.0676;-0.7900;
1161.3000;0.0757;-0.7656;
1161.6000;0.0676;-0.7900;
1161.9000;0.0806;-0.7634;
1162.2000;0.0651;-0.7988;
1162.5000;0.0700;-0.7900;
1162.8000;0.0692;-0.7900;
1163.1000;0.0716;-0.7745;
1163.4000;0.0724;-0.7789;
1163.7000;0.0700;-0.7833;
1164.0000;0.0716;-0.7789;
1164.3000;0.0700;-0.7789;
1164.6000;0.0724;-0.7811;
1164.9000;0.0724;-0.7833;
1165.2000;0.0733;-0.7878;
1165.5000;0.0716;-0.7944;
1165.8000;0.0708;-0.7966;
1166.1000;0.0708;-0.7922;
1166.4000;0.0724;-0.7855;
1166.7000;0.0700;-0.7900;
1167.0000;0.0692;-0.7922;
1167.3000;0.0700;-0.7878;
1167.6000;0.0708;-0.7811;
1167.9000;0.0700;-0.7900;
1168.2000;0.0716;-0.7833;
1168.5000;0.0724;-0.7833;
1168.8000;0.0708;-0.7944;
1169.1000;0.0733;-0.7855;
1169.4000;0.0716;-0.7855;
1169.7000;0.0724;-0.7811;
1170.0000;0.0716;-0.7789;
1170.3000;0.0724;-0.7855;
1170.6000;0.0716;-0.7789;
1170.9000;0.0716;-0.7656;
1171.2000;0.0700;-0.7656;
1171.5000;0.0692;-0.7767;
1171.8000;0.0692;-0.7878;
1172.1000;0.0716;-0.7767;
1172.4000;0.0708;-0.7723;
1172.7000;0.0667;-0.7767;
1173.0000;0.0692;-0.7678;
1173.3000;0.0733;-0.7546;
1173.6000;0.0716;-0.7678;
1173.9000;0.0741;-0.7568;
1174.2000;0.0716;-0.7656;
1174.5000;0.0716;-0.7590;
1174.8000;0.0708;-0.7701;
1175.1000;0.0724;-0.7701;
1175.4000;0.0716;-0.7678;
1175.7000;0.0700;-0.7789;
1176.0000;0.0724;-0.7767;
1176.3000;0.0708;-0.7789;
1176.6000;0.0798;-0.7568;
1176.9000;0.0724;-0.7767;
1177.2000;0.0716;-0.7789;
1177.5000;0.0749;-0.7767;
1177.8000;0.0749;-0.7767;
1178.1000;0.0716;-0.7767;
1178.4000;0.0716;-0.7811;
1178.7000;0.0537;-0.8210;
1179.0000;0.0708;-0.7745;
1179.3000;0.0716;-0.7723;
1179.6000;0.0716;-0.7678;
1179.9000;0.0611;-0.7944;
1180.2000;0.0700;-0.7701;
1180.5000;0.0700;-0.7678;
1180.8000;0.0749;-0.7590;
1181.1000;0.0700;-0.7678;
1181.4000;0.0724;-0.7701;
1181.7000;0.0741;-0.7590;
1182.0000;0.0716;-0.7701;
1182.3000;0.0724;-0.7723;
1182.6000;0.0708;-0.7656;
1182.9000;0.0716;-0.7612;
1183.2000;0.0716;-0.7723;
1183.5000;0.0716;-0.7745;
1183.8000;0.0513;-0.8298;
1184.1000;0.0781;-0.7678;
1184.4000;0.0716;-0.7789;
1184.7000;0.0692;-0.7922;
1185.0000;0.0716;-0.7900;
1185.3000;0.0741;-0.7878;
1185.6000;0.0667;-0.8033;
1185.9000;0.0708;-0.7966;
1186.2000;0.0684;-0.7988;
1186.5000;0.0692;-0.8010;
1186.8000;0.0716;-0.7878;
1187.1000;0.0716;-0.7900;
1187.4000;0.0724;-0.7878;
1187.7000;0.0733;-0.7878;
1188.0000;0.0700;-0.7878;
1188.3000;0.0692;-0.7878;
1188.6000;0.0708;-0.7833;
1188.9000;0.0733;-0.7745;
1189.2000;0.0700;-0.7878;
1189.5000;0.0700;-0.7878;
1189.8000;0.0692;-0.7789;
1190.1000;0.0773;-0.7524;
1190.4000;0.0716;-0.7656;
1190.7000;0.0733;-0.7723;
1191.0000;0.0692;-0.7723;
1191.3000;0.0700;-0.7767;
1191.6000;0.0700;-0.7833;
1191.9000;0.0659;-0.7966;
1192.2000;0.0700;-0.7811;
1192.5000;0.0716;-0.7745;
1192.8000;0.0692;-0.7855;
1193.1000;0.0700;-0.7789;
1193.4000;0.0700;-0.7878;
1193.7000;0.0708;-0.7833;
1194.0000;0.0708;-0.7922;
1194.3000;0.0554;-0.8276;
1194.6000;0.0684;-0.7966;
1194.9000;0.0733;-0.7878;
1195.2000;0.0741;-0.7900;
1195.5000;0.0708;-0.7944;
1195.8000;0.0716;-0.7900;
1196.1000;0.0659;-0.7944;
1196.4000;0.0667;-0.7944;
1196.7000;0.0692;-0.7922;
1197.0000;0.0716;-0.7833;
1197.3000;0.0814;-0.7612;
1197.6000;0.0692;-0.7833;
1197.9000;0.0814;-0.7457;
1198.2000;0.0692;-0.7745;
1198.5000;0.0700;-0.7723;
1198.8000;0.0749;-0.7723;
1199.1000;0.0716;-0.7745;
1199.4000;0.0765;-0.7634;
1199.7000;0.0741;-0.7634;
1200.0000;0.0708;-0.7656;
1200.3000;0.0692;-0.7678;
1200.6000;0.0724;-0.7701;
1200.9000;0.0684;-0.7745;
1201.2000;0.0733;-0.7612;
1201.5000;0.0692;-0.7656;
1201.8000;0.0692;-0.7723;
1202.1000;0.0700;-0.7678;
1202.4000;0.0733;-0.7634;
1202.7000;0.0692;-0.7701;
1203.0000;0.0708;-0.7634;
1203.3000;0.0708;-0.7634;
1203.6000;0.0708;-0.7590;
1203.9000;0.0684;-0.7723;
1204.2000;0.0708;-0.7767;
1204.5000;0.0692;-0.7723;
1204.8000;0.0708;-0.7745;
1205.1000;0.0724;-0.7701;
1205.4000;0.0684;-0.7811;
1205.7000;0.0716;-0.7833;
1206.0000;0.0716;-0.7855;
1206.3000;0.0716;-0.7811;
1206.6000;0.0724;-0.7723;
1206.9000;0.0684;-0.7811;
1207.2000;0.0692;-0.7789;
1207.5000;0.0684;-0.7900;
1207.8000;0.0733;-0.7789;
1208.1000;0.0708;-0.7833;
1208.4000;0.0749;-0.7701;
1208.7000;0.0757;-0.7634;
1209.0000;0.0716;-0.7723;
1209.3000;0.0757;-0.7723;
1209.6000;0.0733;-0.7833;
1209.9000;0.0716;-0.7767;
1210.2000;0.0716;-0.7767;
1210.5000;0.0724;-0.7723;
1210.8000;0.0667;-0.7833;
1211.1000;0.0676;-0.7789;
1211.4000;0.0708;-0.7789;
1211.7000;0.0716;-0.7701;
1212.0000;0.0708;-0.7789;
1212.3000;0.0708;-0.7745;
1212.6000;0.0716;-0.7634;
1212.9000;0.0684;-0.7767;
1213.2000;0.0716;-0.7723;
1213.5000;0.0692;-0.7745;
1213.8000;0.0716;-0.7723;
1214.1000;0.0651;-0.7900;
1214.4000;0.0741;-0.7678;
1214.7000;0.0749;-0.7634;
1215.0000;0.0676;-0.7723;
1215.3000;0.0700;-0.7789;
1215.6000;0.0765;-0.7612;
1215.9000;0.0708;-0.7767;
1216.2000;0.0692;-0.7789;
1216.5000;0.0700;-0.7745;
1216.8000;0.0708;-0.7789;
1217.1000;0.0635;-0.8033;
1217.4000;0.0700;-0.7833;
1217.7000;0.0570;-0.8254;
1218.0000;0.0700;-0.7878;
1218.3000;0.0724;-0.7900;
1218.6000;0.0692;-0.7833;
1218.9000;0.0570;-0.8121;
1219.2000;0.0643;-0.7966;
1219.5000;0.0700;-0.7811;
1219.8000;0.0749;-0.7811;
1220.1000;0.0708;-0.7900;
1220.4000;0.0684;-0.8033;
1220.7000;0.0676;-0.7966;
1221.0000;0.0700;-0.7855;
1221.3000;0.0659;-0.7966;
1221.6000;0.0708;-0.7878;
1221.9000;0.0700;-0.7878;
1222.2000;0.0708;-0.7833;
1222.5000;0.0716;-0.7745;
1222.8000;0.0700;-0.7855;
1223.1000;0.0716;-0.7767;
1223.4000;0.0798;-0.7524;
1223.7000;0.0724;-0.7678;
1224.0000;0.0724;-0.7656;
1224.3000;0.0684;-0.7701;
1224.6000;0.0716;-0.7656;
1224.9000;0.0733;-0.7701;
1225.2000;0.0724;-0.7723;
1225.5000;0.0716;-0.7767;
1225.8000;0.0716;-0.7723;
1226.1000;0.0659;-0.7855;
1226.4000;0.0724;-0.7811;
1226.7000;0.0700;-0.7833;
1227.0000;0.0708;-0.7767;
1227.3000;0.0684;-0.7789;
1227.6000;0.0741;-0.7678;
1227.9000;0.0741;-0.7568;
1228.2000;0.0692;-0.7701;
1228.5000;0.0635;-0.7855;
1228.8000;0.0700;-0.7789;
1229.1000;0.0700;-0.7855;
1229.4000;0.0830;-0.7413;
1229.7000;0.0716;-0.7745;
1230.0000;0.0716;-0.7855;
1230.3000;0.0741;-0.7767;
1230.6000;0.0724;-0.7789;
1230.9000;0.0684;-0.7900;
1231.2000;0.0741;-0.7789;
1231.5000;0.0635;-0.7944;
1231.8000;0.0716;-0.7767;
1232.1000;0.0692;-0.7833;
1232.4000;0.0790;-0.7590;
1232.7000;0.0724;-0.7811;
1233.0000;0.0716;-0.7767;
1233.3000;0.0700;-0.7811;
1233.6000;0.0659;-0.7922;
1233.9000;0.0716;-0.7811;
1234.2000;0.0708;-0.7767;
1234.5000;0.0733;-0.7745;
1234.8000;0.0765;-0.7701;
1235.1000;0.0757;-0.7767;
1235.4000;0.0733;-0.7811;
1235.7000;0.0724;-0.7878;
1236.0000;0.0724;-0.7922;
1236.3000;0.0716;-0.7988;
1236.6000;0.0733;-0.7966;
1236.9000;0.0692;-0.8055;
1237.2000;0.0716;-0.7900;
1237.5000;0.0724;-0.7922;
1237.8000;0.0716;-0.7878;
1238.1000;0.0724;-0.7855;
1238.4000;0.0684;-0.7922;
1238.7000;0.0733;-0.7833;
1239.0000;0.0741;-0.7789;
1239.3000;0.0708;-0.7833;
1239.6000;0.0733;-0.7745;
1239.9000;0.0741;-0.7612;
1240.2000;0.0733;-0.7590;
1240.5000;0.0700;-0.7678;
1240.8000;0.0724;-0.7701;
1241.1000;0.0724;-0.7745;
1241.4000;0.0716;-0.7789;
1241.7000;0.0716;-0.7811;
1242.0000;0.0708;-0.7833;
1242.3000;0.0578;-0.8165;
1242.6000;0.0684;-0.7900;
1242.9000;0.0676;-0.7922;
1243.2000;0.0684;-0.7878;
1243.5000;0.0708;-0.7855;
1243.8000;0.0716;-0.7922;
1244.1000;0.0716;-0.7878;
1244.4000;0.0708;-0.7922;
1244.7000;0.0790;-0.7701;
1245.0000;0.0684;-0.7900;
1245.3000;0.0684;-0.7900;
1245.6000;0.0757;-0.7656;
1245.9000;0.0708;-0.7767;
1246.2000;0.0692;-0.7811;
1246.5000;0.0692;-0.7855;
1246.8000;0.0724;-0.7767;
1247.1000;0.0716;-0.7789;
1247.4000;0.0570;-0.8099;
1247.7000;0.0676;-0.7922;
1248.0000;0.0716;-0.7833;
1248.3000;0.0708;-0.7833;
1248.6000;0.0708;-0.7878;
1248.9000;0.0733;-0.7745;
1249.2000;0.0741;-0.7701;
1249.5000;0.0716;-0.7701;
1249.8000;0.0716;-0.7634;
1250.1000;0.0765;-0.7479;
1250.4000;0.0733;-0.7501;
1250.7000;0.0716;-0.7612;
1251.0000;0.0708;-0.7701;
1251.3000;0.0692;-0.7745;
1251.6000;0.0741;-0.7612;
1251.9000;0.0684;-0.7723;
1252.2000;0.0700;-0.7723;
1252.5000;0.0659;-0.7767;
1252.8000;0.0741;-0.7612;
1253.1000;0.0692;-0.7745;
1253.4000;0.0708;-0.7745;
1253.7000;0.0716;-0.7789;
1254.0000;0.0684;-0.7789;
1254.3000;0.0692;-0.7767;
1254.6000;0.0716;-0.7701;
1254.9000;0.0716;-0.7678;
1255.2000;0.0741;-0.7634;
1255.5000;0.0790;-0.7501;
1255.8000;0.0724;-0.7723;
1256.1000;0.0708;-0.7723;
1256.4000;0.0692;-0.7723;
1256.7000;0.0676;-0.7789;
1257.0000;0.0684;-0.7678;
1257.3000;0.0724;-0.7612;
1257.6000;0.0708;-0.7612;
1257.9000;0.0724;-0.7590;
1258.2000;0.0716;-0.7590;
1258.5000;0.0724;-0.7590;
1258.8000;0.0749;-0.7546;
1259.1000;0.0724;-0.7656;
1259.4000;0.0708;-0.7612;
1259.7000;0.0708;-0.7568;
1260.0000;0.0724;-0.7568;
1260.3000;0.0700;-0.7634;
1260.6000;0.0708;-0.7701;
1260.9000;0.0716;-0.7745;
1261.2000;0.0700;-0.7789;
1261.5000;0.0724;-0.7767;
1261.8000;0.0716;-0.7878;
1262.1000;0.0708;-0.7966;
1262.4000;0.0749;-0.7878;
1262.7000;0.0708;-0.7922;
1263.0000;0.0716;-0.7966;
1263.3000;0.0659;-0.8033;
1263.6000;0.0700;-0.7922;
1263.9000;0.0724;-0.7811;
1264.2000;0.0716;-0.7723;
1264.5000;0.0716;-0.7723;
1264.8000;0.0692;-0.7833;
1265.1000;0.0716;-0.7789;
1265.4000;0.0790;-0.7612;
1265.7000;0.0733;-0.7634;
1266.0000;0.0741;-0.7634;
1266.3000;0.0676;-0.7745;
1266.6000;0.0708;-0.7656;
1266.9000;0.0700;-0.7701;
1267.2000;0.0643;-0.7789;
1267.5000;0.0627;-0.7878;
1267.8000;0.0716;-0.7634;
1268.1000;0.0724;-0.7634;
1268.4000;0.0684;-0.7723;
1268.7000;0.0724;-0.7634;
1269.0000;0.0724;-0.7678;
1269.3000;0.0708;-0.7789;
1269.6000;0.0708;-0.7811;
1269.9000;0.0724;-0.7789;
1270.2000;0.0708;-0.7789;
1270.5000;0.0733;-0.7767;
1270.8000;0.0684;-0.7855;
1271.1000;0.0676;-0.7833;
1271.4000;0.0700;-0.7789;
1271.7000;0.0716;-0.7723;
1272.0000;0.0790;-0.7524;
1272.3000;0.0700;-0.7767;
1272.6000;0.0724;-0.7745;
1272.9000;0.0773;-0.7612;
1273.2000;0.0716;-0.7745;
1273.5000;0.0716;-0.7767;
1273.8000;0.0724;-0.7701;
1274.1000;0.0741;-0.7701;
1274.4000;0.0684;-0.7811;
1274.7000;0.0667;-0.7922;
1275.0000;0.0716;-0.7767;
1275.3000;0.0716;-0.7701;
1275.6000;0.0724;-0.7767;
1275.9000;0.0733;-0.7723;
1276.2000;0.0790;-0.7656;
1276.5000;0.0700;-0.7855;
1276.8000;0.0724;-0.7811;
1277.1000;0.0716;-0.7789;
1277.4000;0.0741;-0.7745;
1277.7000;0.0700;-0.7833;
1278.0000;0.0724;-0.7745;
1278.3000;0.0708;-0.7767;
1278.6000;0.0724;-0.7701;
1278.9000;0.0733;-0.7634;
1279.2000;0.0700;-0.7678;
1279.5000;0.0700;-0.7745;
1279.8000;0.0741;-0.7678;
1280.1000;0.0700;-0.7789;
1280.4000;0.0700;-0.7833;
1280.7000;0.0716;-0.7833;
1281.0000;0.0700;-0.7900;
1281.3000;0.0692;-0.8033;
1281.6000;0.0692;-0.7966;
1281.9000;0.0708;-0.7944;
1282.2000;0.0570;-0.8232;
1282.5000;0.0700;-0.7767;
1282.8000;0.0741;-0.7612;
1283.1000;0.0708;-0.7678;
1283.4000;0.0716;-0.7678;
1283.7000;0.0716;-0.7701;
1284.0000;0.0716;-0.7723;
1284.3000;0.0716;-0.7723;
1284.6000;0.0733;-0.7701;
1284.9000;0.0708;-0.7701;
1285.2000;0.0700;-0.7678;
1285.5000;0.0700;-0.7656;
1285.8000;0.0847;-0.7391;
1286.1000;0.0684;-0.7745;
1286.4000;0.0700;-0.7723;
1286.7000;0.0716;-0.7745;
1287.0000;0.0708;-0.7789;
1287.3000;0.0716;-0.7745;
1287.6000;0.0716;-0.7723;
1287.9000;0.0692;-0.7723;
1288.2000;0.0716;-0.7546;
1288.5000;0.0708;-0.7634;
1288.8000;0.0676;-0.7723;
1289.1000;0.0700;-0.7590;
1289.4000;0.0716;-0.7656;
1289.7000;0.0708;-0.7612;
1290.0000;0.0684;-0.7701;
1290.3000;0.0724;-0.7678;
1290.6000;0.0716;-0.7678;
1290.9000;0.0716;-0.7745;
1291.2000;0.0700;-0.7723;
1291.5000;0.0708;-0.7612;
1291.8000;0.0692;-0.7590;
1292.1000;0.0733;-0.7524;
1292.4000;0.0716;-0.7590;
1292.7000;0.0602;-0.7878;
1293.0000;0.0651;-0.7767;
1293.3000;0.0708;-0.7701;
1293.6000;0.0716;-0.7701;
1293.9000;0.0716;-0.7678;
1294.2000;0.0708;-0.7701;
1294.5000;0.0708;-0.7701;
1294.8000;0.0602;-0.7922;
1295.1000;0.0708;-0.7656;
1295.4000;0.0733;-0.7678;
1295.7000;0.0586;-0.8099;
1296.0000;0.0716;-0.7833;
1296.3000;0.0684;-0.7944;
1296.6000;0.0676;-0.7900;
1296.9000;0.0733;-0.7745;
1297.2000;0.0716;-0.7723;
1297.5000;0.0692;-0.7811;
1297.8000;0.0700;-0.7833;
1298.1000;0.0692;-0.7789;
1298.4000;0.0716;-0.7745;
1298.7000;0.0724;-0.7767;
1299.0000;0.0716;-0.7701;
1299.3000;0.0724;-0.7656;
1299.6000;0.0700;-0.7701;
1299.9000;0.0700;-0.7767;
1300.2000;0.0708;-0.7701;
1300.5000;0.0716;-0.7678;
1300.8000;0.0676;-0.7723;
1301.1000;0.0749;-0.7590;
1301.4000;0.0700;-0.7767;
1301.7000;0.0716;-0.7745;
1302.0000;0.0700;-0.7767;
1302.3000;0.0724;-0.7723;
1302.6000;0.0749;-0.7656;
1302.9000;0.0733;-0.7701;
1303.2000;0.0733;-0.7678;
1303.5000;0.0724;-0.7656;
1303.8000;0.0741;-0.7701;
1304.1000;0.0724;-0.7767;
1304.4000;0.0684;-0.7767;
1304.7000;0.0765;-0.7701;
1305.0000;0.0741;-0.7723;
1305.3000;0.0724;-0.7723;
1305.6000;0.0700;-0.7767;
1305.9000;0.0700;-0.7789;
1306.2000;0.0716;-0.7612;
1306.5000;0.0700;-0.7590;
1306.8000;0.0708;-0.7590;
1307.1000;0.0716;-0.7590;
1307.4000;0.0700;-0.7546;
1307.7000;0.0724;-0.7546;
1308.0000;0.0724;-0.7524;
1308.3000;0.0724;-0.7501;
1308.6000;0.0724;-0.7546;
1308.9000;0.0627;-0.7811;
1309.2000;0.0724;-0.7612;
1309.5000;0.0716;-0.7678;
1309.8000;0.0741;-0.7723;
1310.1000;0.0684;-0.7833;
1310.4000;0.0749;-0.7723;
1310.7000;0.0741;-0.7789;
1311.0000;0.0635;-0.8077;
1311.3000;0.0700;-0.7833;
1311.6000;0.0716;-0.7678;
1311.9000;0.0684;-0.7767;
1312.2000;0.0659;-0.7789;
1312.5000;0.0716;-0.7678;
1312.8000;0.0724;-0.7634;
1313.1000;0.0822;-0.7347;
1313.4000;0.0765;-0.7457;
1313.7000;0.0708;-0.7590;
1314.0000;0.0733;-0.7524;
1314.3000;0.0757;-0.7546;
1314.6000;0.0724;-0.7723;
1314.9000;0.0724;-0.7678;
1315.2000;0.0724;-0.7656;
1315.5000;0.0724;-0.7678;
1315.8000;0.0741;-0.7656;
1316.1000;0.0724;-0.7678;
1316.4000;0.0708;-0.7634;
1316.7000;0.0716;-0.7656;
1317.0000;0.0708;-0.7723;
1317.3000;0.0716;-0.7723;
1317.6000;0.0586;-0.8010;
1317.9000;0.0716;-0.7678;
1318.2000;0.0741;-0.7590;
1318.5000;0.0708;-0.7656;
1318.8000;0.0700;-0.7634;
1319.1000;0.0692;-0.7612;
1319.4000;0.0684;-0.7678;
1319.7000;0.0724;-0.7678;
1320.0000;0.0724;-0.7656;
1320.3000;0.0724;-0.7612;
1320.6000;0.0733;-0.7634;
1320.9000;0.0724;-0.7656;
1321.2000;0.0724;-0.7701;
1321.5000;0.0684;-0.7833;
1321.8000;0.0708;-0.7678;
1322.1000;0.0708;-0.7701;
1322.4000;0.0724;-0.7723;
1322.7000;0.0684;-0.7833;
1323.0000;0.0733;-0.7723;
1323.3000;0.0594;-0.8010;
1323.6000;0.0708;-0.7723;
1323.9000;0.0716;-0.7701;
1324.2000;0.0684;-0.7833;
1324.5000;0.0749;-0.7701;
1324.8000;0.0716;-0.7767;
1325.1000;0.0708;-0.7767;
1325.4000;0.0716;-0.7656;
1325.7000;0.0700;-0.7723;
1326.0000;0.0708;-0.7745;
1326.3000;0.0716;-0.7678;
1326.6000;0.0781;-0.7634;
1326.9000;0.0700;-0.7767;
1327.2000;0.0724;-0.7745;
1327.5000;0.0733;-0.7767;
1327.8000;0.0676;-0.7922;
1328.1000;0.0708;-0.7767;
1328.4000;0.0749;-0.7701;
1328.7000;0.0733;-0.7723;
1329.0000;0.0708;-0.7723;
1329.3000;0.0733;-0.7678;
1329.6000;0.0692;-0.7833;
1329.9000;0.0757;-0.7767;
1330.2000;0.0798;-0.7634;
1330.5000;0.0651;-0.7878;
1330.8000;0.0724;-0.7767;
1331.1000;0.0708;-0.7767;
1331.4000;0.0708;-0.7833;
1331.7000;0.0724;-0.7767;
1332.0000;0.0765;-0.7745;
1332.3000;0.0716;-0.7833;
1332.6000;0.0733;-0.7811;
1332.9000;0.0667;-0.8010;
1333.2000;0.0708;-0.7966;
1333.5000;0.0716;-0.7944;
1333.8000;0.0708;-0.7922;
1334.1000;0.0708;-0.7855;
1334.4000;0.0692;-0.7745;
1334.7000;0.0684;-0.7789;
1335.0000;0.0708;-0.7767;
1335.3000;0.0700;-0.7723;
1335.6000;0.0749;-0.7612;
1335.9000;0.0757;-0.7634;
1336.2000;0.0684;-0.7811;
1336.5000;0.0724;-0.7723;
1336.8000;0.0765;-0.7612;
1337.1000;0.0765;-0.7568;
1337.4000;0.0749;-0.7656;
1337.7000;0.0700;-0.7811;
1338.0000;0.0716;-0.7900;
1338.3000;0.0676;-0.8033;
1338.6000;0.0708;-0.8010;
1338.9000;0.0716;-0.7944;
1339.2000;0.0733;-0.7878;
1339.5000;0.0611;-0.8254;
1339.8000;0.0700;-0.7966;
1340.1000;0.0708;-0.7922;
1340.4000;0.0741;-0.7900;
1340.7000;0.0716;-0.7988;
1341.0000;0.0716;-0.7966;
1341.3000;0.0700;-0.7966;
1341.6000;0.0708;-0.7900;
1341.9000;0.0733;-0.7767;
1342.2000;0.0716;-0.7855;
1342.5000;0.0757;-0.7745;
1342.8000;0.0798;-0.7634;
1343.1000;0.0741;-0.7723;
1343.4000;0.0708;-0.7723;
1343.7000;0.0733;-0.7745;
1344.0000;0.0733;-0.7678;
1344.3000;0.0708;-0.7745;
1344.6000;0.0716;-0.7833;
1344.9000;0.0724;-0.7811;
1345.2000;0.0724;-0.7878;
1345.5000;0.0651;-0.8033;
1345.8000;0.0684;-0.7944;
1346.1000;0.0684;-0.8055;
1346.4000;0.0692;-0.8033;
1346.7000;0.0676;-0.8077;
1347.0000;0.0692;-0.8055;
1347.3000;0.0676;-0.8055;
1347.6000;0.0741;-0.7900;
1347.9000;0.0716;-0.7988;
1348.2000;0.0781;-0.7988;
1348.5000;0.0749;-0.8077;
1348.8000;0.0741;-0.8210;
1349.1000;0.0676;-0.8298;
1349.4000;0.0643;-0.8320;
1349.7000;0.0716;-0.8077;
1350.0000;0.0708;-0.8077;
1350.3000;0.0700;-0.8077;
1350.6000;0.0741;-0.8010;
1350.9000;0.0790;-0.7833;
1351.2000;0.0700;-0.8055;
1351.5000;0.0700;-0.8121;
1351.8000;0.0733;-0.8099;
1352.1000;0.0716;-0.8077;
1352.4000;0.0676;-0.8099;
1352.7000;0.0716;-0.7988;
1353.0000;0.0724;-0.8033;
1353.3000;0.0716;-0.8143;
1353.6000;0.0733;-0.8077;
1353.9000;0.0724;-0.8010;
1354.2000;0.0733;-0.7944;
1354.5000;0.0733;-0.7855;
1354.8000;0.0814;-0.7723;
1355.1000;0.0700;-0.7900;
1355.4000;0.0708;-0.7855;
1355.7000;0.0733;-0.7855;
1356.0000;0.0700;-0.7878;
1356.3000;0.0724;-0.7900;
1356.6000;0.0692;-0.7966;
1356.9000;0.0724;-0.7922;
1357.2000;0.0741;-0.7833;
1357.5000;0.0716;-0.7855;
1357.8000;0.0733;-0.7833;
1358.1000;0.0716;-0.7878;
1358.4000;0.0708;-0.7922;
1358.7000;0.0749;-0.7767;
1359.0000;0.0659;-0.7988;
1359.3000;0.0741;-0.7922;
1359.6000;0.0684;-0.8099;
1359.9000;0.0700;-0.8033;
1360.2000;0.0716;-0.7900;
1360.5000;0.0684;-0.7900;
1360.8000;0.0700;-0.7900;
1361.1000;0.0708;-0.7944;
1361.4000;0.0651;-0.8033;
1361.7000;0.0700;-0.7988;
1362.0000;0.0700;-0.7966;
1362.3000;0.0708;-0.7966;
1362.6000;0.0708;-0.7988;
1362.9000;0.0716;-0.7988;
1363.2000;0.0700;-0.8033;
1363.5000;0.0700;-0.8055;
1363.8000;0.0724;-0.7966;
1364.1000;0.0692;-0.8055;
1364.4000;0.0733;-0.7944;
1364.7000;0.0659;-0.8033;
1365.0000;0.0733;-0.7789;
1365.3000;0.0724;-0.7723;
1365.6000;0.0733;-0.7701;
1365.9000;0.0716;-0.7767;
1366.2000;0.0692;-0.7811;
1366.5000;0.0700;-0.7900;
1366.8000;0.0724;-0.7878;
1367.1000;0.0700;-0.7966;
1367.4000;0.0716;-0.7988;
1367.7000;0.0724;-0.8033;
1368.0000;0.0724;-0.8033;
1368.3000;0.0692;-0.7988;
1368.6000;0.0700;-0.7922;
1368.9000;0.0692;-0.8055;
1369.2000;0.0716;-0.8033;
1369.5000;0.0741;-0.8010;
1369.8000;0.0724;-0.8143;
1370.1000;0.0716;-0.8033;
1370.4000;0.0692;-0.7988;
1370.7000;0.0790;-0.7745;
1371.0000;0.0716;-0.7878;
1371.3000;0.0708;-0.7966;
1371.6000;0.0708;-0.7966;
1371.9000;0.0716;-0.8010;
1372.2000;0.0724;-0.8055;
1372.5000;0.0724;-0.8033;
1372.8000;0.0700;-0.8077;
1373.1000;0.0716;-0.8010;
1373.4000;0.0700;-0.8099;
1373.7000;0.0700;-0.8121;
1374.0000;0.0724;-0.8143;
1374.3000;0.0692;-0.8187;
1374.6000;0.0716;-0.8121;
1374.9000;0.0692;-0.8099;
1375.2000;0.0716;-0.8033;
1375.5000;0.0733;-0.8077;
1375.8000;0.0700;-0.8187;
1376.1000;0.0716;-0.8276;
1376.4000;0.0708;-0.8254;
1376.7000;0.0708;-0.8210;
1377.0000;0.0708;-0.8210;
1377.3000;0.0708;-0.8099;
1377.6000;0.0708;-0.8055;
1377.9000;0.0700;-0.8077;
1378.2000;0.0708;-0.7988;
1378.5000;0.0724;-0.7922;
1378.8000;0.0741;-0.7878;
1379.1000;0.0724;-0.7988;
1379.4000;0.0708;-0.8033;
1379.7000;0.0708;-0.8033;
1380.0000;0.0708;-0.7966;
1380.3000;0.0700;-0.7944;
1380.6000;0.0781;-0.7745;
1380.9000;0.0700;-0.8010;
1381.2000;0.0708;-0.7944;
1381.5000;0.0700;-0.8010;
1381.8000;0.0716;-0.8055;
1382.1000;0.0716;-0.8033;
1382.4000;0.0733;-0.8010;
1382.7000;0.0724;-0.7900;
1383.0000;0.0716;-0.7966;
1383.3000;0.0790;-0.7678;
1383.6000;0.0798;-0.7612;
1383.9000;0.0708;-0.7878;
1384.2000;0.0692;-0.7900;
1384.5000;0.0635;-0.7966;
1384.8000;0.0684;-0.7966;
1385.1000;0.0749;-0.7878;
1385.4000;0.0716;-0.7966;
1385.7000;0.0700;-0.8055;
1386.0000;0.0667;-0.8121;
1386.3000;0.0708;-0.7966;
1386.6000;0.0733;-0.7855;
1386.9000;0.0716;-0.7833;
1387.2000;0.0733;-0.7767;
1387.5000;0.0700;-0.7855;
1387.8000;0.0684;-0.7988;
1388.1000;0.0708;-0.7966;
1388.4000;0.0676;-0.8033;
1388.7000;0.0781;-0.7811;
1389.0000;0.0749;-0.7922;
1389.3000;0.0724;-0.7855;
1389.6000;0.0724;-0.7811;
1389.9000;0.0708;-0.7767;
1390.2000;0.0716;-0.7745;
1390.5000;0.0708;-0.7811;
1390.8000;0.0741;-0.7789;
1391.1000;0.0716;-0.7878;
1391.4000;0.0708;-0.7922;
1391.7000;0.0716;-0.7878;
1392.0000;0.0716;-0.7966;
1392.3000;0.0708;-0.7966;
1392.6000;0.0716;-0.7944;
1392.9000;0.0724;-0.7966;
1393.2000;0.0700;-0.8010;
1393.5000;0.0708;-0.7988;
1393.8000;0.0716;-0.7966;
1394.1000;0.0692;-0.8010;
1394.4000;0.0708;-0.7944;
1394.7000;0.0724;-0.7900;
1395.0000;0.0724;-0.7900;
1395.3000;0.0716;-0.7922;
1395.6000;0.0724;-0.8077;
1395.9000;0.0708;-0.8077;
1396.2000;0.0700;-0.8055;
1396.5000;0.0724;-0.8033;
1396.8000;0.0724;-0.7966;
1397.1000;0.0700;-0.8010;
1397.4000;0.0708;-0.8077;
1397.7000;0.0684;-0.8165;
1398.0000;0.0708;-0.8143;
1398.3000;0.0676;-0.8165;
1398.6000;0.0716;-0.8165;
1398.9000;0.0692;-0.8232;
1399.2000;0.0708;-0.8165;
1399.5000;0.0651;-0.8320;
1399.8000;0.0724;-0.8055;
