time/ms;Fluo/V;P700 deltaI/I x10³;
-199.8000;0.0724;-0.8475;
-199.5000;0.0733;-0.8519;
-199.2000;0.0749;-0.8564;
-198.9000;0.0733;-0.8541;
-198.6000;0.0749;-0.8541;
-198.3000;0.0749;-0.8541;
-198.0000;0.0757;-0.8564;
-197.7000;0.0757;-0.8564;
-197.4000;0.0724;-0.8630;
-197.1000;0.0749;-0.8541;
-196.8000;0.0757;-0.8586;
-196.5000;0.0741;-0.8630;
-196.2000;0.0724;-0.8696;
-195.9000;0.0733;-0.8718;
-195.6000;0.0741;-0.8718;
-195.3000;0.0733;-0.8763;
-195.0000;0.0733;-0.8785;
-194.7000;0.0733;-0.8851;
-194.4000;0.0733;-0.8896;
-194.1000;0.0741;-0.8829;
-193.8000;0.0790;-0.8696;
-193.5000;0.0741;-0.8829;
-193.2000;0.0749;-0.8741;
-192.9000;0.0741;-0.8674;
-192.6000;0.0724;-0.8741;
-192.3000;0.0724;-0.8696;
-192.0000;0.0741;-0.8630;
-191.7000;0.0749;-0.8541;
-191.4000;0.0716;-0.8652;
-191.1000;0.0741;-0.8674;
-190.8000;0.0749;-0.8696;
-190.5000;0.0749;-0.8652;
-190.2000;0.0765;-0.8541;
-189.9000;0.0733;-0.8696;
-189.6000;0.0741;-0.8652;
-189.3000;0.0724;-0.8630;
-189.0000;0.0716;-0.8652;
-188.7000;0.0724;-0.8630;
-188.4000;0.0724;-0.8630;
-188.1000;0.0741;-0.8630;
-187.8000;0.0790;-0.8541;
-187.5000;0.0757;-0.8564;
-187.2000;0.0741;-0.8608;
-186.9000;0.0733;-0.8586;
-186.6000;0.0700;-0.8630;
-186.3000;0.0733;-0.8608;
-186.0000;0.0733;-0.8630;
-185.7000;0.0724;-0.8696;
-185.4000;0.0724;-0.8674;
-185.1000;0.0749;-0.8608;
-184.8000;0.0781;-0.8519;
-184.5000;0.0741;-0.8652;
-184.2000;0.0757;-0.8586;
-183.9000;0.0741;-0.8586;
-183.6000;0.0676;-0.8763;
-183.3000;0.0643;-0.8829;
-183.0000;0.0741;-0.8519;
-182.7000;0.0749;-0.8475;
-182.4000;0.0659;-0.8674;
-182.1000;0.0651;-0.8763;
-181.8000;0.0757;-0.8497;
-181.5000;0.0806;-0.8409;
-181.2000;0.0700;-0.8696;
-180.9000;0.0733;-0.8475;
-180.6000;0.0749;-0.8453;
-180.3000;0.0757;-0.8475;
-180.0000;0.0733;-0.8497;
-179.7000;0.0749;-0.8497;
-179.4000;0.0733;-0.8541;
-179.1000;0.0733;-0.8541;
-178.8000;0.0749;-0.8475;
-178.5000;0.0741;-0.8541;
-178.2000;0.0741;-0.8453;
-177.9000;0.0757;-0.8409;
-177.6000;0.0765;-0.8409;
-177.3000;0.0716;-0.8564;
-177.0000;0.0749;-0.8475;
-176.7000;0.0757;-0.8497;
-176.4000;0.0757;-0.8541;
-176.1000;0.0724;-0.8608;
-175.8000;0.0741;-0.8541;
-175.5000;0.0749;-0.8519;
-175.2000;0.0814;-0.8320;
-174.9000;0.0741;-0.8453;
-174.6000;0.0741;-0.8364;
-174.3000;0.0798;-0.8254;
-174.0000;0.0733;-0.8453;
-173.7000;0.0765;-0.8364;
-173.4000;0.0741;-0.8453;
-173.1000;0.0757;-0.8453;
-172.8000;0.0716;-0.8608;
-172.5000;0.0627;-0.8873;
-172.2000;0.0749;-0.8674;
-171.9000;0.0749;-0.8630;
-171.6000;0.0700;-0.8763;
-171.3000;0.0741;-0.8674;
-171.0000;0.0749;-0.8608;
-170.7000;0.0749;-0.8608;
-170.4000;0.0741;-0.8541;
-170.1000;0.0879;-0.8232;
-169.8000;0.0757;-0.8630;
-169.5000;0.0749;-0.8718;
-169.2000;0.0741;-0.8741;
-168.9000;0.0749;-0.8674;
-168.6000;0.0602;-0.8918;
-168.3000;0.0733;-0.8564;
-168.0000;0.0749;-0.8519;
-167.7000;0.0741;-0.8564;
-167.4000;0.0741;-0.8519;
-167.1000;0.0741;-0.8564;
-166.8000;0.0741;-0.8497;
-166.5000;0.0659;-0.8741;
-166.2000;0.0757;-0.8431;
-165.9000;0.0716;-0.8541;
-165.6000;0.0741;-0.8475;
-165.3000;0.0757;-0.8409;
-165.0000;0.0749;-0.8475;
-164.7000;0.0781;-0.8409;
-164.4000;0.0773;-0.8541;
-164.1000;0.0741;-0.8718;
-163.8000;0.0733;-0.8763;
-163.5000;0.0749;-0.8763;
-163.2000;0.0757;-0.8674;
-162.9000;0.0667;-0.8851;
-162.6000;0.0749;-0.8718;
-162.3000;0.0749;-0.8741;
-162.0000;0.0757;-0.8718;
-161.7000;0.0749;-0.8741;
-161.4000;0.0724;-0.8696;
-161.1000;0.0749;-0.8696;
-160.8000;0.0733;-0.8741;
-160.5000;0.0749;-0.8763;
-160.2000;0.0741;-0.8763;
-159.9000;0.0716;-0.8763;
-159.6000;0.0749;-0.8696;
-159.3000;0.0798;-0.8497;
-159.0000;0.0814;-0.8497;
-158.7000;0.0724;-0.8718;
-158.4000;0.0733;-0.8674;
-158.1000;0.0733;-0.8807;
-157.8000;0.0806;-0.8608;
-157.5000;0.0765;-0.8674;
-157.2000;0.0724;-0.8785;
-156.9000;0.0757;-0.8696;
-156.6000;0.0757;-0.8718;
-156.3000;0.0619;-0.9050;
-156.0000;0.0716;-0.8873;
-155.7000;0.0700;-0.8918;
-155.4000;0.0741;-0.8763;
-155.1000;0.0757;-0.8718;
-154.8000;0.0741;-0.8763;
-154.5000;0.0684;-0.8896;
-154.2000;0.0749;-0.8696;
-153.9000;0.0733;-0.8718;
-153.6000;0.0733;-0.8696;
-153.3000;0.0611;-0.8962;
-153.0000;0.0724;-0.8608;
-152.7000;0.0724;-0.8586;
-152.4000;0.0716;-0.8608;
-152.1000;0.0757;-0.8608;
-151.8000;0.0749;-0.8630;
-151.5000;0.0724;-0.8630;
-151.2000;0.0757;-0.8586;
-150.9000;0.0749;-0.8630;
-150.6000;0.0757;-0.8541;
-150.3000;0.0716;-0.8564;
-150.0000;0.0724;-0.8497;
-149.7000;0.0708;-0.8541;
-149.4000;0.0741;-0.8519;
-149.1000;0.0708;-0.8696;
-148.8000;0.0724;-0.8785;
-148.5000;0.0757;-0.8674;
-148.2000;0.0757;-0.8519;
-147.9000;0.0708;-0.8586;
-147.6000;0.0757;-0.8630;
-147.3000;0.0765;-0.8674;
-147.0000;0.0757;-0.8674;
-146.7000;0.0716;-0.8608;
-146.4000;0.0724;-0.8564;
-146.1000;0.0724;-0.8630;
-145.8000;0.0749;-0.8541;
-145.5000;0.0733;-0.8630;
-145.2000;0.0749;-0.8564;
-144.9000;0.0733;-0.8586;
-144.6000;0.0716;-0.8564;
-144.3000;0.0724;-0.8564;
-144.0000;0.0741;-0.8475;
-143.7000;0.0798;-0.8254;
-143.4000;0.0749;-0.8409;
-143.1000;0.0749;-0.8497;
-142.8000;0.0733;-0.8475;
-142.5000;0.0741;-0.8475;
-142.2000;0.0765;-0.8475;
-141.9000;0.0757;-0.8453;
-141.6000;0.0700;-0.8630;
-141.3000;0.0733;-0.8608;
-141.0000;0.0749;-0.8541;
-140.7000;0.0676;-0.8674;
-140.4000;0.0708;-0.8586;
-140.1000;0.0749;-0.8453;
-139.8000;0.0733;-0.8497;
-139.5000;0.0781;-0.8475;
-139.2000;0.0724;-0.8541;
-138.9000;0.0733;-0.8564;
-138.6000;0.0741;-0.8564;
-138.3000;0.0757;-0.8497;
-138.0000;0.0716;-0.8630;
-137.7000;0.0749;-0.8519;
-137.4000;0.0733;-0.8475;
-137.1000;0.0781;-0.8276;
-136.8000;0.0741;-0.8364;
-136.5000;0.0716;-0.8475;
-136.2000;0.0806;-0.8276;
-135.9000;0.0716;-0.8519;
-135.6000;0.0741;-0.8475;
-135.3000;0.0716;-0.8541;
-135.0000;0.0724;-0.8608;
-134.7000;0.0765;-0.8497;
-134.4000;0.0733;-0.8497;
-134.1000;0.0749;-0.8453;
-133.8000;0.0724;-0.8431;
-133.5000;0.0700;-0.8497;
-133.2000;0.0733;-0.8475;
-132.9000;0.0741;-0.8431;
-132.6000;0.0741;-0.8409;
-132.3000;0.0724;-0.8475;
-132.0000;0.0749;-0.8475;
-131.7000;0.0749;-0.8519;
-131.4000;0.0716;-0.8652;
-131.1000;0.0749;-0.8608;
-130.8000;0.0741;-0.8652;
-130.5000;0.0806;-0.8409;
-130.2000;0.0749;-0.8586;
-129.9000;0.0733;-0.8630;
-129.6000;0.0733;-0.8586;
-129.3000;0.0765;-0.8541;
-129.0000;0.0667;-0.8851;
-128.7000;0.0724;-0.8674;
-128.4000;0.0757;-0.8586;
-128.1000;0.0733;-0.8630;
-127.8000;0.0749;-0.8586;
-127.5000;0.0741;-0.8652;
-127.2000;0.0635;-0.8896;
-126.9000;0.0749;-0.8608;
-126.6000;0.0749;-0.8630;
-126.3000;0.0733;-0.8696;
-126.0000;0.0749;-0.8630;
-125.7000;0.0708;-0.8718;
-125.4000;0.0733;-0.8674;
-125.1000;0.0733;-0.8674;
-124.8000;0.0724;-0.8674;
-124.5000;0.0716;-0.8608;
-124.2000;0.0733;-0.8586;
-123.9000;0.0757;-0.8497;
-123.6000;0.0733;-0.8497;
-123.3000;0.0700;-0.8497;
-123.0000;0.0749;-0.8387;
-122.7000;0.0798;-0.8276;
-122.4000;0.0895;-0.8077;
-122.1000;0.0765;-0.8431;
-121.8000;0.0684;-0.8718;
-121.5000;0.0692;-0.8763;
-121.2000;0.0684;-0.8785;
-120.9000;0.0733;-0.8652;
-120.6000;0.0741;-0.8564;
-120.3000;0.0749;-0.8586;
-120.0000;0.0724;-0.8630;
-119.7000;0.0692;-0.8674;
-119.4000;0.0773;-0.8475;
-119.1000;0.0741;-0.8541;
-118.8000;0.0700;-0.8696;
-118.5000;0.0733;-0.8519;
-118.2000;0.0733;-0.8541;
-117.9000;0.0733;-0.8519;
-117.6000;0.0733;-0.8519;
-117.3000;0.0724;-0.8541;
-117.0000;0.0733;-0.8475;
-116.7000;0.0757;-0.8364;
-116.4000;0.0667;-0.8564;
-116.1000;0.0749;-0.8453;
-115.8000;0.0708;-0.8519;
-115.5000;0.0741;-0.8519;
-115.2000;0.0757;-0.8475;
-114.9000;0.0733;-0.8564;
-114.6000;0.0741;-0.8652;
-114.3000;0.0733;-0.8674;
-114.0000;0.0741;-0.8630;
-113.7000;0.0724;-0.8652;
-113.4000;0.0749;-0.8608;
-113.1000;0.0822;-0.8431;
-112.8000;0.0676;-0.8829;
-112.5000;0.0733;-0.8608;
-112.2000;0.0749;-0.8564;
-111.9000;0.0741;-0.8696;
-111.6000;0.0741;-0.8652;
-111.3000;0.0733;-0.8763;
-111.0000;0.0708;-0.8807;
-110.7000;0.0741;-0.8674;
-110.4000;0.0724;-0.8674;
-110.1000;0.0724;-0.8652;
-109.8000;0.0765;-0.8541;
-109.5000;0.0741;-0.8586;
-109.2000;0.0733;-0.8608;
-108.9000;0.0741;-0.8630;
-108.6000;0.0765;-0.8586;
-108.3000;0.0765;-0.8564;
-108.0000;0.0741;-0.8630;
-107.7000;0.0757;-0.8652;
-107.4000;0.0790;-0.8608;
-107.1000;0.0749;-0.8718;
-106.8000;0.0830;-0.8497;
-106.5000;0.0757;-0.8652;
-106.2000;0.0773;-0.8608;
-105.9000;0.0733;-0.8741;
-105.6000;0.0611;-0.8984;
-105.3000;0.0838;-0.8387;
-105.0000;0.0781;-0.8541;
-104.7000;0.0724;-0.8652;
-104.4000;0.0692;-0.8873;
-104.1000;0.0741;-0.8630;
-103.8000;0.0757;-0.8541;
-103.5000;0.0724;-0.8608;
-103.2000;0.0749;-0.8519;
-102.9000;0.0733;-0.8608;
-102.6000;0.0733;-0.8564;
-102.3000;0.0757;-0.8475;
-102.0000;0.0741;-0.8519;
-101.7000;0.0749;-0.8453;
-101.4000;0.0716;-0.8431;
-101.1000;0.0749;-0.8320;
-100.8000;0.0733;-0.8453;
-100.5000;0.0708;-0.8564;
-100.2000;0.0741;-0.8475;
-99.9000;0.0741;-0.8431;
-99.6000;0.0724;-0.8497;
-99.3000;0.0757;-0.8475;
-99.0000;0.0749;-0.8475;
-98.7000;0.0741;-0.8541;
-98.4000;0.0749;-0.8541;
-98.1000;0.0741;-0.8475;
-97.8000;0.0741;-0.8541;
-97.5000;0.0741;-0.8431;
-97.2000;0.0724;-0.8409;
-96.9000;0.0733;-0.8431;
-96.6000;0.0741;-0.8387;
-96.3000;0.0749;-0.8541;
-96.0000;0.0749;-0.8564;
-95.7000;0.0757;-0.8519;
-95.4000;0.0724;-0.8718;
-95.1000;0.0757;-0.8674;
-94.8000;0.0749;-0.8630;
-94.5000;0.0765;-0.8497;
-94.2000;0.0749;-0.8453;
-93.9000;0.0749;-0.8431;
-93.6000;0.0765;-0.8364;
-93.3000;0.0749;-0.8453;
-93.0000;0.0741;-0.8453;
-92.7000;0.0814;-0.8298;
-92.4000;0.0749;-0.8497;
-92.1000;0.0733;-0.8453;
-91.8000;0.0749;-0.8431;
-91.5000;0.0757;-0.8409;
-91.2000;0.0749;-0.8409;
-90.9000;0.0741;-0.8387;
-90.6000;0.0733;-0.8409;
-90.3000;0.0749;-0.8364;
-90.0000;0.0749;-0.8453;
-89.7000;0.0757;-0.8364;
-89.4000;0.0692;-0.8497;
-89.1000;0.0806;-0.8187;
-88.8000;0.0757;-0.8298;
-88.5000;0.0749;-0.8320;
-88.2000;0.0741;-0.8342;
-87.9000;0.0708;-0.8431;
-87.6000;0.0700;-0.8453;
-87.3000;0.0765;-0.8387;
-87.0000;0.0733;-0.8453;
-86.7000;0.0741;-0.8387;
-86.4000;0.0724;-0.8342;
-86.1000;0.0741;-0.8364;
-85.8000;0.0692;-0.8497;
-85.5000;0.0741;-0.8409;
-85.2000;0.0733;-0.8364;
-84.9000;0.0716;-0.8497;
-84.6000;0.0724;-0.8564;
-84.3000;0.0741;-0.8453;
-84.0000;0.0724;-0.8453;
-83.7000;0.0733;-0.8387;
-83.4000;0.0733;-0.8453;
-83.1000;0.0741;-0.8431;
-82.8000;0.0741;-0.8364;
-82.5000;0.0822;-0.8187;
-82.2000;0.0733;-0.8475;
-81.9000;0.0741;-0.8387;
-81.6000;0.0749;-0.8387;
-81.3000;0.0733;-0.8409;
-81.0000;0.0733;-0.8298;
-80.7000;0.0798;-0.8121;
-80.4000;0.0684;-0.8497;
-80.1000;0.0733;-0.8431;
-79.8000;0.0749;-0.8364;
-79.5000;0.0765;-0.8342;
-79.2000;0.0676;-0.8586;
-78.9000;0.0741;-0.8497;
-78.6000;0.0716;-0.8541;
-78.3000;0.0708;-0.8541;
-78.0000;0.0741;-0.8387;
-77.7000;0.0708;-0.8431;
-77.4000;0.0781;-0.8276;
-77.1000;0.0749;-0.8387;
-76.8000;0.0741;-0.8342;
-76.5000;0.0741;-0.8320;
-76.2000;0.0741;-0.8387;
-75.9000;0.0733;-0.8497;
-75.6000;0.0741;-0.8475;
-75.3000;0.0724;-0.8431;
-75.0000;0.0733;-0.8387;
-74.7000;0.0749;-0.8320;
-74.4000;0.0724;-0.8409;
-74.1000;0.0733;-0.8387;
-73.8000;0.0749;-0.8387;
-73.5000;0.0741;-0.8431;
-73.2000;0.0749;-0.8453;
-72.9000;0.0741;-0.8453;
-72.6000;0.0741;-0.8409;
-72.3000;0.0741;-0.8453;
-72.0000;0.0749;-0.8320;
-71.7000;0.0716;-0.8409;
-71.4000;0.0733;-0.8342;
-71.1000;0.0781;-0.8298;
-70.8000;0.0724;-0.8409;
-70.5000;0.0716;-0.8431;
-70.2000;0.0733;-0.8387;
-69.9000;0.0757;-0.8298;
-69.6000;0.0781;-0.8276;
-69.3000;0.0814;-0.8254;
-69.0000;0.0716;-0.8519;
-68.7000;0.0716;-0.8564;
-68.4000;0.0749;-0.8519;
-68.1000;0.0757;-0.8453;
-67.8000;0.0749;-0.8409;
-67.5000;0.0741;-0.8387;
-67.2000;0.0749;-0.8320;
-66.9000;0.0741;-0.8364;
-66.6000;0.0749;-0.8431;
-66.3000;0.0830;-0.8254;
-66.0000;0.0733;-0.8541;
-65.7000;0.0781;-0.8497;
-65.4000;0.0724;-0.8564;
-65.1000;0.0733;-0.8630;
-64.8000;0.0733;-0.8630;
-64.5000;0.0757;-0.8564;
-64.2000;0.0708;-0.8541;
-63.9000;0.0733;-0.8586;
-63.6000;0.0684;-0.8741;
-63.3000;0.0724;-0.8630;
-63.0000;0.0741;-0.8519;
-62.7000;0.0667;-0.8674;
-62.4000;0.0724;-0.8519;
-62.1000;0.0724;-0.8564;
-61.8000;0.0708;-0.8608;
-61.5000;0.0765;-0.8475;
-61.2000;0.0749;-0.8475;
-60.9000;0.0765;-0.8431;
-60.6000;0.0741;-0.8541;
-60.3000;0.0749;-0.8630;
-60.0000;0.0716;-0.8652;
-59.7000;0.0724;-0.8696;
-59.4000;0.0741;-0.8630;
-59.1000;0.0741;-0.8652;
-58.8000;0.0724;-0.8652;
-58.5000;0.0724;-0.8652;
-58.2000;0.0879;-0.8232;
-57.9000;0.0749;-0.8519;
-57.6000;0.0798;-0.8409;
-57.3000;0.0765;-0.8519;
-57.0000;0.0749;-0.8564;
-56.7000;0.0749;-0.8497;
-56.4000;0.0741;-0.8497;
-56.1000;0.0765;-0.8409;
-55.8000;0.0741;-0.8453;
-55.5000;0.0733;-0.8541;
-55.2000;0.0749;-0.8564;
-54.9000;0.0749;-0.8541;
-54.6000;0.0749;-0.8541;
-54.3000;0.0708;-0.8741;
-54.0000;0.0733;-0.8630;
-53.7000;0.0724;-0.8652;
-53.4000;0.0733;-0.8608;
-53.1000;0.0741;-0.8541;
-52.8000;0.0757;-0.8497;
-52.5000;0.0749;-0.8497;
-52.2000;0.0741;-0.8431;
-51.9000;0.0806;-0.8254;
-51.6000;0.0733;-0.8364;
-51.3000;0.0667;-0.8652;
-51.0000;0.0733;-0.8564;
-50.7000;0.0749;-0.8497;
-50.4000;0.0724;-0.8564;
-50.1000;0.0708;-0.8630;
-49.8000;0.0781;-0.8431;
-49.5000;0.0741;-0.8674;
-49.2000;0.0741;-0.8652;
-48.9000;0.0765;-0.8763;
-48.6000;0.0741;-0.8807;
-48.3000;0.0741;-0.8829;
-48.0000;0.0659;-0.8873;
-47.7000;0.0757;-0.8652;
-47.4000;0.0733;-0.8652;
-47.1000;0.0716;-0.8696;
-46.8000;0.0741;-0.8608;
-46.5000;0.0773;-0.8586;
-46.2000;0.0716;-0.8696;
-45.9000;0.0806;-0.8497;
-45.6000;0.0749;-0.8652;
-45.3000;0.0741;-0.8564;
-45.0000;0.0741;-0.8541;
-44.7000;0.0708;-0.8652;
-44.4000;0.0724;-0.8564;
-44.1000;0.0741;-0.8541;
-43.8000;0.0757;-0.8497;
-43.5000;0.0733;-0.8541;
-43.2000;0.0781;-0.8431;
-42.9000;0.0741;-0.8541;
-42.6000;0.0733;-0.8497;
-42.3000;0.0749;-0.8431;
-42.0000;0.0749;-0.8475;
-41.7000;0.0879;-0.8210;
-41.4000;0.0741;-0.8541;
-41.1000;0.0765;-0.8541;
-40.8000;0.0757;-0.8564;
-40.5000;0.0757;-0.8564;
-40.2000;0.0724;-0.8652;
-39.9000;0.0741;-0.8608;
-39.6000;0.0741;-0.8630;
-39.3000;0.0757;-0.8630;
-39.0000;0.0724;-0.8696;
-38.7000;0.0627;-0.8962;
-38.4000;0.0733;-0.8718;
-38.1000;0.0716;-0.8763;
-37.8000;0.0749;-0.8696;
-37.5000;0.0790;-0.8519;
-37.2000;0.0741;-0.8630;
-36.9000;0.0733;-0.8608;
-36.6000;0.0733;-0.8630;
-36.3000;0.0773;-0.8541;
-36.0000;0.0724;-0.8696;
-35.7000;0.0749;-0.8652;
-35.4000;0.0716;-0.8718;
-35.1000;0.0741;-0.8586;
-34.8000;0.0733;-0.8586;
-34.5000;0.0749;-0.8519;
-34.2000;0.0741;-0.8519;
-33.9000;0.0733;-0.8519;
-33.6000;0.0741;-0.8475;
-33.3000;0.0741;-0.8541;
-33.0000;0.0749;-0.8541;
-32.7000;0.0700;-0.8674;
-32.4000;0.0765;-0.8475;
-32.1000;0.0651;-0.8785;
-31.8000;0.0749;-0.8497;
-31.5000;0.0773;-0.8409;
-31.2000;0.0757;-0.8475;
-30.9000;0.0741;-0.8453;
-30.6000;0.0790;-0.8387;
-30.3000;0.0765;-0.8475;
-30.0000;0.0749;-0.8453;
-29.7000;0.0724;-0.8431;
-29.4000;0.0757;-0.8409;
-29.1000;0.0765;-0.8453;
-28.8000;0.0741;-0.8586;
-28.5000;0.0741;-0.8541;
-28.2000;0.0806;-0.8387;
-27.9000;0.0765;-0.8630;
-27.6000;0.0651;-0.9050;
-27.3000;0.0749;-0.8896;
-27.0000;0.0700;-0.8940;
-26.7000;0.0700;-0.8807;
-26.4000;0.0830;-0.8475;
-26.1000;0.0757;-0.8718;
-25.8000;0.0838;-0.8519;
-25.5000;0.0733;-0.8763;
-25.2000;0.0749;-0.8674;
-24.9000;0.0733;-0.8652;
-24.6000;0.0790;-0.8541;
-24.3000;0.0733;-0.8630;
-24.0000;0.0757;-0.8586;
-23.7000;0.0749;-0.8586;
-23.4000;0.0781;-0.8586;
-23.1000;0.0700;-0.8807;
-22.8000;0.0757;-0.8630;
-22.5000;0.0741;-0.8497;
-22.2000;0.0643;-0.8696;
-21.9000;0.0806;-0.8210;
-21.6000;0.0765;-0.8254;
-21.3000;0.0757;-0.8364;
-21.0000;0.0724;-0.8475;
-20.7000;0.0741;-0.8497;
-20.4000;0.0716;-0.8630;
-20.1000;0.0733;-0.8674;
-19.8000;0.0733;-0.8630;
-19.5000;0.0741;-0.8541;
-19.2000;0.0741;-0.8519;
-18.9000;0.0733;-0.8541;
-18.6000;0.0757;-0.8475;
-18.3000;0.0741;-0.8497;
-18.0000;0.0741;-0.8541;
-17.7000;0.0749;-0.8497;
-17.4000;0.0733;-0.8564;
-17.1000;0.0749;-0.8409;
-16.8000;0.0773;-0.8276;
-16.5000;0.0741;-0.8342;
-16.2000;0.0733;-0.8387;
-15.9000;0.0749;-0.8342;
-15.6000;0.0700;-0.8342;
-15.3000;0.0749;-0.8320;
-15.0000;0.0733;-0.8431;
-14.7000;0.0790;-0.8232;
-14.4000;0.0733;-0.8387;
-14.1000;0.0724;-0.8519;
-13.8000;0.0749;-0.8475;
-13.5000;0.0781;-0.8320;
-13.2000;0.0765;-0.8431;
-12.9000;0.0741;-0.8586;
-12.6000;0.0733;-0.8497;
-12.3000;0.0790;-0.8387;
-12.0000;0.0765;-0.8409;
-11.7000;0.0741;-0.8541;
-11.4000;0.0757;-0.8475;
-11.1000;0.0765;-0.8431;
-10.8000;0.0749;-0.8431;
-10.5000;0.0741;-0.8453;
-10.2000;0.0749;-0.8364;
-9.9000;0.0724;-0.8409;
-9.6000;0.0741;-0.8364;
-9.3000;0.0781;-0.8276;
-9.0000;0.0741;-0.8431;
-8.7000;0.0790;-0.8232;
-8.4000;0.0733;-0.8409;
-8.1000;0.0790;-0.8254;
-7.8000;0.0765;-0.8298;
-7.5000;0.0773;-0.8298;
-7.2000;0.0667;-0.8630;
-6.9000;0.0716;-0.8431;
-6.6000;0.0724;-0.8497;
-6.3000;0.0749;-0.8387;
-6.0000;0.0733;-0.8342;
-5.7000;0.0724;-0.8431;
-5.4000;0.0667;-0.8564;
-5.1000;0.0749;-0.8298;
-4.8000;0.0733;-0.8320;
-4.5000;0.0716;-0.8387;
-4.2000;0.0741;-0.8320;
-3.9000;0.0741;-0.8276;
-3.6000;0.0781;-0.8210;
-3.3000;0.0684;-0.8453;
-3.0000;0.0724;-0.8387;
-2.7000;0.0733;-0.8431;
-2.4000;0.0830;-0.8165;
-2.1000;0.0757;-0.8475;
-1.8000;0.0741;-0.8541;
-1.5000;0.0781;-0.8475;
-1.2000;0.0741;-0.8497;
-0.9000;0.0684;-0.8630;
-0.6000;0.0773;-0.8497;
-0.3000;0.0781;-0.8497;
0.0000;0.0781;-0.8497;
0.3000;0.0733;-0.8962;
0.6000;0.0781;-0.8608;
0.9000;0.0749;-0.8431;
1.2000;0.0773;-0.8298;
1.5000;0.0814;-0.8099;
1.8000;0.0822;-0.7966;
2.1000;0.0822;-0.7900;
2.4000;0.0830;-0.7811;
2.7000;0.0847;-0.7678;
3.0000;0.0830;-0.7701;
3.3000;0.0838;-0.7612;
3.6000;0.0838;-0.7524;
3.9000;0.0765;-0.7701;
4.2000;0.0863;-0.7479;
4.5000;0.0838;-0.7501;
4.8000;0.0855;-0.7413;
5.1000;0.0879;-0.7280;
5.4000;0.0838;-0.7435;
5.7000;0.0863;-0.7435;
6.0000;0.0928;-0.7236;
6.3000;0.0757;-0.7568;
6.6000;0.0806;-0.7501;
6.9000;0.0871;-0.7347;
7.2000;0.0838;-0.7391;
7.5000;0.0863;-0.7347;
7.8000;0.0912;-0.7236;
8.1000;0.0838;-0.7369;
8.4000;0.0847;-0.7236;
8.7000;0.0830;-0.7391;
9.0000;0.0855;-0.7369;
9.3000;0.0863;-0.7413;
9.6000;0.0871;-0.7391;
9.9000;0.0871;-0.7457;
10.2000;0.0855;-0.7479;
10.5000;0.0936;-0.7258;
10.8000;0.0855;-0.7524;
11.1000;0.0863;-0.7501;
11.4000;0.0847;-0.7479;
11.7000;0.0879;-0.7413;
12.0000;0.0847;-0.7457;
12.3000;0.0985;-0.7170;
12.6000;0.0863;-0.7524;
12.9000;0.0879;-0.7413;
13.2000;0.0871;-0.7391;
13.5000;0.0863;-0.7369;
13.8000;0.0879;-0.7258;
14.1000;0.0847;-0.7324;
14.4000;0.0904;-0.7302;
14.7000;0.0871;-0.7302;
15.0000;0.0871;-0.7457;
15.3000;0.0936;-0.7280;
15.6000;0.0847;-0.7546;
15.9000;0.0904;-0.7435;
16.2000;0.0871;-0.7457;
16.5000;0.0887;-0.7457;
16.8000;0.0847;-0.7457;
17.1000;0.0822;-0.7524;
17.4000;0.0855;-0.7479;
17.7000;0.0863;-0.7501;
18.0000;0.0879;-0.7369;
18.3000;0.0830;-0.7435;
18.6000;0.0741;-0.7656;
18.9000;0.0863;-0.7324;
19.2000;0.0863;-0.7258;
19.5000;0.0863;-0.7280;
19.8000;0.0863;-0.7214;
20.1000;0.0855;-0.7258;
20.4000;0.0855;-0.7280;
20.7000;0.0765;-0.7568;
21.0000;0.0830;-0.7369;
21.3000;0.0757;-0.7546;
21.6000;0.0847;-0.7413;
21.9000;0.0863;-0.7347;
22.2000;0.0863;-0.7280;
22.5000;0.0887;-0.7236;
22.8000;0.0855;-0.7280;
23.1000;0.0871;-0.7280;
23.4000;0.0887;-0.7214;
23.7000;0.0855;-0.7391;
24.0000;0.0863;-0.7391;
24.3000;0.0871;-0.7280;
24.6000;0.0879;-0.7280;
24.9000;0.0847;-0.7391;
25.2000;0.0855;-0.7347;
25.5000;0.0871;-0.7280;
25.8000;0.0879;-0.7302;
26.1000;0.0855;-0.7324;
26.4000;0.0887;-0.7302;
26.7000;0.0838;-0.7347;
27.0000;0.0863;-0.7170;
27.3000;0.0790;-0.7280;
27.6000;0.0879;-0.7081;
27.9000;0.0871;-0.7125;
28.2000;0.0879;-0.7214;
28.5000;0.0895;-0.7170;
28.8000;0.0855;-0.7236;
29.1000;0.0895;-0.7214;
29.4000;0.0912;-0.7192;
29.7000;0.0863;-0.7236;
30.0000;0.0855;-0.7302;
30.3000;0.0814;-0.7413;
30.6000;0.0904;-0.7236;
30.9000;0.0871;-0.7302;
31.2000;0.0879;-0.7258;
31.5000;0.0733;-0.7656;
31.8000;0.0895;-0.7347;
32.1000;0.0887;-0.7413;
32.4000;0.0887;-0.7347;
32.7000;0.0887;-0.7369;
33.0000;0.0879;-0.7413;
33.3000;0.0790;-0.7568;
33.6000;0.0855;-0.7391;
33.9000;0.0863;-0.7369;
34.2000;0.0863;-0.7324;
34.5000;0.0871;-0.7413;
34.8000;0.0863;-0.7457;
35.1000;0.0847;-0.7590;
35.4000;0.0887;-0.7413;
35.7000;0.0887;-0.7391;
36.0000;0.0871;-0.7501;
36.3000;0.0871;-0.7546;
36.6000;0.0855;-0.7546;
36.9000;0.0871;-0.7457;
37.2000;0.0887;-0.7479;
37.5000;0.0887;-0.7435;
37.8000;0.0765;-0.7634;
38.1000;0.0904;-0.7369;
38.4000;0.0904;-0.7369;
38.7000;0.0798;-0.7634;
39.0000;0.0871;-0.7391;
39.3000;0.0863;-0.7413;
39.6000;0.0879;-0.7457;
39.9000;0.0895;-0.7479;
40.2000;0.0871;-0.7524;
40.5000;0.0944;-0.7369;
40.8000;0.0879;-0.7501;
41.1000;0.0847;-0.7457;
41.4000;0.0863;-0.7457;
41.7000;0.0871;-0.7324;
42.0000;0.0887;-0.7280;
42.3000;0.0798;-0.7457;
42.6000;0.0798;-0.7501;
42.9000;0.0871;-0.7391;
43.2000;0.0879;-0.7435;
43.5000;0.1026;-0.7081;
43.8000;0.0912;-0.7391;
44.1000;0.0871;-0.7524;
44.4000;0.0879;-0.7524;
44.7000;0.0790;-0.7634;
45.0000;0.0871;-0.7546;
45.3000;0.0887;-0.7479;
45.6000;0.0895;-0.7435;
45.9000;0.0887;-0.7435;
46.2000;0.0879;-0.7457;
46.5000;0.0912;-0.7347;
46.8000;0.0879;-0.7457;
47.1000;0.0879;-0.7568;
47.4000;0.0887;-0.7568;
47.7000;0.0887;-0.7568;
48.0000;0.0895;-0.7435;
48.3000;0.0895;-0.7413;
48.6000;0.0895;-0.7413;
48.9000;0.0895;-0.7435;
49.2000;0.0879;-0.7347;
49.5000;0.0887;-0.7324;
49.8000;0.0863;-0.7324;
50.1000;0.0855;-0.7302;
50.4000;0.0871;-0.7302;
50.7000;0.0863;-0.7369;
51.0000;0.0879;-0.7391;
51.3000;0.0887;-0.7435;
51.6000;0.0887;-0.7435;
51.9000;0.0895;-0.7391;
52.2000;0.0879;-0.7479;
52.5000;0.0871;-0.7524;
52.8000;0.0855;-0.7546;
53.1000;0.0871;-0.7435;
53.4000;0.0879;-0.7413;
53.7000;0.0871;-0.7457;
54.0000;0.0887;-0.7435;
54.3000;0.0887;-0.7391;
54.6000;0.0895;-0.7413;
54.9000;0.0887;-0.7435;
55.2000;0.0814;-0.7590;
55.5000;0.0887;-0.7479;
55.8000;0.0822;-0.7568;
56.1000;0.0879;-0.7435;
56.4000;0.0757;-0.7656;
56.7000;0.1034;-0.7037;
57.0000;0.0871;-0.7413;
57.3000;0.0879;-0.7479;
57.6000;0.0830;-0.7590;
57.9000;0.0969;-0.7258;
58.2000;0.0879;-0.7501;
58.5000;0.0895;-0.7457;
58.8000;0.0887;-0.7435;
59.1000;0.0879;-0.7347;
59.4000;0.0798;-0.7501;
59.7000;0.0855;-0.7369;
60.0000;0.0863;-0.7280;
60.3000;0.0895;-0.7192;
60.6000;0.0847;-0.7302;
60.9000;0.0879;-0.7302;
61.2000;0.0887;-0.7391;
61.5000;0.0879;-0.7369;
61.8000;0.0887;-0.7324;
62.1000;0.0887;-0.7391;
62.4000;0.0895;-0.7413;
62.7000;0.0887;-0.7501;
63.0000;0.0895;-0.7524;
63.3000;0.0904;-0.7435;
63.6000;0.0871;-0.7524;
63.9000;0.0863;-0.7568;
64.2000;0.0871;-0.7590;
64.5000;0.0879;-0.7546;
64.8000;0.0887;-0.7501;
65.1000;0.0904;-0.7457;
65.4000;0.0887;-0.7435;
65.7000;0.0855;-0.7479;
66.0000;0.0879;-0.7479;
66.3000;0.0912;-0.7391;
66.6000;0.0904;-0.7479;
66.9000;0.0895;-0.7369;
67.2000;0.0912;-0.7302;
67.5000;0.0895;-0.7302;
67.8000;0.0952;-0.7147;
68.1000;0.0928;-0.7147;
68.4000;0.0904;-0.7170;
68.7000;0.0863;-0.7435;
69.0000;0.0887;-0.7391;
69.3000;0.0887;-0.7457;
69.6000;0.0879;-0.7546;
69.9000;0.0904;-0.7457;
70.2000;0.0895;-0.7391;
70.5000;0.0936;-0.7324;
70.8000;0.0855;-0.7435;
71.1000;0.0879;-0.7413;
71.4000;0.0879;-0.7501;
71.7000;0.0895;-0.7413;
72.0000;0.0904;-0.7369;
72.3000;0.0904;-0.7280;
72.6000;0.0871;-0.7413;
72.9000;0.0879;-0.7347;
73.2000;0.0871;-0.7391;
73.5000;0.0904;-0.7369;
73.8000;0.0879;-0.7435;
74.1000;0.0912;-0.7302;
74.4000;0.0863;-0.7457;
74.7000;0.0879;-0.7479;
75.0000;0.0871;-0.7435;
75.3000;0.0895;-0.7258;
75.6000;0.0781;-0.7590;
75.9000;0.0879;-0.7501;
76.2000;0.0895;-0.7457;
76.5000;0.0879;-0.7457;
76.8000;0.0863;-0.7391;
77.1000;0.0863;-0.7391;
77.4000;0.0952;-0.7258;
77.7000;0.0904;-0.7369;
78.0000;0.0895;-0.7479;
78.3000;0.0895;-0.7479;
78.6000;0.0879;-0.7568;
78.9000;0.0879;-0.7656;
79.2000;0.0887;-0.7678;
79.5000;0.0887;-0.7590;
79.8000;0.0855;-0.7634;
80.1000;0.0863;-0.7568;
80.4000;0.0871;-0.7634;
80.7000;0.0920;-0.7546;
81.0000;0.0879;-0.7634;
81.3000;0.0879;-0.7701;
81.6000;0.0798;-0.7833;
81.9000;0.0887;-0.7612;
82.2000;0.0871;-0.7568;
82.5000;0.0936;-0.7347;
82.8000;0.0904;-0.7524;
83.1000;0.0895;-0.7435;
83.4000;0.0895;-0.7524;
83.7000;0.0871;-0.7546;
84.0000;0.0879;-0.7568;
84.3000;0.0871;-0.7546;
84.6000;0.0887;-0.7457;
84.9000;0.0871;-0.7501;
85.2000;0.0879;-0.7501;
85.5000;0.0895;-0.7435;
85.8000;0.0863;-0.7479;
86.1000;0.0879;-0.7479;
86.4000;0.0895;-0.7479;
86.7000;0.0887;-0.7546;
87.0000;0.0871;-0.7590;
87.3000;0.0871;-0.7546;
87.6000;0.0895;-0.7524;
87.9000;0.0887;-0.7546;
88.2000;0.0912;-0.7501;
88.5000;0.0879;-0.7612;
88.8000;0.0977;-0.7280;
89.1000;0.0887;-0.7479;
89.4000;0.0871;-0.7479;
89.7000;0.0765;-0.7568;
90.0000;0.0871;-0.7347;
90.3000;0.0863;-0.7324;
90.6000;0.0871;-0.7236;
90.9000;0.0871;-0.7170;
91.2000;0.0863;-0.7214;
91.5000;0.0879;-0.7192;
91.8000;0.0879;-0.7236;
92.1000;0.0871;-0.7236;
92.4000;0.0879;-0.7258;
92.7000;0.0912;-0.7214;
93.0000;0.0855;-0.7302;
93.3000;0.0895;-0.7258;
93.6000;0.0838;-0.7479;
93.9000;0.0887;-0.7391;
94.2000;0.0895;-0.7369;
94.5000;0.0863;-0.7391;
94.8000;0.0847;-0.7435;
95.1000;0.0895;-0.7324;
95.4000;0.0904;-0.7413;
95.7000;0.0879;-0.7457;
96.0000;0.0871;-0.7457;
96.3000;0.0863;-0.7457;
96.6000;0.0887;-0.7302;
96.9000;0.0798;-0.7501;
97.2000;0.0887;-0.7302;
97.5000;0.0895;-0.7324;
97.8000;0.0912;-0.7280;
98.1000;0.0879;-0.7324;
98.4000;0.0985;-0.7015;
98.7000;0.0863;-0.7369;
99.0000;0.0928;-0.7236;
99.3000;0.0879;-0.7435;
99.6000;0.0904;-0.7435;
99.9000;0.0895;-0.7524;
100.2000;0.0887;-0.7524;
100.5000;0.0871;-0.7524;
100.8000;0.0887;-0.7457;
101.1000;0.0879;-0.7501;
101.4000;0.0838;-0.7590;
101.7000;0.0912;-0.7457;
102.0000;0.0879;-0.7546;
102.3000;0.0781;-0.7745;
102.6000;0.0912;-0.7391;
102.9000;0.0871;-0.7501;
103.2000;0.0887;-0.7391;
103.5000;0.0928;-0.7236;
103.8000;0.0871;-0.7236;
104.1000;0.0879;-0.7236;
104.4000;0.0904;-0.7280;
104.7000;0.0912;-0.7280;
105.0000;0.0887;-0.7391;
105.3000;0.1001;-0.7147;
105.6000;0.0895;-0.7435;
105.9000;0.0887;-0.7457;
106.2000;0.0871;-0.7435;
106.5000;0.0961;-0.7170;
106.8000;0.0904;-0.7369;
107.1000;0.0871;-0.7435;
107.4000;0.0895;-0.7347;
107.7000;0.0895;-0.7391;
108.0000;0.0895;-0.7391;
108.3000;0.0887;-0.7369;
108.6000;0.0904;-0.7280;
108.9000;0.0879;-0.7258;
109.2000;0.0838;-0.7324;
109.5000;0.0912;-0.7214;
109.8000;0.0936;-0.7147;
110.1000;0.0887;-0.7302;
110.4000;0.0904;-0.7280;
110.7000;0.0920;-0.7369;
111.0000;0.0879;-0.7435;
111.3000;0.0879;-0.7457;
111.6000;0.0871;-0.7435;
111.9000;0.0863;-0.7457;
112.2000;0.0879;-0.7391;
112.5000;0.0895;-0.7347;
112.8000;0.0879;-0.7347;
113.1000;0.0879;-0.7391;
113.4000;0.0879;-0.7413;
113.7000;0.0871;-0.7435;
114.0000;0.0895;-0.7324;
114.3000;0.0863;-0.7457;
114.6000;0.0871;-0.7524;
114.9000;0.0904;-0.7413;
115.2000;0.0887;-0.7369;
115.5000;0.0871;-0.7347;
115.8000;0.0863;-0.7324;
116.1000;0.0895;-0.7302;
116.4000;0.0855;-0.7435;
116.7000;0.0920;-0.7347;
117.0000;0.0871;-0.7435;
117.3000;0.0887;-0.7369;
117.6000;0.0855;-0.7435;
117.9000;0.0912;-0.7302;
118.2000;0.0879;-0.7479;
118.5000;0.0928;-0.7501;
118.8000;0.0895;-0.7568;
119.1000;0.0773;-0.7723;
119.4000;0.0895;-0.7457;
119.7000;0.0871;-0.7391;
120.0000;0.0806;-0.7524;
120.3000;0.0912;-0.7236;
120.6000;0.0863;-0.7413;
120.9000;0.0952;-0.7280;
121.2000;0.0855;-0.7457;
121.5000;0.0879;-0.7457;
121.8000;0.0895;-0.7435;
122.1000;0.0879;-0.7435;
122.4000;0.0822;-0.7546;
122.7000;0.0871;-0.7479;
123.0000;0.0895;-0.7369;
123.3000;0.0887;-0.7435;
123.6000;0.0912;-0.7369;
123.9000;0.0887;-0.7479;
124.2000;0.0936;-0.7302;
124.5000;0.0912;-0.7324;
124.8000;0.0887;-0.7501;
125.1000;0.0887;-0.7457;
125.4000;0.0749;-0.7811;
125.7000;0.0912;-0.7457;
126.0000;0.0895;-0.7501;
126.3000;0.0806;-0.7878;
126.6000;0.0961;-0.7391;
126.9000;0.0887;-0.7501;
127.2000;0.0904;-0.7435;
127.5000;0.0904;-0.7457;
127.8000;0.0871;-0.7479;
128.1000;0.0895;-0.7347;
128.4000;0.0961;-0.7125;
128.7000;0.0871;-0.7435;
129.0000;0.0887;-0.7347;
129.3000;0.0855;-0.7479;
129.6000;0.0944;-0.7324;
129.9000;0.0961;-0.7236;
130.2000;0.0895;-0.7435;
130.5000;0.0944;-0.7302;
130.8000;0.0904;-0.7391;
131.1000;0.0887;-0.7413;
131.4000;0.0814;-0.7501;
131.7000;0.0895;-0.7369;
132.0000;0.0895;-0.7479;
132.3000;0.0912;-0.7347;
132.6000;0.0928;-0.7236;
132.9000;0.0944;-0.7214;
133.2000;0.0904;-0.7413;
133.5000;0.0887;-0.7369;
133.8000;0.0887;-0.7413;
134.1000;0.0912;-0.7369;
134.4000;0.0879;-0.7369;
134.7000;0.0928;-0.7258;
135.0000;0.0887;-0.7391;
135.3000;0.0879;-0.7369;
135.6000;0.0830;-0.7435;
135.9000;0.0830;-0.7391;
136.2000;0.0887;-0.7258;
136.5000;0.0895;-0.7236;
136.8000;0.0887;-0.7236;
137.1000;0.0912;-0.7170;
137.4000;0.0879;-0.7192;
137.7000;0.0895;-0.7236;
138.0000;0.0871;-0.7324;
138.3000;0.0887;-0.7324;
138.6000;0.0895;-0.7236;
138.9000;0.0895;-0.7302;
139.2000;0.0871;-0.7435;
139.5000;0.0887;-0.7435;
139.8000;0.0887;-0.7369;
140.1000;0.0871;-0.7391;
140.4000;0.0895;-0.7413;
140.7000;0.0879;-0.7391;
141.0000;0.0895;-0.7391;
141.3000;0.0863;-0.7369;
141.6000;0.0847;-0.7391;
141.9000;0.0887;-0.7302;
142.2000;0.0895;-0.7280;
142.5000;0.0798;-0.7501;
142.8000;0.0904;-0.7258;
143.1000;0.0879;-0.7302;
143.4000;0.0904;-0.7236;
143.7000;0.0790;-0.7568;
144.0000;0.0904;-0.7280;
144.3000;0.0879;-0.7347;
144.6000;0.0855;-0.7413;
144.9000;0.0879;-0.7324;
145.2000;0.0855;-0.7347;
145.5000;0.0757;-0.7656;
145.8000;0.0879;-0.7413;
146.1000;0.0887;-0.7391;
146.4000;0.0895;-0.7391;
146.7000;0.0887;-0.7369;
147.0000;0.0895;-0.7347;
147.3000;0.0887;-0.7302;
147.6000;0.0895;-0.7214;
147.9000;0.0895;-0.7214;
148.2000;0.0887;-0.7324;
148.5000;0.0847;-0.7435;
148.8000;0.0871;-0.7413;
149.1000;0.0887;-0.7347;
149.4000;0.0912;-0.7280;
149.7000;0.0887;-0.7391;
150.0000;0.0944;-0.7369;
150.3000;0.0895;-0.7479;
150.6000;0.0887;-0.7568;
150.9000;0.0928;-0.7568;
151.2000;0.0887;-0.7656;
151.5000;0.0887;-0.7612;
151.8000;0.0871;-0.7524;
152.1000;0.0887;-0.7435;
152.4000;0.0879;-0.7391;
152.7000;0.0814;-0.7590;
153.0000;0.0871;-0.7524;
153.3000;0.0887;-0.7501;
153.6000;0.0830;-0.7634;
153.9000;0.0904;-0.7457;
154.2000;0.0887;-0.7457;
154.5000;0.0887;-0.7524;
154.8000;0.0887;-0.7546;
155.1000;0.0879;-0.7479;
155.4000;0.0928;-0.7347;
155.7000;0.0879;-0.7524;
156.0000;0.0895;-0.7524;
156.3000;0.0879;-0.7524;
156.6000;0.0895;-0.7413;
156.9000;0.0855;-0.7501;
157.2000;0.0871;-0.7479;
157.5000;0.0847;-0.7524;
157.8000;0.0879;-0.7435;
158.1000;0.0790;-0.7656;
158.4000;0.0871;-0.7479;
158.7000;0.0887;-0.7413;
159.0000;0.0895;-0.7347;
159.3000;0.0895;-0.7369;
159.6000;0.0879;-0.7501;
159.9000;0.0781;-0.7656;
160.2000;0.0895;-0.7369;
160.5000;0.0904;-0.7258;
160.8000;0.0879;-0.7391;
161.1000;0.0822;-0.7568;
161.4000;0.0936;-0.7192;
161.7000;0.0871;-0.7347;
162.0000;0.0871;-0.7369;
162.3000;0.0912;-0.7236;
162.6000;0.0879;-0.7324;
162.9000;0.0879;-0.7347;
163.2000;0.0936;-0.7170;
163.5000;0.0887;-0.7302;
163.8000;0.0895;-0.7347;
164.1000;0.0912;-0.7302;
164.4000;0.0847;-0.7347;
164.7000;0.0904;-0.7214;
165.0000;0.0863;-0.7302;
165.3000;0.0879;-0.7324;
165.6000;0.0863;-0.7347;
165.9000;0.0822;-0.7568;
166.2000;0.0912;-0.7435;
166.5000;0.0912;-0.7391;
166.8000;0.0920;-0.7413;
167.1000;0.0887;-0.7457;
167.4000;0.0887;-0.7324;
167.7000;0.0855;-0.7369;
168.0000;0.0895;-0.7258;
168.3000;0.0895;-0.7214;
168.6000;0.0895;-0.7170;
168.9000;0.0879;-0.7192;
169.2000;0.0773;-0.7435;
169.5000;0.0879;-0.7236;
169.8000;0.0863;-0.7435;
170.1000;0.0887;-0.7501;
170.4000;0.0879;-0.7435;
170.7000;0.0904;-0.7391;
171.0000;0.0887;-0.7479;
171.3000;0.0904;-0.7435;
171.6000;0.0863;-0.7546;
171.9000;0.0895;-0.7413;
172.2000;0.0904;-0.7369;
172.5000;0.0830;-0.7546;
172.8000;0.0920;-0.7324;
173.1000;0.0895;-0.7280;
173.4000;0.0887;-0.7302;
173.7000;0.0863;-0.7391;
174.0000;0.0895;-0.7302;
174.3000;0.0879;-0.7302;
174.6000;0.0977;-0.7059;
174.9000;0.0879;-0.7280;
175.2000;0.0904;-0.7192;
175.5000;0.0977;-0.7037;
175.8000;0.0871;-0.7324;
176.1000;0.0879;-0.7369;
176.4000;0.0887;-0.7302;
176.7000;0.0887;-0.7214;
177.0000;0.0920;-0.7125;
177.3000;0.0879;-0.7258;
177.6000;0.0879;-0.7280;
177.9000;0.0887;-0.7236;
178.2000;0.0904;-0.7280;
178.5000;0.0871;-0.7391;
178.8000;0.0879;-0.7324;
179.1000;0.0904;-0.7258;
179.4000;0.0887;-0.7258;
179.7000;0.0895;-0.7324;
180.0000;0.0895;-0.7347;
180.3000;0.0863;-0.7501;
180.6000;0.0904;-0.7524;
180.9000;0.0895;-0.7590;
181.2000;0.0944;-0.7501;
181.5000;0.0863;-0.7634;
181.8000;0.0887;-0.7546;
182.1000;0.0830;-0.7701;
182.4000;0.0855;-0.7634;
182.7000;0.0887;-0.7524;
183.0000;0.0887;-0.7568;
183.3000;0.0895;-0.7568;
183.6000;0.0887;-0.7590;
183.9000;0.0863;-0.7678;
184.2000;0.0920;-0.7568;
184.5000;0.0887;-0.7612;
184.8000;0.0895;-0.7678;
185.1000;0.0879;-0.7612;
185.4000;0.0871;-0.7612;
185.7000;0.0879;-0.7590;
186.0000;0.0879;-0.7590;
186.3000;0.0871;-0.7634;
186.6000;0.0904;-0.7590;
186.9000;0.0912;-0.7568;
187.2000;0.0904;-0.7479;
187.5000;0.0887;-0.7479;
187.8000;0.0895;-0.7457;
188.1000;0.0887;-0.7501;
188.4000;0.0838;-0.7634;
188.7000;0.0871;-0.7568;
189.0000;0.0936;-0.7435;
189.3000;0.0895;-0.7524;
189.6000;0.0863;-0.7590;
189.9000;0.0814;-0.7590;
190.2000;0.0879;-0.7391;
190.5000;0.0879;-0.7435;
190.8000;0.0952;-0.7302;
191.1000;0.0871;-0.7524;
191.4000;0.0977;-0.7258;
191.7000;0.0904;-0.7457;
192.0000;0.0912;-0.7391;
192.3000;0.0895;-0.7347;
192.6000;0.0830;-0.7501;
192.9000;0.0969;-0.7059;
193.2000;0.0920;-0.7103;
193.5000;0.0887;-0.7147;
193.8000;0.0895;-0.7192;
194.1000;0.0879;-0.7236;
194.4000;0.0952;-0.7059;
194.7000;0.0871;-0.7192;
195.0000;0.0912;-0.7147;
195.3000;0.0879;-0.7125;
195.6000;0.0879;-0.7192;
195.9000;0.0904;-0.7214;
196.2000;0.0895;-0.7324;
196.5000;0.0887;-0.7347;
196.8000;0.0879;-0.7302;
197.1000;0.0928;-0.7236;
197.4000;0.0879;-0.7369;
197.7000;0.0879;-0.7324;
198.0000;0.0912;-0.7302;
198.3000;0.0895;-0.7413;
198.6000;0.0781;-0.7634;
198.9000;0.0879;-0.7391;
199.2000;0.0895;-0.7413;
199.5000;0.0855;-0.7435;
199.8000;0.0887;-0.7391;
200.1000;0.0887;-0.7413;
200.4000;0.0895;-0.7457;
200.7000;0.0879;-0.7524;
201.0000;0.0879;-0.7568;
201.3000;0.0895;-0.7568;
201.6000;0.0863;-0.7568;
201.9000;0.0904;-0.7501;
202.2000;0.0904;-0.7524;
202.5000;0.0863;-0.7678;
202.8000;0.0871;-0.7723;
203.1000;0.0912;-0.7590;
203.4000;0.1009;-0.7324;
203.7000;0.0838;-0.7656;
204.0000;0.0887;-0.7546;
204.3000;0.0895;-0.7457;
204.6000;0.0944;-0.7236;
204.9000;0.0912;-0.7302;
205.2000;0.0969;-0.7170;
205.5000;0.0871;-0.7501;
205.8000;0.0920;-0.7391;
206.1000;0.0895;-0.7391;
206.4000;0.0887;-0.7391;
206.7000;0.0879;-0.7435;
207.0000;0.0895;-0.7457;
207.3000;0.0912;-0.7457;
207.6000;0.0920;-0.7457;
207.9000;0.0912;-0.7479;
208.2000;0.0887;-0.7524;
208.5000;0.0863;-0.7612;
208.8000;0.0895;-0.7590;
209.1000;0.0904;-0.7678;
209.4000;0.0863;-0.7701;
209.7000;0.0863;-0.7656;
210.0000;0.0944;-0.7391;
210.3000;0.0863;-0.7501;
210.6000;0.0895;-0.7413;
210.9000;0.0879;-0.7369;
211.2000;0.0895;-0.7391;
211.5000;0.0895;-0.7457;
211.8000;0.0912;-0.7369;
212.1000;0.0863;-0.7457;
212.4000;0.0904;-0.7347;
212.7000;0.0879;-0.7369;
213.0000;0.0822;-0.7656;
213.3000;0.0887;-0.7546;
213.6000;0.0781;-0.7811;
213.9000;0.0895;-0.7568;
214.2000;0.0904;-0.7546;
214.5000;0.0887;-0.7634;
214.8000;0.0887;-0.7590;
215.1000;0.0904;-0.7546;
215.4000;0.0928;-0.7501;
215.7000;0.0887;-0.7634;
216.0000;0.0904;-0.7590;
216.3000;0.0912;-0.7590;
216.6000;0.0887;-0.7524;
216.9000;0.0887;-0.7568;
217.2000;0.0895;-0.7634;
217.5000;0.0904;-0.7546;
217.8000;0.0855;-0.7612;
218.1000;0.0912;-0.7413;
218.4000;0.1026;-0.7037;
218.7000;0.0895;-0.7413;
219.0000;0.0887;-0.7435;
219.3000;0.0944;-0.7258;
219.6000;0.0904;-0.7302;
219.9000;0.0895;-0.7391;
220.2000;0.0895;-0.7369;
220.5000;0.0814;-0.7590;
220.8000;0.0871;-0.7413;
221.1000;0.0895;-0.7391;
221.4000;0.0798;-0.7656;
221.7000;0.0928;-0.7391;
222.0000;0.0895;-0.7391;
222.3000;0.0928;-0.7302;
222.6000;0.0904;-0.7369;
222.9000;0.0912;-0.7369;
223.2000;0.0863;-0.7457;
223.5000;0.0814;-0.7634;
223.8000;0.0871;-0.7435;
224.1000;0.0855;-0.7524;
224.4000;0.0887;-0.7347;
224.7000;0.0887;-0.7413;
225.0000;0.0887;-0.7479;
225.3000;0.0895;-0.7457;
225.6000;0.0895;-0.7435;
225.9000;0.0912;-0.7479;
226.2000;0.0895;-0.7524;
226.5000;0.0879;-0.7612;
226.8000;0.0985;-0.7324;
227.1000;0.0904;-0.7479;
227.4000;0.0912;-0.7413;
227.7000;0.0879;-0.7435;
228.0000;0.0879;-0.7457;
228.3000;0.0904;-0.7347;
228.6000;0.0920;-0.7391;
228.9000;0.0871;-0.7524;
229.2000;0.0879;-0.7479;
229.5000;0.0879;-0.7546;
229.8000;0.0904;-0.7568;
230.1000;0.0879;-0.7634;
230.4000;0.0904;-0.7590;
230.7000;0.0887;-0.7524;
231.0000;0.0904;-0.7479;
231.3000;0.0912;-0.7435;
231.6000;0.0871;-0.7479;
231.9000;0.0895;-0.7524;
232.2000;0.0895;-0.7612;
232.5000;0.0879;-0.7590;
232.8000;0.0814;-0.7745;
233.1000;0.0912;-0.7501;
233.4000;0.0887;-0.7524;
233.7000;0.0977;-0.7170;
234.0000;0.0895;-0.7347;
234.3000;0.0879;-0.7479;
234.6000;0.0879;-0.7524;
234.9000;0.0904;-0.7568;
235.2000;0.0879;-0.7656;
235.5000;0.0912;-0.7568;
235.8000;0.0863;-0.7590;
236.1000;0.0895;-0.7524;
236.4000;0.0895;-0.7501;
236.7000;0.0904;-0.7568;
237.0000;0.0863;-0.7656;
237.3000;0.0912;-0.7634;
237.6000;0.0920;-0.7546;
237.9000;0.0920;-0.7568;
238.2000;0.0904;-0.7568;
238.5000;0.0895;-0.7612;
238.8000;0.0895;-0.7590;
239.1000;0.0887;-0.7678;
239.4000;0.0904;-0.7678;
239.7000;0.0871;-0.7767;
240.0000;0.0904;-0.7745;
240.3000;0.0887;-0.7701;
240.6000;0.0887;-0.7701;
240.9000;0.0895;-0.7723;
241.2000;0.0920;-0.7678;
241.5000;0.0920;-0.7745;
241.8000;0.0847;-0.7855;
242.1000;0.0879;-0.7723;
242.4000;0.0847;-0.7723;
242.7000;0.1058;-0.7192;
243.0000;0.0912;-0.7546;
243.3000;0.0887;-0.7612;
243.6000;0.0904;-0.7634;
243.9000;0.0912;-0.7590;
244.2000;0.0912;-0.7524;
244.5000;0.0912;-0.7501;
244.8000;0.0871;-0.7634;
245.1000;0.0871;-0.7678;
245.4000;0.0830;-0.7855;
245.7000;0.0887;-0.7767;
246.0000;0.0871;-0.7767;
246.3000;0.0838;-0.7811;
246.6000;0.0798;-0.7855;
246.9000;0.0871;-0.7701;
247.2000;0.0895;-0.7789;
247.5000;0.0814;-0.7922;
247.8000;0.0928;-0.7678;
248.1000;0.0904;-0.7701;
248.4000;0.0912;-0.7723;
248.7000;0.0904;-0.7678;
249.0000;0.0871;-0.7634;
249.3000;0.0912;-0.7546;
249.6000;0.0904;-0.7590;
249.9000;0.0895;-0.7546;
250.2000;0.0887;-0.7524;
250.5000;0.0904;-0.7457;
250.8000;0.0912;-0.7479;
251.1000;0.0879;-0.7391;
251.4000;0.0928;-0.7258;
251.7000;0.0879;-0.7302;
252.0000;0.0887;-0.7347;
252.3000;0.0887;-0.7369;
252.6000;0.0855;-0.7546;
252.9000;0.0904;-0.7524;
253.2000;0.0912;-0.7568;
253.5000;0.0887;-0.7590;
253.8000;0.0879;-0.7590;
254.1000;0.0904;-0.7546;
254.4000;0.0920;-0.7479;
254.7000;0.0920;-0.7501;
255.0000;0.0904;-0.7524;
255.3000;0.0855;-0.7656;
255.6000;0.0912;-0.7479;
255.9000;0.0920;-0.7457;
256.2000;0.0887;-0.7524;
256.5000;0.0920;-0.7413;
256.8000;0.0887;-0.7501;
257.1000;0.0912;-0.7479;
257.4000;0.0871;-0.7590;
257.7000;0.0904;-0.7479;
258.0000;0.0912;-0.7435;
258.3000;0.0912;-0.7391;
258.6000;0.1050;-0.7081;
258.9000;0.0912;-0.7479;
259.2000;0.0871;-0.7546;
259.5000;0.0904;-0.7413;
259.8000;0.0879;-0.7479;
260.1000;0.0879;-0.7501;
260.4000;0.0863;-0.7479;
260.7000;0.0887;-0.7391;
261.0000;0.0895;-0.7391;
261.3000;0.0863;-0.7435;
261.6000;0.0985;-0.7192;
261.9000;0.0871;-0.7546;
262.2000;0.0887;-0.7590;
262.5000;0.0887;-0.7634;
262.8000;0.0904;-0.7546;
263.1000;0.0887;-0.7501;
263.4000;0.1058;-0.7037;
263.7000;0.0912;-0.7479;
264.0000;0.0895;-0.7568;
264.3000;0.0895;-0.7524;
264.6000;0.0920;-0.7546;
264.9000;0.0887;-0.7590;
265.2000;0.0822;-0.7701;
265.5000;0.0920;-0.7435;
265.8000;0.0904;-0.7501;
266.1000;0.0895;-0.7391;
266.4000;0.0904;-0.7435;
266.7000;0.0838;-0.7524;
267.0000;0.0879;-0.7457;
267.3000;0.0912;-0.7391;
267.6000;0.0871;-0.7457;
267.9000;0.0879;-0.7413;
268.2000;0.0887;-0.7347;
268.5000;0.0895;-0.7435;
268.8000;0.0904;-0.7435;
269.1000;0.0961;-0.7280;
269.4000;0.0895;-0.7347;
269.7000;0.0895;-0.7391;
270.0000;0.0879;-0.7369;
270.3000;0.0863;-0.7413;
270.6000;0.0895;-0.7280;
270.9000;0.0887;-0.7280;
271.2000;0.0904;-0.7391;
271.5000;0.0879;-0.7501;
271.8000;0.0895;-0.7435;
272.1000;0.0887;-0.7435;
272.4000;0.0912;-0.7391;
272.7000;0.0847;-0.7546;
273.0000;0.0912;-0.7347;
273.3000;0.0855;-0.7524;
273.6000;0.0895;-0.7568;
273.9000;0.0765;-0.7811;
274.2000;0.0863;-0.7590;
274.5000;0.0920;-0.7435;
274.8000;0.0879;-0.7501;
275.1000;0.0895;-0.7524;
275.4000;0.0879;-0.7479;
275.7000;0.0879;-0.7435;
276.0000;0.0887;-0.7413;
276.3000;0.0822;-0.7501;
276.6000;0.0887;-0.7413;
276.9000;0.0879;-0.7369;
277.2000;0.0887;-0.7324;
277.5000;0.0879;-0.7347;
277.8000;0.0871;-0.7391;
278.1000;0.0895;-0.7347;
278.4000;0.0871;-0.7413;
278.7000;0.0879;-0.7457;
279.0000;0.0871;-0.7546;
279.3000;0.0887;-0.7457;
279.6000;0.0904;-0.7501;
279.9000;0.0895;-0.7546;
280.2000;0.0904;-0.7479;
280.5000;0.0920;-0.7501;
280.8000;0.0879;-0.7590;
281.1000;0.0855;-0.7634;
281.4000;0.0879;-0.7546;
281.7000;0.0895;-0.7479;
282.0000;0.0887;-0.7524;
282.3000;0.0904;-0.7501;
282.6000;0.0895;-0.7457;
282.9000;0.0904;-0.7457;
283.2000;0.0895;-0.7501;
283.5000;0.0904;-0.7435;
283.8000;0.0904;-0.7369;
284.1000;0.0895;-0.7479;
284.4000;0.0838;-0.7723;
284.7000;0.0895;-0.7546;
285.0000;0.0863;-0.7634;
285.3000;0.0977;-0.7347;
285.6000;0.0887;-0.7546;
285.9000;0.0887;-0.7501;
286.2000;0.0879;-0.7413;
286.5000;0.0838;-0.7457;
286.8000;0.0895;-0.7413;
287.1000;0.0871;-0.7457;
287.4000;0.0806;-0.7678;
287.7000;0.0895;-0.7524;
288.0000;0.0895;-0.7524;
288.3000;0.0887;-0.7568;
288.6000;0.0887;-0.7546;
288.9000;0.0904;-0.7524;
289.2000;0.0879;-0.7568;
289.5000;0.1050;-0.7214;
289.8000;0.0879;-0.7678;
290.1000;0.0895;-0.7701;
290.4000;0.0887;-0.7678;
290.7000;0.0879;-0.7701;
291.0000;0.0879;-0.7745;
291.3000;0.0830;-0.7767;
291.6000;0.0895;-0.7612;
291.9000;0.0887;-0.7546;
292.2000;0.0871;-0.7612;
292.5000;0.0863;-0.7678;
292.8000;0.0814;-0.7723;
293.1000;0.0895;-0.7701;
293.4000;0.0879;-0.7634;
293.7000;0.0904;-0.7546;
294.0000;0.0904;-0.7524;
294.3000;0.0895;-0.7612;
294.6000;0.0895;-0.7701;
294.9000;0.0920;-0.7656;
295.2000;0.0895;-0.7789;
295.5000;0.0871;-0.7855;
295.8000;0.0887;-0.7745;
296.1000;0.0904;-0.7656;
296.4000;0.0879;-0.7701;
296.7000;0.0879;-0.7701;
297.0000;0.0895;-0.7678;
297.3000;0.0822;-0.7789;
297.6000;0.0887;-0.7634;
297.9000;0.0871;-0.7634;
298.2000;0.0952;-0.7501;
298.5000;0.0895;-0.7590;
298.8000;0.0830;-0.7745;
299.1000;0.0904;-0.7590;
299.4000;0.0855;-0.7723;
299.7000;0.0879;-0.7612;
300.0000;0.0871;-0.7546;
300.3000;0.0904;-0.7546;
300.6000;0.0920;-0.7546;
300.9000;0.0895;-0.7590;
301.2000;0.0895;-0.7568;
301.5000;0.0895;-0.7501;
301.8000;0.0887;-0.7546;
302.1000;0.0863;-0.7546;
302.4000;0.0871;-0.7524;
302.7000;0.0895;-0.7479;
303.0000;0.0904;-0.7524;
303.3000;0.0895;-0.7568;
303.6000;0.0912;-0.7590;
303.9000;0.0895;-0.7590;
304.2000;0.0879;-0.7678;
304.5000;0.0814;-0.7723;
304.8000;0.0895;-0.7479;
305.1000;0.0895;-0.7524;
305.4000;0.0895;-0.7546;
305.7000;0.0904;-0.7413;
306.0000;0.0895;-0.7435;
306.3000;0.0895;-0.7501;
306.6000;0.0985;-0.7347;
306.9000;0.0814;-0.7789;
307.2000;0.0985;-0.7501;
307.5000;0.0879;-0.7767;
307.8000;0.0822;-0.7767;
308.1000;0.0928;-0.7479;
308.4000;0.0863;-0.7590;
308.7000;0.0895;-0.7524;
309.0000;0.0887;-0.7568;
309.3000;0.0912;-0.7479;
309.6000;0.0920;-0.7479;
309.9000;0.0879;-0.7568;
310.2000;0.0871;-0.7546;
310.5000;0.0879;-0.7568;
310.8000;0.1042;-0.7192;
311.1000;0.0871;-0.7501;
311.4000;0.0904;-0.7546;
311.7000;0.0895;-0.7656;
312.0000;0.0879;-0.7745;
312.3000;0.0716;-0.8232;
312.6000;0.0920;-0.7789;
312.9000;0.0985;-0.7590;
313.2000;0.0847;-0.7966;
313.5000;0.1099;-0.7324;
313.8000;0.0879;-0.7811;
314.1000;0.0879;-0.7745;
314.4000;0.0806;-0.7922;
314.7000;0.1018;-0.7501;
315.0000;0.0855;-0.7767;
315.3000;0.0806;-0.7855;
315.6000;0.0887;-0.7767;
315.9000;0.0814;-0.8033;
316.2000;0.0895;-0.7855;
316.5000;0.0895;-0.7833;
316.8000;0.0887;-0.7767;
317.1000;0.0871;-0.7767;
317.4000;0.0904;-0.7767;
317.7000;0.0879;-0.7789;
318.0000;0.0887;-0.7701;
318.3000;0.0863;-0.7767;
318.6000;0.0855;-0.7701;
318.9000;0.0904;-0.7656;
319.2000;0.0879;-0.7745;
319.5000;0.0920;-0.7745;
319.8000;0.0904;-0.7612;
320.1000;0.0871;-0.7590;
320.4000;0.0895;-0.7524;
320.7000;0.0871;-0.7568;
321.0000;0.0904;-0.7501;
321.3000;0.0895;-0.7546;
321.6000;0.0904;-0.7501;
321.9000;0.0871;-0.7546;
322.2000;0.0912;-0.7501;
322.5000;0.0895;-0.7590;
322.8000;0.0928;-0.7524;
323.1000;0.0838;-0.7723;
323.4000;0.0895;-0.7678;
323.7000;0.0887;-0.7590;
324.0000;0.0912;-0.7568;
324.3000;0.0887;-0.7634;
324.6000;0.0855;-0.7701;
324.9000;0.0879;-0.7634;
325.2000;0.0847;-0.7678;
325.5000;0.0887;-0.7479;
325.8000;0.0887;-0.7413;
326.1000;0.0879;-0.7391;
326.4000;0.0904;-0.7280;
326.7000;0.0912;-0.7324;
327.0000;0.0912;-0.7347;
327.3000;0.0879;-0.7391;
327.6000;0.0863;-0.7501;
327.9000;0.0904;-0.7457;
328.2000;0.0895;-0.7501;
328.5000;0.0806;-0.7833;
328.8000;0.0904;-0.7568;
329.1000;0.0912;-0.7479;
329.4000;0.0847;-0.7634;
329.7000;0.0887;-0.7524;
330.0000;0.0920;-0.7457;
330.3000;0.0920;-0.7501;
330.6000;0.0904;-0.7546;
330.9000;0.0904;-0.7546;
331.2000;0.0863;-0.7590;
331.5000;0.0912;-0.7435;
331.8000;0.0887;-0.7457;
332.1000;0.0895;-0.7501;
332.4000;0.0952;-0.7391;
332.7000;0.0928;-0.7369;
333.0000;0.0879;-0.7568;
333.3000;0.0863;-0.7590;
333.6000;0.0895;-0.7590;
333.9000;0.0887;-0.7590;
334.2000;0.0904;-0.7590;
334.5000;0.0912;-0.7546;
334.8000;0.0871;-0.7678;
335.1000;0.0887;-0.7634;
335.4000;0.0936;-0.7413;
335.7000;0.0887;-0.7612;
336.0000;0.0871;-0.7678;
336.3000;0.0855;-0.7723;
336.6000;0.0887;-0.7656;
336.9000;0.0822;-0.7878;
337.2000;0.0895;-0.7723;
337.5000;0.0781;-0.7922;
337.8000;0.0887;-0.7701;
338.1000;0.0887;-0.7745;
338.4000;0.0847;-0.7811;
338.7000;0.0838;-0.7767;
339.0000;0.0871;-0.7656;
339.3000;0.0912;-0.7612;
339.6000;0.0977;-0.7369;
339.9000;0.0895;-0.7546;
340.2000;0.0871;-0.7546;
340.5000;0.0895;-0.7524;
340.8000;0.0871;-0.7524;
341.1000;0.0879;-0.7546;
341.4000;0.0855;-0.7568;
341.7000;0.0936;-0.7391;
342.0000;0.0920;-0.7457;
342.3000;0.0887;-0.7546;
342.6000;0.0863;-0.7546;
342.9000;0.0871;-0.7546;
343.2000;0.0912;-0.7524;
343.5000;0.0928;-0.7435;
343.8000;0.0871;-0.7568;
344.1000;0.0822;-0.7656;
344.4000;0.0904;-0.7568;
344.7000;0.0855;-0.7612;
345.0000;0.0904;-0.7612;
345.3000;0.0887;-0.7568;
345.6000;0.0904;-0.7568;
345.9000;0.0887;-0.7546;
346.2000;0.0814;-0.7634;
346.5000;0.0928;-0.7347;
346.8000;0.0912;-0.7413;
347.1000;0.0887;-0.7435;
347.4000;0.0928;-0.7391;
347.7000;0.0879;-0.7568;
348.0000;0.0863;-0.7678;
348.3000;0.0952;-0.7501;
348.6000;0.0871;-0.7723;
348.9000;0.0912;-0.7634;
349.2000;0.0887;-0.7723;
349.5000;0.0895;-0.7701;
349.8000;0.0887;-0.7612;
350.1000;0.0887;-0.7590;
350.4000;0.0912;-0.7568;
350.7000;0.0879;-0.7546;
351.0000;0.0879;-0.7524;
351.3000;0.0847;-0.7568;
351.6000;0.0863;-0.7612;
351.9000;0.0969;-0.7391;
352.2000;0.0887;-0.7612;
352.5000;0.0806;-0.7833;
352.8000;0.0969;-0.7302;
353.1000;0.0822;-0.7612;
353.4000;0.0855;-0.7590;
353.7000;0.0904;-0.7568;
354.0000;0.0879;-0.7479;
354.3000;0.0887;-0.7435;
354.6000;0.0961;-0.7302;
354.9000;0.0912;-0.7347;
355.2000;0.0895;-0.7391;
355.5000;0.0887;-0.7457;
355.8000;0.0895;-0.7479;
356.1000;0.0879;-0.7413;
356.4000;0.0895;-0.7413;
356.7000;0.0879;-0.7501;
357.0000;0.0887;-0.7524;
357.3000;0.0944;-0.7347;
357.6000;0.0920;-0.7435;
357.9000;0.0822;-0.7612;
358.2000;0.0904;-0.7479;
358.5000;0.0904;-0.7546;
358.8000;0.0879;-0.7546;
359.1000;0.0847;-0.7590;
359.4000;0.0871;-0.7590;
359.7000;0.0912;-0.7546;
360.0000;0.0879;-0.7546;
360.3000;0.0912;-0.7479;
360.6000;0.0879;-0.7634;
360.9000;0.0863;-0.7612;
361.2000;0.0895;-0.7501;
361.5000;0.0895;-0.7479;
361.8000;0.0912;-0.7457;
362.1000;0.0887;-0.7590;
362.4000;0.0863;-0.7701;
362.7000;0.0887;-0.7612;
363.0000;0.0879;-0.7612;
363.3000;0.0895;-0.7590;
363.6000;0.0944;-0.7479;
363.9000;0.0895;-0.7656;
364.2000;0.0887;-0.7678;
364.5000;0.0871;-0.7656;
364.8000;0.0887;-0.7612;
365.1000;0.0912;-0.7501;
365.4000;0.0887;-0.7590;
365.7000;0.0904;-0.7590;
366.0000;0.0904;-0.7546;
366.3000;0.0912;-0.7568;
366.6000;0.0887;-0.7590;
366.9000;0.0895;-0.7524;
367.2000;0.0912;-0.7479;
367.5000;0.0814;-0.7745;
367.8000;0.0895;-0.7568;
368.1000;0.0879;-0.7501;
368.4000;0.0895;-0.7501;
368.7000;0.0912;-0.7524;
369.0000;0.0879;-0.7546;
369.3000;0.0912;-0.7413;
369.6000;0.0904;-0.7435;
369.9000;0.0895;-0.7435;
370.2000;0.0887;-0.7413;
370.5000;0.0912;-0.7391;
370.8000;0.0895;-0.7391;
371.1000;0.0879;-0.7369;
371.4000;0.0887;-0.7391;
371.7000;0.0863;-0.7524;
372.0000;0.0879;-0.7524;
372.3000;0.0895;-0.7457;
372.6000;0.0904;-0.7524;
372.9000;0.0838;-0.7678;
373.2000;0.0887;-0.7546;
373.5000;0.0830;-0.7612;
373.8000;0.0895;-0.7524;
374.1000;0.0944;-0.7391;
374.4000;0.0895;-0.7524;
374.7000;0.0855;-0.7701;
375.0000;0.0936;-0.7479;
375.3000;0.0879;-0.7546;
375.6000;0.0822;-0.7701;
375.9000;0.0887;-0.7634;
376.2000;0.0912;-0.7568;
376.5000;0.0920;-0.7435;
376.8000;0.0904;-0.7501;
377.1000;0.0765;-0.7900;
377.4000;0.0928;-0.7568;
377.7000;0.0855;-0.7656;
378.0000;0.0904;-0.7568;
378.3000;0.0895;-0.7524;
378.6000;0.0912;-0.7457;
378.9000;0.0879;-0.7612;
379.2000;0.0904;-0.7656;
379.5000;0.0895;-0.7612;
379.8000;0.0895;-0.7501;
380.1000;0.0904;-0.7479;
380.4000;0.0863;-0.7546;
380.7000;0.0830;-0.7678;
381.0000;0.0879;-0.7568;
381.3000;0.0871;-0.7612;
381.6000;0.0904;-0.7568;
381.9000;0.0879;-0.7501;
382.2000;0.0920;-0.7324;
382.5000;0.0847;-0.7501;
382.8000;0.0814;-0.7590;
383.1000;0.0912;-0.7369;
383.4000;0.0895;-0.7391;
383.7000;0.0904;-0.7324;
384.0000;0.0904;-0.7280;
384.3000;0.0912;-0.7324;
384.6000;0.0887;-0.7413;
384.9000;0.0887;-0.7479;
385.2000;0.0879;-0.7590;
385.5000;0.0904;-0.7479;
385.8000;0.0871;-0.7457;
386.1000;0.0887;-0.7457;
386.4000;0.0871;-0.7501;
386.7000;0.0879;-0.7546;
387.0000;0.0887;-0.7546;
387.3000;0.0895;-0.7524;
387.6000;0.0879;-0.7524;
387.9000;0.0895;-0.7524;
388.2000;0.0887;-0.7568;
388.5000;0.0830;-0.7701;
388.8000;0.0895;-0.7678;
389.1000;0.0887;-0.7723;
389.4000;0.0863;-0.7767;
389.7000;0.0773;-0.7900;
390.0000;0.0879;-0.7656;
390.3000;0.0863;-0.7723;
390.6000;0.0887;-0.7656;
390.9000;0.0863;-0.7678;
391.2000;0.0887;-0.7701;
391.5000;0.0847;-0.7833;
391.8000;0.0895;-0.7656;
392.1000;0.0961;-0.7479;
392.4000;0.0904;-0.7634;
392.7000;0.0920;-0.7612;
393.0000;0.0895;-0.7612;
393.3000;0.0871;-0.7590;
393.6000;0.0895;-0.7501;
393.9000;0.0887;-0.7457;
394.2000;0.0904;-0.7413;
394.5000;0.0887;-0.7546;
394.8000;0.0887;-0.7568;
395.1000;0.0830;-0.7745;
395.4000;0.0904;-0.7590;
395.7000;0.0904;-0.7524;
396.0000;0.0887;-0.7634;
396.3000;0.0855;-0.7678;
396.6000;0.0863;-0.7701;
396.9000;0.0887;-0.7656;
397.2000;0.0879;-0.7678;
397.5000;0.0863;-0.7723;
397.8000;0.0904;-0.7701;
398.1000;0.0879;-0.7723;
398.4000;0.0871;-0.7745;
398.7000;0.0912;-0.7656;
399.0000;0.0879;-0.7767;
399.3000;0.0895;-0.7723;
399.6000;0.0887;-0.7767;
399.9000;0.0961;-0.7678;
400.2000;0.0879;-0.7833;
400.5000;0.0928;-0.7701;
400.8000;0.0887;-0.7789;
401.1000;0.0895;-0.7789;
401.4000;0.0838;-0.7878;
401.7000;0.0887;-0.7855;
402.0000;0.0887;-0.7855;
402.3000;0.0855;-0.7922;
402.6000;0.0879;-0.7855;
402.9000;0.0895;-0.7767;
403.2000;0.0895;-0.7767;
403.5000;0.0887;-0.7767;
403.8000;0.0773;-0.8033;
404.1000;0.0912;-0.7745;
404.4000;0.0904;-0.7745;
404.7000;0.0904;-0.7789;
405.0000;0.0879;-0.7855;
405.3000;0.0936;-0.7678;
405.6000;0.0863;-0.7723;
405.9000;0.0887;-0.7590;
406.2000;0.0895;-0.7501;
406.5000;0.0887;-0.7457;
406.8000;0.0895;-0.7479;
407.1000;0.0895;-0.7479;
407.4000;0.0887;-0.7457;
407.7000;0.0847;-0.7546;
408.0000;0.0904;-0.7501;
408.3000;0.0993;-0.7214;
408.6000;0.0895;-0.7524;
408.9000;0.0895;-0.7501;
409.2000;0.0904;-0.7435;
409.5000;0.0895;-0.7457;
409.8000;0.0879;-0.7524;
410.1000;0.0904;-0.7479;
410.4000;0.0912;-0.7457;
410.7000;0.0936;-0.7457;
411.0000;0.0887;-0.7568;
411.3000;0.0887;-0.7612;
411.6000;0.0920;-0.7590;
411.9000;0.0798;-0.7855;
412.2000;0.0887;-0.7634;
412.5000;0.0879;-0.7634;
412.8000;0.0855;-0.7656;
413.1000;0.0855;-0.7656;
413.4000;0.0912;-0.7612;
413.7000;0.0838;-0.7767;
414.0000;0.0887;-0.7701;
414.3000;0.1026;-0.7280;
414.6000;0.0928;-0.7524;
414.9000;0.0871;-0.7546;
415.2000;0.0879;-0.7546;
415.5000;0.0879;-0.7656;
415.8000;0.0904;-0.7568;
416.1000;0.0895;-0.7501;
416.4000;0.0887;-0.7479;
416.7000;0.0798;-0.7656;
417.0000;0.0887;-0.7302;
417.3000;0.0879;-0.7391;
417.6000;0.0912;-0.7435;
417.9000;0.0895;-0.7435;
418.2000;0.0887;-0.7435;
418.5000;0.0887;-0.7501;
418.8000;0.0879;-0.7524;
419.1000;0.0879;-0.7524;
419.4000;0.0887;-0.7457;
419.7000;0.0912;-0.7546;
420.0000;0.0814;-0.7745;
420.3000;0.0855;-0.7701;
420.6000;0.0912;-0.7612;
420.9000;0.0814;-0.7900;
421.2000;0.0863;-0.7833;
421.5000;0.0887;-0.7789;
421.8000;0.0855;-0.7745;
422.1000;0.0895;-0.7457;
422.4000;0.0887;-0.7479;
422.7000;0.0855;-0.7501;
423.0000;0.0871;-0.7479;
423.3000;0.0863;-0.7524;
423.6000;0.0871;-0.7546;
423.9000;0.0871;-0.7634;
424.2000;0.0887;-0.7546;
424.5000;0.0920;-0.7524;
424.8000;0.0887;-0.7568;
425.1000;0.0847;-0.7656;
425.4000;0.0895;-0.7524;
425.7000;0.0936;-0.7369;
426.0000;0.0895;-0.7457;
426.3000;0.0855;-0.7590;
426.6000;0.0895;-0.7413;
426.9000;0.0855;-0.7568;
427.2000;0.0838;-0.7612;
427.5000;0.0904;-0.7479;
427.8000;0.0887;-0.7568;
428.1000;0.0912;-0.7435;
428.4000;0.0855;-0.7568;
428.7000;0.0887;-0.7568;
429.0000;0.0887;-0.7457;
429.3000;0.0879;-0.7501;
429.6000;0.0920;-0.7369;
429.9000;0.0863;-0.7546;
430.2000;0.0961;-0.7347;
430.5000;0.0887;-0.7501;
430.8000;0.0912;-0.7501;
431.1000;0.0895;-0.7546;
431.4000;0.0871;-0.7678;
431.7000;0.0871;-0.7701;
432.0000;0.0887;-0.7723;
432.3000;0.0895;-0.7634;
432.6000;0.0928;-0.7590;
432.9000;0.0895;-0.7634;
433.2000;0.0887;-0.7612;
433.5000;0.0887;-0.7590;
433.8000;0.0895;-0.7568;
434.1000;0.0879;-0.7612;
434.4000;0.0895;-0.7634;
434.7000;0.0879;-0.7590;
435.0000;0.0871;-0.7612;
435.3000;0.0879;-0.7524;
435.6000;0.0887;-0.7524;
435.9000;0.0879;-0.7479;
436.2000;0.0887;-0.7501;
436.5000;0.0887;-0.7479;
436.8000;0.0895;-0.7413;
437.1000;0.0887;-0.7457;
437.4000;0.0887;-0.7501;
437.7000;0.0904;-0.7568;
438.0000;0.0887;-0.7656;
438.3000;0.0887;-0.7612;
438.6000;0.0895;-0.7524;
438.9000;0.0879;-0.7501;
439.2000;0.0863;-0.7501;
439.5000;0.0871;-0.7568;
439.8000;0.0887;-0.7524;
440.1000;0.0879;-0.7546;
440.4000;0.0879;-0.7479;
440.7000;0.0871;-0.7524;
441.0000;0.0895;-0.7546;
441.3000;0.0871;-0.7546;
441.6000;0.0904;-0.7524;
441.9000;0.0879;-0.7568;
442.2000;0.0912;-0.7501;
442.5000;0.0798;-0.7656;
442.8000;0.0920;-0.7413;
443.1000;0.0806;-0.7678;
443.4000;0.0912;-0.7479;
443.7000;0.0887;-0.7634;
444.0000;0.0895;-0.7612;
444.3000;0.0887;-0.7612;
444.6000;0.0847;-0.7678;
444.9000;0.0993;-0.7324;
445.2000;0.0879;-0.7479;
445.5000;0.0920;-0.7302;
445.8000;0.0847;-0.7590;
446.1000;0.0863;-0.7546;
446.4000;0.0895;-0.7524;
446.7000;0.0879;-0.7501;
447.0000;0.0863;-0.7590;
447.3000;0.0871;-0.7590;
447.6000;0.0961;-0.7347;
447.9000;0.0855;-0.7634;
448.2000;0.0879;-0.7590;
448.5000;0.0895;-0.7546;
448.8000;0.0871;-0.7590;
449.1000;0.0863;-0.7656;
449.4000;0.0838;-0.7745;
449.7000;0.0887;-0.7656;
450.0000;0.0895;-0.7590;
450.3000;0.0928;-0.7546;
450.6000;0.0879;-0.7656;
450.9000;0.0895;-0.7568;
451.2000;0.0952;-0.7435;
451.5000;0.0904;-0.7568;
451.8000;0.0887;-0.7590;
452.1000;0.0912;-0.7501;
452.4000;0.0773;-0.7855;
452.7000;0.0879;-0.7568;
453.0000;0.0879;-0.7457;
453.3000;0.0985;-0.7258;
453.6000;0.0904;-0.7501;
453.9000;0.0887;-0.7568;
454.2000;0.0879;-0.7634;
454.5000;0.0904;-0.7568;
454.8000;0.0944;-0.7435;
455.1000;0.0871;-0.7590;
455.4000;0.0879;-0.7546;
455.7000;0.0871;-0.7590;
456.0000;0.0879;-0.7546;
456.3000;0.0920;-0.7413;
456.6000;0.0904;-0.7546;
456.9000;0.0879;-0.7612;
457.2000;0.0879;-0.7524;
457.5000;0.0879;-0.7546;
457.8000;0.0895;-0.7501;
458.1000;0.0912;-0.7457;
458.4000;0.0887;-0.7590;
458.7000;0.0895;-0.7723;
459.0000;0.0887;-0.7723;
459.3000;0.0879;-0.7701;
459.6000;0.0887;-0.7701;
459.9000;0.0887;-0.7612;
460.2000;0.0895;-0.7612;
460.5000;0.0904;-0.7501;
460.8000;0.0863;-0.7590;
461.1000;0.0912;-0.7413;
461.4000;0.0863;-0.7479;
461.7000;0.0887;-0.7457;
462.0000;0.0871;-0.7568;
462.3000;0.0920;-0.7413;
462.6000;0.0895;-0.7524;
462.9000;0.0879;-0.7656;
463.2000;0.0887;-0.7546;
463.5000;0.0895;-0.7457;
463.8000;0.0895;-0.7391;
464.1000;0.0904;-0.7324;
464.4000;0.0895;-0.7369;
464.7000;0.0895;-0.7391;
465.0000;0.0904;-0.7479;
465.3000;0.0895;-0.7457;
465.6000;0.0912;-0.7413;
465.9000;0.0904;-0.7391;
466.2000;0.0887;-0.7413;
466.5000;0.0790;-0.7612;
466.8000;0.0887;-0.7457;
467.1000;0.0887;-0.7479;
467.4000;0.0887;-0.7413;
467.7000;0.0895;-0.7479;
468.0000;0.0912;-0.7479;
468.3000;0.0895;-0.7501;
468.6000;0.0879;-0.7590;
468.9000;0.0814;-0.7701;
469.2000;0.0879;-0.7546;
469.5000;0.0895;-0.7612;
469.8000;0.0871;-0.7701;
470.1000;0.0822;-0.7723;
470.4000;0.0879;-0.7479;
470.7000;0.0887;-0.7413;
471.0000;0.0887;-0.7413;
471.3000;0.0904;-0.7391;
471.6000;0.0936;-0.7302;
471.9000;0.0863;-0.7457;
472.2000;0.0904;-0.7369;
472.5000;0.0871;-0.7435;
472.8000;0.0920;-0.7369;
473.1000;0.0879;-0.7479;
473.4000;0.0961;-0.7302;
473.7000;0.0830;-0.7568;
474.0000;0.0871;-0.7435;
474.3000;0.0928;-0.7324;
474.6000;0.0887;-0.7435;
474.9000;0.0887;-0.7479;
475.2000;0.0895;-0.7501;
475.5000;0.0904;-0.7546;
475.8000;0.0879;-0.7590;
476.1000;0.0879;-0.7524;
476.4000;0.0920;-0.7369;
476.7000;0.0904;-0.7501;
477.0000;0.0887;-0.7479;
477.3000;0.0879;-0.7457;
477.6000;0.0887;-0.7435;
477.9000;0.0895;-0.7324;
478.2000;0.0904;-0.7347;
478.5000;0.0904;-0.7236;
478.8000;0.0895;-0.7236;
479.1000;0.0920;-0.7347;
479.4000;0.0904;-0.7391;
479.7000;0.0879;-0.7435;
480.0000;0.0912;-0.7413;
480.3000;0.0904;-0.7413;
480.6000;0.0895;-0.7457;
480.9000;0.0847;-0.7524;
481.2000;0.0895;-0.7479;
481.5000;0.0912;-0.7457;
481.8000;0.0928;-0.7546;
482.1000;0.0863;-0.7656;
482.4000;0.0887;-0.7634;
482.7000;0.0904;-0.7590;
483.0000;0.0871;-0.7634;
483.3000;0.0895;-0.7546;
483.6000;0.0887;-0.7634;
483.9000;0.0904;-0.7656;
484.2000;0.0806;-0.7855;
484.5000;0.0838;-0.7811;
484.8000;0.0855;-0.7701;
485.1000;0.1018;-0.7258;
485.4000;0.0879;-0.7590;
485.7000;0.0871;-0.7612;
486.0000;0.0871;-0.7612;
486.3000;0.0879;-0.7612;
486.6000;0.0912;-0.7590;
486.9000;0.0895;-0.7590;
487.2000;0.0887;-0.7656;
487.5000;0.0912;-0.7634;
487.8000;0.0920;-0.7634;
488.1000;0.0961;-0.7568;
488.4000;0.0879;-0.7767;
488.7000;0.0904;-0.7745;
489.0000;0.0863;-0.7745;
489.3000;0.0904;-0.7678;
489.6000;0.0855;-0.7745;
489.9000;0.0887;-0.7678;
490.2000;0.0879;-0.7656;
490.5000;0.0912;-0.7568;
490.8000;0.0912;-0.7546;
491.1000;0.0879;-0.7590;
491.4000;0.0887;-0.7568;
491.7000;0.0871;-0.7656;
492.0000;0.0863;-0.7590;
492.3000;0.0871;-0.7546;
492.6000;0.0912;-0.7501;
492.9000;0.0912;-0.7501;
493.2000;0.0887;-0.7435;
493.5000;0.0887;-0.7501;
493.8000;0.0855;-0.7634;
494.1000;0.0887;-0.7546;
494.4000;0.0944;-0.7391;
494.7000;0.0887;-0.7546;
495.0000;0.0887;-0.7501;
495.3000;0.0871;-0.7391;
495.6000;0.0806;-0.7590;
495.9000;0.0887;-0.7369;
496.2000;0.0887;-0.7413;
496.5000;0.0895;-0.7391;
496.8000;0.0871;-0.7479;
497.1000;0.0904;-0.7479;
497.4000;0.0822;-0.7612;
497.7000;0.0904;-0.7457;
498.0000;0.0912;-0.7501;
498.3000;0.0920;-0.7457;
498.6000;0.0904;-0.7457;
498.9000;0.0887;-0.7524;
499.2000;0.0887;-0.7524;
499.5000;0.0895;-0.7457;
499.8000;0.0879;-0.7546;
500.1000;0.0871;-0.7501;
500.4000;0.0887;-0.7457;
500.7000;0.0879;-0.7501;
501.0000;0.0871;-0.7435;
501.3000;0.0887;-0.7391;
501.6000;0.0871;-0.7546;
501.9000;0.0830;-0.7634;
502.2000;0.0887;-0.7568;
502.5000;0.0871;-0.7612;
502.8000;0.0887;-0.7612;
503.1000;0.0879;-0.7590;
503.4000;0.0887;-0.7612;
503.7000;0.0871;-0.7568;
504.0000;0.0887;-0.7435;
504.3000;0.0895;-0.7369;
504.6000;0.0904;-0.7347;
504.9000;0.0904;-0.7391;
505.2000;0.0887;-0.7435;
505.5000;0.0904;-0.7435;
505.8000;0.0879;-0.7501;
506.1000;0.0912;-0.7501;
506.4000;0.0944;-0.7501;
506.7000;0.0895;-0.7634;
507.0000;0.0822;-0.7678;
507.3000;0.0838;-0.7656;
507.6000;0.0887;-0.7678;
507.9000;0.0887;-0.7678;
508.2000;0.0863;-0.7701;
508.5000;0.0977;-0.7413;
508.8000;0.0887;-0.7568;
509.1000;0.0855;-0.7634;
509.4000;0.0887;-0.7546;
509.7000;0.0830;-0.7634;
510.0000;0.0887;-0.7546;
510.3000;0.0936;-0.7413;
510.6000;0.0904;-0.7413;
510.9000;0.0920;-0.7369;
511.2000;0.0887;-0.7435;
511.5000;0.0879;-0.7435;
511.8000;0.0912;-0.7435;
512.1000;0.0887;-0.7501;
512.4000;0.0904;-0.7413;
512.7000;0.0814;-0.7590;
513.0000;0.0912;-0.7324;
513.3000;0.0936;-0.7170;
513.6000;0.0847;-0.7302;
513.9000;0.0879;-0.7324;
514.2000;0.0863;-0.7479;
514.5000;0.0895;-0.7457;
514.8000;0.0879;-0.7546;
515.1000;0.0871;-0.7568;
515.4000;0.0879;-0.7479;
515.7000;0.0879;-0.7413;
516.0000;0.0887;-0.7391;
516.3000;0.0871;-0.7435;
516.6000;0.0773;-0.7568;
516.9000;0.0871;-0.7413;
517.2000;0.0904;-0.7324;
517.5000;0.0895;-0.7369;
517.8000;0.0912;-0.7369;
518.1000;0.0912;-0.7457;
518.4000;0.0822;-0.7612;
518.7000;0.0887;-0.7457;
519.0000;0.0904;-0.7479;
519.3000;0.0838;-0.7612;
519.6000;0.0912;-0.7524;
519.9000;0.0904;-0.7590;
520.2000;0.0863;-0.7723;
520.5000;0.0887;-0.7701;
520.8000;0.0871;-0.7634;
521.1000;0.0879;-0.7568;
521.4000;0.0920;-0.7479;
521.7000;0.0863;-0.7612;
522.0000;0.0879;-0.7590;
522.3000;0.0887;-0.7568;
522.6000;0.0944;-0.7413;
522.9000;0.0863;-0.7568;
523.2000;0.0863;-0.7524;
523.5000;0.0895;-0.7369;
523.8000;0.0879;-0.7391;
524.1000;0.0912;-0.7391;
524.4000;0.0879;-0.7501;
524.7000;0.0904;-0.7524;
525.0000;0.0879;-0.7501;
525.3000;0.0887;-0.7501;
525.6000;0.0961;-0.7302;
525.9000;0.0904;-0.7501;
526.2000;0.0879;-0.7568;
526.5000;0.0871;-0.7723;
526.8000;0.0879;-0.7745;
527.1000;0.0904;-0.7546;
527.4000;0.0887;-0.7524;
527.7000;0.0879;-0.7546;
528.0000;0.0855;-0.7612;
528.3000;0.0863;-0.7546;
528.6000;0.0912;-0.7369;
528.9000;0.0977;-0.7147;
529.2000;0.0887;-0.7413;
529.5000;0.0912;-0.7324;
529.8000;0.0879;-0.7391;
530.1000;0.0895;-0.7347;
530.4000;0.0871;-0.7369;
530.7000;0.0904;-0.7258;
531.0000;0.0895;-0.7192;
531.3000;0.0928;-0.7170;
531.6000;0.0904;-0.7214;
531.9000;0.0855;-0.7324;
532.2000;0.0879;-0.7236;
532.5000;0.0912;-0.7192;
532.8000;0.0944;-0.7147;
533.1000;0.0895;-0.7347;
533.4000;0.0912;-0.7302;
533.7000;0.0928;-0.7302;
534.0000;0.0952;-0.7258;
534.3000;0.0855;-0.7391;
534.6000;0.0895;-0.7324;
534.9000;0.0904;-0.7258;
535.2000;0.0855;-0.7258;
535.5000;0.0838;-0.7435;
535.8000;0.0871;-0.7324;
536.1000;0.0887;-0.7214;
536.4000;0.0887;-0.7192;
536.7000;0.0871;-0.7302;
537.0000;0.0879;-0.7347;
537.3000;0.0863;-0.7435;
537.6000;0.0895;-0.7302;
537.9000;0.0863;-0.7369;
538.2000;0.0887;-0.7258;
538.5000;0.0879;-0.7236;
538.8000;0.0830;-0.7324;
539.1000;0.0887;-0.7125;
539.4000;0.0838;-0.7258;
539.7000;0.0904;-0.7192;
540.0000;0.0879;-0.7302;
540.3000;0.0887;-0.7347;
540.6000;0.0887;-0.7324;
540.9000;0.0879;-0.7324;
541.2000;0.0879;-0.7236;
541.5000;0.0895;-0.7214;
541.8000;0.0863;-0.7236;
542.1000;0.0895;-0.7214;
542.4000;0.0855;-0.7214;
542.7000;0.0895;-0.7081;
543.0000;0.0895;-0.7103;
543.3000;0.0863;-0.7236;
543.6000;0.0887;-0.7258;
543.9000;0.0838;-0.7435;
544.2000;0.0781;-0.7568;
544.5000;0.0879;-0.7280;
544.8000;0.0928;-0.7125;
545.1000;0.0895;-0.7236;
545.4000;0.0944;-0.7103;
545.7000;0.0814;-0.7413;
546.0000;0.0871;-0.7302;
546.3000;0.0928;-0.7170;
546.6000;0.0895;-0.7347;
546.9000;0.0879;-0.7457;
547.2000;0.0879;-0.7501;
547.5000;0.0895;-0.7435;
547.8000;0.0887;-0.7391;
548.1000;0.0895;-0.7501;
548.4000;0.0904;-0.7546;
548.7000;0.0920;-0.7546;
549.0000;0.0895;-0.7524;
549.3000;0.0871;-0.7546;
549.6000;0.0887;-0.7479;
549.9000;0.0871;-0.7568;
550.2000;0.0887;-0.7435;
550.5000;0.0912;-0.7391;
550.8000;0.0863;-0.7391;
551.1000;0.0904;-0.7324;
551.4000;0.0895;-0.7347;
551.7000;0.0855;-0.7435;
552.0000;0.0871;-0.7258;
552.3000;0.0912;-0.7192;
552.6000;0.0830;-0.7435;
552.9000;0.0920;-0.7302;
553.2000;0.0887;-0.7391;
553.5000;0.0887;-0.7391;
553.8000;0.0904;-0.7347;
554.1000;0.0863;-0.7435;
554.4000;0.0895;-0.7302;
554.7000;0.0863;-0.7413;
555.0000;0.0895;-0.7324;
555.3000;0.0879;-0.7324;
555.6000;0.0871;-0.7369;
555.9000;0.0863;-0.7324;
556.2000;0.0863;-0.7258;
556.5000;0.0863;-0.7324;
556.8000;0.0806;-0.7479;
557.1000;0.0871;-0.7324;
557.4000;0.0879;-0.7280;
557.7000;0.0773;-0.7524;
558.0000;0.0879;-0.7170;
558.3000;0.0871;-0.7125;
558.6000;0.0887;-0.7214;
558.9000;0.0912;-0.7037;
559.2000;0.0904;-0.6970;
559.5000;0.0895;-0.7059;
559.8000;0.0855;-0.7236;
560.1000;0.0895;-0.7147;
560.4000;0.0838;-0.7236;
560.7000;0.0871;-0.7258;
561.0000;0.0895;-0.7192;
561.3000;0.0928;-0.7125;
561.6000;0.0895;-0.7258;
561.9000;0.0855;-0.7479;
562.2000;0.0887;-0.7457;
562.5000;0.0928;-0.7347;
562.8000;0.0847;-0.7435;
563.1000;0.0895;-0.7391;
563.4000;0.0887;-0.7391;
563.7000;0.0904;-0.7369;
564.0000;0.0879;-0.7457;
564.3000;0.0879;-0.7501;
564.6000;0.0806;-0.7568;
564.9000;0.1009;-0.7037;
565.2000;0.0838;-0.7435;
565.5000;0.0871;-0.7391;
565.8000;0.0904;-0.7347;
566.1000;0.0887;-0.7258;
566.4000;0.0912;-0.7302;
566.7000;0.0887;-0.7347;
567.0000;0.0879;-0.7258;
567.3000;0.0879;-0.7347;
567.6000;0.0904;-0.7413;
567.9000;0.0863;-0.7501;
568.2000;0.0863;-0.7612;
568.5000;0.0895;-0.7568;
568.8000;0.0830;-0.7723;
569.1000;0.0904;-0.7612;
569.4000;0.0855;-0.7656;
569.7000;0.0920;-0.7524;
570.0000;0.0887;-0.7524;
570.3000;0.0830;-0.7634;
570.6000;0.0847;-0.7590;
570.9000;0.0904;-0.7435;
571.2000;0.0879;-0.7479;
571.5000;0.0895;-0.7391;
571.8000;0.0887;-0.7479;
572.1000;0.0895;-0.7391;
572.4000;0.0936;-0.7369;
572.7000;0.0879;-0.7457;
573.0000;0.0879;-0.7546;
573.3000;0.0895;-0.7524;
573.6000;0.0871;-0.7524;
573.9000;0.0904;-0.7413;
574.2000;0.0895;-0.7324;
574.5000;0.0912;-0.7258;
574.8000;0.0895;-0.7324;
575.1000;0.0879;-0.7391;
575.4000;0.0904;-0.7280;
575.7000;0.0879;-0.7347;
576.0000;0.0863;-0.7347;
576.3000;0.0887;-0.7302;
576.6000;0.0879;-0.7347;
576.9000;0.0871;-0.7413;
577.2000;0.0887;-0.7479;
577.5000;0.0863;-0.7457;
577.8000;0.0879;-0.7435;
578.1000;0.0977;-0.7236;
578.4000;0.0912;-0.7391;
578.7000;0.0961;-0.7280;
579.0000;0.0879;-0.7435;
579.3000;0.0895;-0.7347;
579.6000;0.0887;-0.7391;
579.9000;0.0863;-0.7413;
580.2000;0.0928;-0.7214;
580.5000;0.0814;-0.7457;
580.8000;0.0895;-0.7302;
581.1000;0.0749;-0.7634;
581.4000;0.0847;-0.7413;
581.7000;0.0887;-0.7214;
582.0000;0.0863;-0.7280;
582.3000;0.0952;-0.7147;
582.6000;0.0887;-0.7214;
582.9000;0.0879;-0.7170;
583.2000;0.0895;-0.7170;
583.5000;0.0871;-0.7192;
583.8000;0.0879;-0.7214;
584.1000;0.0904;-0.7170;
584.4000;0.0969;-0.7015;
584.7000;0.0871;-0.7347;
585.0000;0.0863;-0.7413;
585.3000;0.0904;-0.7258;
585.6000;0.0969;-0.7081;
585.9000;0.0830;-0.7413;
586.2000;0.0887;-0.7258;
586.5000;0.0806;-0.7413;
586.8000;0.0993;-0.7015;
587.1000;0.0879;-0.7369;
587.4000;0.0879;-0.7324;
587.7000;0.0895;-0.7236;
588.0000;0.0895;-0.7347;
588.3000;0.0879;-0.7347;
588.6000;0.0969;-0.7015;
588.9000;0.0969;-0.7015;
589.2000;0.0936;-0.7081;
589.5000;0.0944;-0.7170;
589.8000;0.0895;-0.7258;
590.1000;0.0887;-0.7369;
590.4000;0.0871;-0.7413;
590.7000;0.0887;-0.7413;
591.0000;0.0895;-0.7324;
591.3000;0.0879;-0.7302;
591.6000;0.0879;-0.7369;
591.9000;0.0895;-0.7280;
592.2000;0.0879;-0.7435;
592.5000;0.0887;-0.7413;
592.8000;0.0879;-0.7347;
593.1000;0.0887;-0.7324;
593.4000;0.0920;-0.7258;
593.7000;0.0895;-0.7347;
594.0000;0.0887;-0.7413;
594.3000;0.0904;-0.7280;
594.6000;0.0920;-0.7214;
594.9000;0.0895;-0.7236;
595.2000;0.0904;-0.7302;
595.5000;0.0887;-0.7369;
595.8000;0.0895;-0.7391;
596.1000;0.0895;-0.7391;
596.4000;0.0895;-0.7302;
596.7000;0.0838;-0.7413;
597.0000;0.0895;-0.7236;
597.3000;0.0887;-0.7302;
597.6000;0.0895;-0.7302;
597.9000;0.0961;-0.7081;
598.2000;0.0887;-0.7258;
598.5000;0.0895;-0.7192;
598.8000;0.0895;-0.7236;
599.1000;0.0871;-0.7324;
599.4000;0.0895;-0.7369;
599.7000;0.0904;-0.7347;
600.0000;0.0887;-0.7413;
600.3000;0.0847;-0.7501;
600.6000;0.0895;-0.7369;
600.9000;0.0871;-0.7435;
601.2000;0.0969;-0.7258;
601.5000;0.0855;-0.7612;
601.8000;0.0814;-0.7789;
602.1000;0.0912;-0.7612;
602.4000;0.0838;-0.7900;
602.7000;0.0871;-0.8010;
603.0000;0.0863;-0.8077;
603.3000;0.0863;-0.8165;
603.6000;0.0855;-0.8254;
603.9000;0.0912;-0.8254;
604.2000;0.0838;-0.8497;
604.5000;0.0904;-0.8320;
604.8000;0.0879;-0.8387;
605.1000;0.0855;-0.8453;
605.4000;0.0822;-0.8431;
605.7000;0.0733;-0.8718;
606.0000;0.0830;-0.8519;
606.3000;0.0847;-0.8453;
606.6000;0.0855;-0.8364;
606.9000;0.0838;-0.8453;
607.2000;0.0700;-0.8851;
607.5000;0.0822;-0.8497;
607.8000;0.0830;-0.8453;
608.1000;0.0798;-0.8519;
608.4000;0.0798;-0.8519;
608.7000;0.0822;-0.8431;
609.0000;0.0904;-0.8143;
609.3000;0.0830;-0.8387;
609.6000;0.0961;-0.8099;
609.9000;0.0879;-0.8276;
610.2000;0.0822;-0.8431;
610.5000;0.0814;-0.8519;
610.8000;0.0830;-0.8541;
611.1000;0.0814;-0.8586;
611.4000;0.0806;-0.8608;
611.7000;0.0814;-0.8586;
612.0000;0.0733;-0.8763;
612.3000;0.0822;-0.8586;
612.6000;0.0798;-0.8718;
612.9000;0.0798;-0.8741;
613.2000;0.0781;-0.8807;
613.5000;0.0847;-0.8718;
613.8000;0.0773;-0.8851;
614.1000;0.0814;-0.8718;
614.4000;0.0798;-0.8763;
614.7000;0.0741;-0.8984;
615.0000;0.0806;-0.8829;
615.3000;0.0806;-0.8718;
615.6000;0.0814;-0.8718;
615.9000;0.0806;-0.8763;
616.2000;0.0790;-0.8785;
616.5000;0.0814;-0.8763;
616.8000;0.0790;-0.8807;
617.1000;0.0790;-0.8807;
617.4000;0.0806;-0.8718;
617.7000;0.0790;-0.8763;
618.0000;0.0790;-0.8829;
618.3000;0.0798;-0.8696;
618.6000;0.0806;-0.8541;
618.9000;0.0781;-0.8541;
619.2000;0.0806;-0.8541;
619.5000;0.0781;-0.8608;
619.8000;0.0814;-0.8630;
620.1000;0.0773;-0.8652;
620.4000;0.0749;-0.8674;
620.7000;0.0806;-0.8564;
621.0000;0.0790;-0.8630;
621.3000;0.0781;-0.8586;
621.6000;0.0790;-0.8586;
621.9000;0.0798;-0.8608;
622.2000;0.0757;-0.8718;
622.5000;0.0798;-0.8696;
622.8000;0.0716;-0.8918;
623.1000;0.0781;-0.8741;
623.4000;0.0781;-0.8807;
623.7000;0.0806;-0.8741;
624.0000;0.0781;-0.8851;
624.3000;0.0814;-0.8763;
624.6000;0.0855;-0.8652;
624.9000;0.0757;-0.8896;
625.2000;0.0781;-0.8829;
625.5000;0.0781;-0.8829;
625.8000;0.0838;-0.8718;
626.1000;0.0904;-0.8652;
626.4000;0.0781;-0.9006;
626.7000;0.0781;-0.9006;
627.0000;0.0887;-0.8785;
627.3000;0.0830;-0.8940;
627.6000;0.0798;-0.8962;
627.9000;0.0798;-0.8940;
628.2000;0.0749;-0.8962;
628.5000;0.0724;-0.9028;
628.8000;0.0814;-0.8873;
629.1000;0.0798;-0.8962;
629.4000;0.0847;-0.8873;
629.7000;0.0798;-0.8918;
630.0000;0.0798;-0.8896;
630.3000;0.0790;-0.8940;
630.6000;0.0757;-0.8940;
630.9000;0.0716;-0.8984;
631.2000;0.0838;-0.8718;
631.5000;0.0741;-0.8962;
631.8000;0.0651;-0.9139;
632.1000;0.0741;-0.8940;
632.4000;0.0781;-0.8807;
632.7000;0.0790;-0.8718;
633.0000;0.0806;-0.8608;
633.3000;0.0773;-0.8718;
633.6000;0.0773;-0.8785;
633.9000;0.0847;-0.8608;
634.2000;0.0798;-0.8763;
634.5000;0.0814;-0.8763;
634.8000;0.0790;-0.8785;
635.1000;0.0781;-0.8741;
635.4000;0.0692;-0.8940;
635.7000;0.0676;-0.9006;
636.0000;0.0749;-0.8785;
636.3000;0.0822;-0.8630;
636.6000;0.0765;-0.8807;
636.9000;0.0741;-0.8940;
637.2000;0.0773;-0.8918;
637.5000;0.0757;-0.8873;
637.8000;0.0733;-0.8940;
638.1000;0.0790;-0.8829;
638.4000;0.0863;-0.8630;
638.7000;0.0733;-0.8940;
639.0000;0.0773;-0.8873;
639.3000;0.0757;-0.8851;
639.6000;0.0659;-0.9073;
639.9000;0.0798;-0.8851;
640.2000;0.0757;-0.8896;
640.5000;0.0781;-0.8763;
640.8000;0.0781;-0.8807;
641.1000;0.0749;-0.9006;
641.4000;0.0773;-0.8918;
641.7000;0.0733;-0.9073;
642.0000;0.0781;-0.8962;
642.3000;0.0724;-0.9006;
642.6000;0.0765;-0.8940;
642.9000;0.0773;-0.8940;
643.2000;0.0757;-0.8896;
643.5000;0.0741;-0.8807;
643.8000;0.0765;-0.8696;
644.1000;0.0757;-0.8785;
644.4000;0.0765;-0.8763;
644.7000;0.0790;-0.8785;
645.0000;0.0798;-0.8763;
645.3000;0.0757;-0.8873;
645.6000;0.0773;-0.8896;
645.9000;0.0790;-0.8741;
646.2000;0.0790;-0.8741;
646.5000;0.0790;-0.8741;
646.8000;0.0765;-0.8851;
647.1000;0.0790;-0.8763;
647.4000;0.0814;-0.8763;
647.7000;0.0765;-0.8940;
648.0000;0.0790;-0.8829;
648.3000;0.0733;-0.8940;
648.6000;0.0765;-0.8984;
648.9000;0.0765;-0.9028;
649.2000;0.0757;-0.9050;
649.5000;0.0781;-0.9006;
649.8000;0.0627;-0.9338;
650.1000;0.0773;-0.8962;
650.4000;0.0765;-0.9050;
650.7000;0.0773;-0.9050;
651.0000;0.0814;-0.8896;
651.3000;0.0741;-0.9161;
651.6000;0.0781;-0.9050;
651.9000;0.0790;-0.9006;
652.2000;0.0749;-0.9095;
652.5000;0.0733;-0.9139;
652.8000;0.0790;-0.9006;
653.1000;0.0749;-0.8984;
653.4000;0.0773;-0.8918;
653.7000;0.0757;-0.8896;
654.0000;0.0765;-0.8807;
654.3000;0.0838;-0.8608;
654.6000;0.0757;-0.8851;
654.9000;0.0700;-0.8873;
655.2000;0.0790;-0.8652;
655.5000;0.0806;-0.8564;
655.8000;0.0749;-0.8763;
656.1000;0.0781;-0.8807;
656.4000;0.0757;-0.8984;
656.7000;0.0806;-0.8873;
657.0000;0.0765;-0.8873;
657.3000;0.0757;-0.8829;
657.6000;0.0643;-0.9095;
657.9000;0.0887;-0.8453;
658.2000;0.0765;-0.8652;
658.5000;0.0855;-0.8541;
658.8000;0.0847;-0.8652;
659.1000;0.0781;-0.8807;
659.4000;0.0765;-0.8829;
659.7000;0.0716;-0.8896;
660.0000;0.0773;-0.8674;
660.3000;0.0724;-0.8785;
660.6000;0.0830;-0.8541;
660.9000;0.0741;-0.8785;
661.2000;0.0741;-0.8763;
661.5000;0.0733;-0.8851;
661.8000;0.0757;-0.8785;
662.1000;0.0741;-0.8829;
662.4000;0.0724;-0.8829;
662.7000;0.0757;-0.8785;
663.0000;0.0749;-0.8807;
663.3000;0.0757;-0.8829;
663.6000;0.0749;-0.8873;
663.9000;0.0773;-0.8829;
664.2000;0.0741;-0.8851;
664.5000;0.0773;-0.8741;
664.8000;0.0757;-0.8807;
665.1000;0.0733;-0.8807;
665.4000;0.0757;-0.8807;
665.7000;0.0749;-0.8829;
666.0000;0.0724;-0.8918;
666.3000;0.0790;-0.8741;
666.6000;0.0757;-0.8785;
666.9000;0.0716;-0.8829;
667.2000;0.0765;-0.8674;
667.5000;0.0790;-0.8696;
667.8000;0.0781;-0.8696;
668.1000;0.0757;-0.8741;
668.4000;0.0757;-0.8652;
668.7000;0.0765;-0.8652;
669.0000;0.0733;-0.8674;
669.3000;0.0773;-0.8608;
669.6000;0.0781;-0.8652;
669.9000;0.0684;-0.8940;
670.2000;0.0749;-0.8829;
670.5000;0.0757;-0.8918;
670.8000;0.0773;-0.8829;
671.1000;0.0765;-0.8851;
671.4000;0.0781;-0.8873;
671.7000;0.0765;-0.8918;
672.0000;0.0724;-0.9073;
672.3000;0.0676;-0.9183;
672.6000;0.0733;-0.8984;
672.9000;0.0724;-0.8962;
673.2000;0.0749;-0.8984;
673.5000;0.0781;-0.8851;
673.8000;0.0627;-0.9227;
674.1000;0.0855;-0.8608;
674.4000;0.0798;-0.8586;
674.7000;0.0781;-0.8608;
675.0000;0.0765;-0.8586;
675.3000;0.0757;-0.8674;
675.6000;0.0724;-0.8718;
675.9000;0.0773;-0.8630;
676.2000;0.0790;-0.8718;
676.5000;0.0700;-0.8940;
676.8000;0.0773;-0.8718;
677.1000;0.0700;-0.8940;
677.4000;0.0912;-0.8431;
677.7000;0.0749;-0.8873;
678.0000;0.0749;-0.8873;
678.3000;0.0700;-0.8962;
678.6000;0.0757;-0.8763;
678.9000;0.0765;-0.8763;
679.2000;0.0757;-0.8807;
679.5000;0.0741;-0.8829;
679.8000;0.0781;-0.8718;
680.1000;0.0798;-0.8608;
680.4000;0.0741;-0.8718;
680.7000;0.0692;-0.8807;
681.0000;0.0830;-0.8497;
681.3000;0.0749;-0.8741;
681.6000;0.0765;-0.8696;
681.9000;0.0602;-0.9117;
682.2000;0.0790;-0.8652;
682.5000;0.0773;-0.8674;
682.8000;0.0716;-0.8829;
683.1000;0.0781;-0.8652;
683.4000;0.0773;-0.8652;
683.7000;0.0765;-0.8630;
684.0000;0.0741;-0.8718;
684.3000;0.0757;-0.8608;
684.6000;0.0741;-0.8674;
684.9000;0.0757;-0.8630;
685.2000;0.0757;-0.8608;
685.5000;0.0741;-0.8630;
685.8000;0.0724;-0.8652;
686.1000;0.0749;-0.8652;
686.4000;0.0749;-0.8564;
686.7000;0.0716;-0.8696;
687.0000;0.0765;-0.8608;
687.3000;0.0749;-0.8652;
687.6000;0.0757;-0.8630;
687.9000;0.0741;-0.8696;
688.2000;0.0757;-0.8741;
688.5000;0.0781;-0.8674;
688.8000;0.0781;-0.8652;
689.1000;0.0741;-0.8674;
689.4000;0.0765;-0.8652;
689.7000;0.0708;-0.8896;
690.0000;0.0724;-0.8940;
690.3000;0.0757;-0.8896;
690.6000;0.0749;-0.8829;
690.9000;0.0733;-0.8896;
691.2000;0.0724;-0.8918;
691.5000;0.0790;-0.8851;
691.8000;0.0781;-0.8873;
692.1000;0.0749;-0.8896;
692.4000;0.0773;-0.8741;
692.7000;0.0765;-0.8718;
693.0000;0.0733;-0.8718;
693.3000;0.0781;-0.8674;
693.6000;0.0765;-0.8718;
693.9000;0.0627;-0.9050;
694.2000;0.0700;-0.8763;
694.5000;0.0757;-0.8652;
694.8000;0.0757;-0.8674;
695.1000;0.0749;-0.8718;
695.4000;0.0757;-0.8785;
695.7000;0.0765;-0.8696;
696.0000;0.0716;-0.8763;
696.3000;0.0684;-0.8918;
696.6000;0.0741;-0.8807;
696.9000;0.0700;-0.8873;
697.2000;0.0830;-0.8475;
697.5000;0.0765;-0.8763;
697.8000;0.0684;-0.8940;
698.1000;0.0708;-0.8896;
698.4000;0.0741;-0.8829;
698.7000;0.0757;-0.8763;
699.0000;0.0757;-0.8718;
699.3000;0.0749;-0.8652;
699.6000;0.0741;-0.8608;
699.9000;0.0749;-0.8586;
700.2000;0.0757;-0.8630;
700.5000;0.0798;-0.8564;
700.8000;0.0724;-0.8718;
701.1000;0.0757;-0.8674;
701.4000;0.0757;-0.8718;
701.7000;0.0806;-0.8519;
702.0000;0.0741;-0.8630;
702.3000;0.0724;-0.8741;
702.6000;0.0790;-0.8608;
702.9000;0.0684;-0.8918;
703.2000;0.0765;-0.8763;
703.5000;0.0749;-0.8851;
703.8000;0.0773;-0.8763;
704.1000;0.0749;-0.8741;
704.4000;0.0733;-0.8652;
704.7000;0.0749;-0.8475;
705.0000;0.0765;-0.8497;
705.3000;0.0765;-0.8497;
705.6000;0.0749;-0.8696;
705.9000;0.0757;-0.8785;
706.2000;0.0733;-0.8785;
706.5000;0.0773;-0.8674;
706.8000;0.0773;-0.8564;
707.1000;0.0716;-0.8586;
707.4000;0.0741;-0.8475;
707.7000;0.0765;-0.8541;
708.0000;0.0757;-0.8674;
708.3000;0.0765;-0.8696;
708.6000;0.0757;-0.8763;
708.9000;0.0716;-0.8807;
709.2000;0.0741;-0.8718;
709.5000;0.0741;-0.8696;
709.8000;0.0855;-0.8431;
710.1000;0.0773;-0.8652;
710.4000;0.0749;-0.8630;
710.7000;0.0741;-0.8652;
711.0000;0.0733;-0.8696;
711.3000;0.0765;-0.8674;
711.6000;0.0757;-0.8586;
711.9000;0.0684;-0.8696;
712.2000;0.0741;-0.8564;
712.5000;0.0765;-0.8497;
712.8000;0.0765;-0.8564;
713.1000;0.0741;-0.8586;
713.4000;0.0773;-0.8586;
713.7000;0.0806;-0.8475;
714.0000;0.0790;-0.8364;
714.3000;0.0741;-0.8564;
714.6000;0.0749;-0.8564;
714.9000;0.0741;-0.8630;
715.2000;0.0757;-0.8652;
715.5000;0.0741;-0.8652;
715.8000;0.0757;-0.8696;
716.1000;0.0757;-0.8741;
716.4000;0.0749;-0.8785;
716.7000;0.0765;-0.8674;
717.0000;0.0749;-0.8674;
717.3000;0.0733;-0.8718;
717.6000;0.0765;-0.8630;
717.9000;0.0700;-0.8741;
718.2000;0.0757;-0.8608;
718.5000;0.0765;-0.8630;
718.8000;0.0773;-0.8630;
719.1000;0.0741;-0.8652;
719.4000;0.0773;-0.8630;
719.7000;0.0741;-0.8696;
720.0000;0.0708;-0.8741;
720.3000;0.0716;-0.8718;
720.6000;0.0716;-0.8829;
720.9000;0.0724;-0.8807;
721.2000;0.0773;-0.8652;
721.5000;0.0871;-0.8342;
721.8000;0.0733;-0.8674;
722.1000;0.0724;-0.8652;
722.4000;0.0716;-0.8630;
722.7000;0.0838;-0.8364;
723.0000;0.0838;-0.8409;
723.3000;0.0733;-0.8674;
723.6000;0.0765;-0.8674;
723.9000;0.0757;-0.8652;
724.2000;0.0757;-0.8564;
724.5000;0.0700;-0.8674;
724.8000;0.0749;-0.8630;
725.1000;0.0684;-0.8829;
725.4000;0.0700;-0.8807;
725.7000;0.0757;-0.8652;
726.0000;0.0765;-0.8674;
726.3000;0.0741;-0.8718;
726.6000;0.0757;-0.8696;
726.9000;0.0781;-0.8674;
727.2000;0.0749;-0.8785;
727.5000;0.0773;-0.8696;
727.8000;0.0765;-0.8674;
728.1000;0.0806;-0.8541;
728.4000;0.0741;-0.8718;
728.7000;0.0716;-0.8807;
729.0000;0.0749;-0.8785;
729.3000;0.0781;-0.8741;
729.6000;0.0741;-0.8829;
729.9000;0.0716;-0.8807;
730.2000;0.0733;-0.8829;
730.5000;0.0733;-0.8785;
730.8000;0.0708;-0.8851;
731.1000;0.0855;-0.8453;
731.4000;0.0733;-0.8741;
731.7000;0.0838;-0.8519;
732.0000;0.0724;-0.8807;
732.3000;0.0757;-0.8718;
732.6000;0.0790;-0.8630;
732.9000;0.0733;-0.8652;
733.2000;0.0757;-0.8608;
733.5000;0.0724;-0.8741;
733.8000;0.0724;-0.8696;
734.1000;0.0781;-0.8564;
734.4000;0.0749;-0.8652;
734.7000;0.0757;-0.8630;
735.0000;0.0708;-0.8718;
735.3000;0.0757;-0.8696;
735.6000;0.0790;-0.8674;
735.9000;0.0757;-0.8807;
736.2000;0.0741;-0.8829;
736.5000;0.0741;-0.8851;
736.8000;0.0733;-0.8896;
737.1000;0.0765;-0.8763;
737.4000;0.0724;-0.8763;
737.7000;0.0757;-0.8696;
738.0000;0.0741;-0.8763;
738.3000;0.0765;-0.8741;
738.6000;0.0757;-0.8741;
738.9000;0.0749;-0.8807;
739.2000;0.0741;-0.8763;
739.5000;0.0733;-0.8851;
739.8000;0.0667;-0.8984;
740.1000;0.0733;-0.8851;
740.4000;0.0781;-0.8696;
740.7000;0.0741;-0.8630;
741.0000;0.0733;-0.8630;
741.3000;0.0749;-0.8586;
741.6000;0.0749;-0.8564;
741.9000;0.0733;-0.8608;
742.2000;0.0708;-0.8586;
742.5000;0.0781;-0.8475;
742.8000;0.0765;-0.8586;
743.1000;0.0765;-0.8674;
743.4000;0.0781;-0.8564;
743.7000;0.0822;-0.8586;
744.0000;0.0765;-0.8696;
744.3000;0.0733;-0.8807;
744.6000;0.0773;-0.8652;
744.9000;0.0733;-0.8741;
745.2000;0.0790;-0.8564;
745.5000;0.0627;-0.8984;
745.8000;0.0814;-0.8519;
746.1000;0.0790;-0.8564;
746.4000;0.0733;-0.8741;
746.7000;0.0684;-0.8873;
747.0000;0.0765;-0.8652;
747.3000;0.0757;-0.8696;
747.6000;0.0716;-0.8718;
747.9000;0.0814;-0.8564;
748.2000;0.0749;-0.8741;
748.5000;0.0651;-0.9028;
748.8000;0.0749;-0.8785;
749.1000;0.0724;-0.8896;
749.4000;0.0757;-0.8763;
749.7000;0.0781;-0.8674;
750.0000;0.0757;-0.8674;
750.3000;0.0749;-0.8696;
750.6000;0.0741;-0.8741;
750.9000;0.0806;-0.8586;
751.2000;0.0741;-0.8630;
751.5000;0.0798;-0.8497;
751.8000;0.0741;-0.8630;
752.1000;0.0781;-0.8586;
752.4000;0.0602;-0.8940;
752.7000;0.0741;-0.8541;
753.0000;0.0724;-0.8541;
753.3000;0.0733;-0.8541;
753.6000;0.0724;-0.8519;
753.9000;0.0749;-0.8541;
754.2000;0.0765;-0.8541;
754.5000;0.0741;-0.8630;
754.8000;0.0773;-0.8630;
755.1000;0.0765;-0.8696;
755.4000;0.0733;-0.8741;
755.7000;0.0733;-0.8674;
756.0000;0.0765;-0.8541;
756.3000;0.0765;-0.8475;
756.6000;0.0741;-0.8564;
756.9000;0.0765;-0.8519;
757.2000;0.0676;-0.8785;
757.5000;0.0741;-0.8630;
757.8000;0.0790;-0.8497;
758.1000;0.0741;-0.8564;
758.4000;0.0749;-0.8497;
758.7000;0.0765;-0.8475;
759.0000;0.0724;-0.8586;
759.3000;0.0724;-0.8564;
759.6000;0.0765;-0.8387;
759.9000;0.0757;-0.8519;
760.2000;0.0765;-0.8541;
760.5000;0.0724;-0.8586;
760.8000;0.0724;-0.8608;
761.1000;0.0749;-0.8586;
761.4000;0.0724;-0.8674;
761.7000;0.0716;-0.8718;
762.0000;0.0749;-0.8718;
762.3000;0.0757;-0.8674;
762.6000;0.0733;-0.8718;
762.9000;0.0749;-0.8741;
763.2000;0.0773;-0.8608;
763.5000;0.0765;-0.8608;
763.8000;0.0757;-0.8652;
764.1000;0.0708;-0.8763;
764.4000;0.0741;-0.8718;
764.7000;0.0741;-0.8785;
765.0000;0.0708;-0.8851;
765.3000;0.0749;-0.8674;
765.6000;0.0765;-0.8652;
765.9000;0.0847;-0.8519;
766.2000;0.0733;-0.8741;
766.5000;0.0806;-0.8541;
766.8000;0.0676;-0.8873;
767.1000;0.0741;-0.8718;
767.4000;0.0765;-0.8630;
767.7000;0.0741;-0.8696;
768.0000;0.0749;-0.8741;
768.3000;0.0757;-0.8763;
768.6000;0.0773;-0.8696;
768.9000;0.0724;-0.8785;
769.2000;0.0741;-0.8718;
769.5000;0.0773;-0.8586;
769.8000;0.0749;-0.8674;
770.1000;0.0749;-0.8630;
770.4000;0.0741;-0.8652;
770.7000;0.0724;-0.8741;
771.0000;0.0716;-0.8785;
771.3000;0.0749;-0.8652;
771.6000;0.0733;-0.8696;
771.9000;0.0676;-0.8763;
772.2000;0.0724;-0.8718;
772.5000;0.0741;-0.8718;
772.8000;0.0757;-0.8696;
773.1000;0.0741;-0.8696;
773.4000;0.0806;-0.8497;
773.7000;0.0798;-0.8453;
774.0000;0.0716;-0.8608;
774.3000;0.0749;-0.8652;
774.6000;0.0749;-0.8741;
774.9000;0.0773;-0.8696;
775.2000;0.0716;-0.8785;
775.5000;0.0749;-0.8674;
775.8000;0.0733;-0.8674;
776.1000;0.0749;-0.8564;
776.4000;0.0749;-0.8564;
776.7000;0.0741;-0.8564;
777.0000;0.0716;-0.8630;
777.3000;0.0749;-0.8586;
777.6000;0.0741;-0.8564;
777.9000;0.0798;-0.8431;
778.2000;0.0724;-0.8630;
778.5000;0.0757;-0.8564;
778.8000;0.0741;-0.8564;
779.1000;0.0741;-0.8564;
779.4000;0.0757;-0.8541;
779.7000;0.0757;-0.8519;
780.0000;0.0749;-0.8564;
780.3000;0.0741;-0.8586;
780.6000;0.0749;-0.8497;
780.9000;0.0749;-0.8497;
781.2000;0.0855;-0.8276;
781.5000;0.0733;-0.8630;
781.8000;0.0667;-0.8918;
782.1000;0.0733;-0.8785;
782.4000;0.0749;-0.8696;
782.7000;0.0741;-0.8674;
783.0000;0.0741;-0.8630;
783.3000;0.0733;-0.8630;
783.6000;0.0741;-0.8564;
783.9000;0.0741;-0.8674;
784.2000;0.0749;-0.8718;
784.5000;0.0757;-0.8718;
784.8000;0.0692;-0.8940;
785.1000;0.0749;-0.8763;
785.4000;0.0733;-0.8718;
785.7000;0.0716;-0.8741;
786.0000;0.0773;-0.8630;
786.3000;0.0765;-0.8718;
786.6000;0.0733;-0.8807;
786.9000;0.0741;-0.8829;
787.2000;0.0724;-0.8807;
787.5000;0.0651;-0.8962;
787.8000;0.0773;-0.8564;
788.1000;0.0757;-0.8608;
788.4000;0.0749;-0.8608;
788.7000;0.0733;-0.8608;
789.0000;0.0773;-0.8475;
789.3000;0.0716;-0.8652;
789.6000;0.0724;-0.8696;
789.9000;0.0749;-0.8564;
790.2000;0.0798;-0.8475;
790.5000;0.0749;-0.8630;
790.8000;0.0838;-0.8431;
791.1000;0.0765;-0.8586;
791.4000;0.0667;-0.8873;
791.7000;0.0749;-0.8741;
792.0000;0.0822;-0.8564;
792.3000;0.0692;-0.8851;
792.6000;0.0765;-0.8630;
792.9000;0.0765;-0.8608;
793.2000;0.0708;-0.8763;
793.5000;0.0765;-0.8564;
793.8000;0.0773;-0.8497;
794.1000;0.0798;-0.8364;
794.4000;0.0757;-0.8409;
794.7000;0.0733;-0.8409;
795.0000;0.0806;-0.8210;
795.3000;0.0741;-0.8364;
795.6000;0.0667;-0.8541;
795.9000;0.0692;-0.8564;
796.2000;0.0757;-0.8387;
796.5000;0.0749;-0.8364;
796.8000;0.0716;-0.8519;
797.1000;0.0733;-0.8497;
797.4000;0.0733;-0.8541;
797.7000;0.0773;-0.8475;
798.0000;0.0749;-0.8564;
798.3000;0.0724;-0.8541;
798.6000;0.0749;-0.8387;
798.9000;0.0773;-0.8364;
799.2000;0.0757;-0.8364;
799.5000;0.0741;-0.8409;
799.8000;0.0733;-0.8497;
800.1000;0.0749;-0.8564;
800.4000;0.0765;-0.8564;
800.7000;0.0741;-0.8586;
801.0000;0.0757;-0.8519;
801.3000;0.0757;-0.8586;
801.6000;0.0741;-0.8586;
801.9000;0.0757;-0.8519;
802.2000;0.0741;-0.8564;
802.5000;0.0733;-0.8608;
802.8000;0.0716;-0.8586;
803.1000;0.0741;-0.8586;
803.4000;0.0773;-0.8475;
803.7000;0.0798;-0.8364;
804.0000;0.0749;-0.8497;
804.3000;0.0749;-0.8519;
804.6000;0.0692;-0.8608;
804.9000;0.0757;-0.8453;
805.2000;0.0651;-0.8785;
805.5000;0.0733;-0.8541;
805.8000;0.0733;-0.8519;
806.1000;0.0724;-0.8630;
806.4000;0.0757;-0.8652;
806.7000;0.0749;-0.8718;
807.0000;0.0757;-0.8608;
807.3000;0.0741;-0.8652;
807.6000;0.0667;-0.8851;
807.9000;0.0708;-0.8741;
808.2000;0.0741;-0.8696;
808.5000;0.0716;-0.8785;
808.8000;0.0749;-0.8652;
809.1000;0.0773;-0.8608;
809.4000;0.0765;-0.8608;
809.7000;0.0749;-0.8652;
810.0000;0.0749;-0.8608;
810.3000;0.0757;-0.8564;
810.6000;0.0814;-0.8409;
810.9000;0.0716;-0.8608;
811.2000;0.0749;-0.8519;
811.5000;0.0708;-0.8564;
811.8000;0.0692;-0.8564;
812.1000;0.0757;-0.8497;
812.4000;0.0749;-0.8497;
812.7000;0.0822;-0.8364;
813.0000;0.0855;-0.8254;
813.3000;0.0741;-0.8586;
813.6000;0.0741;-0.8541;
813.9000;0.0724;-0.8541;
814.2000;0.0692;-0.8608;
814.5000;0.0741;-0.8519;
814.8000;0.0741;-0.8541;
815.1000;0.0757;-0.8431;
815.4000;0.0765;-0.8364;
815.7000;0.0765;-0.8387;
816.0000;0.0847;-0.8187;
816.3000;0.0765;-0.8431;
816.6000;0.0733;-0.8519;
816.9000;0.0733;-0.8541;
817.2000;0.0749;-0.8541;
817.5000;0.0724;-0.8696;
817.8000;0.0814;-0.8387;
818.1000;0.0765;-0.8519;
818.4000;0.0700;-0.8696;
818.7000;0.0724;-0.8608;
819.0000;0.0741;-0.8652;
819.3000;0.0781;-0.8652;
819.6000;0.0741;-0.8718;
819.9000;0.0749;-0.8608;
820.2000;0.0749;-0.8541;
820.5000;0.0724;-0.8608;
820.8000;0.0716;-0.8630;
821.1000;0.0757;-0.8519;
821.4000;0.0716;-0.8586;
821.7000;0.0724;-0.8519;
822.0000;0.0733;-0.8541;
822.3000;0.0749;-0.8586;
822.6000;0.0724;-0.8564;
822.9000;0.0741;-0.8541;
823.2000;0.0765;-0.8497;
823.5000;0.0724;-0.8608;
823.8000;0.0749;-0.8564;
824.1000;0.0773;-0.8475;
824.4000;0.0749;-0.8541;
824.7000;0.0749;-0.8630;
825.0000;0.0741;-0.8586;
825.3000;0.0749;-0.8541;
825.6000;0.0765;-0.8564;
825.9000;0.0773;-0.8564;
826.2000;0.0757;-0.8475;
826.5000;0.0733;-0.8608;
826.8000;0.0741;-0.8630;
827.1000;0.0667;-0.8785;
827.4000;0.0749;-0.8586;
827.7000;0.0749;-0.8586;
828.0000;0.0749;-0.8497;
828.3000;0.0749;-0.8475;
828.6000;0.0757;-0.8453;
828.9000;0.0757;-0.8497;
829.2000;0.0838;-0.8298;
829.5000;0.0757;-0.8586;
829.8000;0.0733;-0.8541;
830.1000;0.0724;-0.8497;
830.4000;0.0700;-0.8564;
830.7000;0.0700;-0.8586;
831.0000;0.0724;-0.8564;
831.3000;0.0716;-0.8541;
831.6000;0.0733;-0.8586;
831.9000;0.0757;-0.8564;
832.2000;0.0741;-0.8564;
832.5000;0.0716;-0.8652;
832.8000;0.0757;-0.8519;
833.1000;0.0733;-0.8564;
833.4000;0.0765;-0.8541;
833.7000;0.0765;-0.8630;
834.0000;0.0814;-0.8519;
834.3000;0.0716;-0.8718;
834.6000;0.0749;-0.8630;
834.9000;0.0749;-0.8674;
835.2000;0.0765;-0.8630;
835.5000;0.0749;-0.8718;
835.8000;0.0692;-0.8829;
836.1000;0.0798;-0.8608;
836.4000;0.0733;-0.8718;
836.7000;0.0733;-0.8807;
837.0000;0.0798;-0.8652;
837.3000;0.0716;-0.8829;
837.6000;0.0724;-0.8763;
837.9000;0.0733;-0.8741;
838.2000;0.0749;-0.8741;
838.5000;0.0733;-0.8652;
838.8000;0.0741;-0.8608;
839.1000;0.0733;-0.8652;
839.4000;0.0757;-0.8652;
839.7000;0.0724;-0.8741;
840.0000;0.0676;-0.8829;
840.3000;0.0733;-0.8696;
840.6000;0.0733;-0.8696;
840.9000;0.0781;-0.8630;
841.2000;0.0749;-0.8674;
841.5000;0.0733;-0.8763;
841.8000;0.0741;-0.8674;
842.1000;0.0741;-0.8630;
842.4000;0.0749;-0.8696;
842.7000;0.0741;-0.8718;
843.0000;0.0733;-0.8718;
843.3000;0.0733;-0.8652;
843.6000;0.0733;-0.8652;
843.9000;0.0773;-0.8586;
844.2000;0.0733;-0.8718;
844.5000;0.0733;-0.8718;
844.8000;0.0757;-0.8696;
845.1000;0.0602;-0.9073;
845.4000;0.0749;-0.8696;
845.7000;0.0757;-0.8564;
846.0000;0.0741;-0.8586;
846.3000;0.0724;-0.8652;
846.6000;0.0741;-0.8652;
846.9000;0.0741;-0.8630;
847.2000;0.0765;-0.8519;
847.5000;0.0741;-0.8652;
847.8000;0.0716;-0.8763;
848.1000;0.0708;-0.8763;
848.4000;0.0757;-0.8674;
848.7000;0.0757;-0.8674;
849.0000;0.0749;-0.8718;
849.3000;0.0708;-0.8873;
849.6000;0.0733;-0.8807;
849.9000;0.0806;-0.8630;
850.2000;0.0798;-0.8630;
850.5000;0.0757;-0.8807;
850.8000;0.0627;-0.9095;
851.1000;0.0749;-0.8674;
851.4000;0.0676;-0.8918;
851.7000;0.0733;-0.8807;
852.0000;0.0741;-0.8696;
852.3000;0.0741;-0.8696;
852.6000;0.0692;-0.8829;
852.9000;0.0790;-0.8652;
853.2000;0.0790;-0.8608;
853.5000;0.0724;-0.8763;
853.8000;0.0749;-0.8741;
854.1000;0.0765;-0.8718;
854.4000;0.0838;-0.8586;
854.7000;0.0635;-0.9073;
855.0000;0.0700;-0.8829;
855.3000;0.0847;-0.8475;
855.6000;0.0733;-0.8763;
855.9000;0.0716;-0.8807;
856.2000;0.0765;-0.8630;
856.5000;0.0733;-0.8652;
856.8000;0.0773;-0.8564;
857.1000;0.0741;-0.8630;
857.4000;0.0619;-0.8918;
857.7000;0.0757;-0.8674;
858.0000;0.0684;-0.8918;
858.3000;0.0733;-0.8829;
858.6000;0.0741;-0.8785;
858.9000;0.0724;-0.8807;
859.2000;0.0733;-0.8785;
859.5000;0.0749;-0.8763;
859.8000;0.0733;-0.8785;
860.1000;0.0733;-0.8785;
860.4000;0.0749;-0.8741;
860.7000;0.0708;-0.8918;
861.0000;0.0676;-0.8984;
861.3000;0.0741;-0.8851;
861.6000;0.0716;-0.8851;
861.9000;0.0724;-0.8873;
862.2000;0.0741;-0.8763;
862.5000;0.0684;-0.8873;
862.8000;0.0757;-0.8718;
863.1000;0.0749;-0.8718;
863.4000;0.0741;-0.8741;
863.7000;0.0765;-0.8741;
864.0000;0.0692;-0.8940;
864.3000;0.0806;-0.8586;
864.6000;0.0741;-0.8829;
864.9000;0.0716;-0.8940;
865.2000;0.0757;-0.8652;
865.5000;0.0814;-0.8364;
865.8000;0.0733;-0.8475;
866.1000;0.0773;-0.8497;
866.4000;0.0676;-0.8763;
866.7000;0.0741;-0.8630;
867.0000;0.0749;-0.8674;
867.3000;0.0733;-0.8696;
867.6000;0.0798;-0.8453;
867.9000;0.0578;-0.8940;
868.2000;0.0724;-0.8586;
868.5000;0.0741;-0.8497;
868.8000;0.0757;-0.8409;
869.1000;0.0733;-0.8431;
869.4000;0.0749;-0.8497;
869.7000;0.0708;-0.8586;
870.0000;0.0733;-0.8519;
870.3000;0.0749;-0.8541;
870.6000;0.0749;-0.8519;
870.9000;0.0765;-0.8453;
871.2000;0.0733;-0.8586;
871.5000;0.0741;-0.8541;
871.8000;0.0741;-0.8586;
872.1000;0.0741;-0.8541;
872.4000;0.0749;-0.8586;
872.7000;0.0749;-0.8630;
873.0000;0.0733;-0.8630;
873.3000;0.0741;-0.8630;
873.6000;0.0790;-0.8519;
873.9000;0.0749;-0.8564;
874.2000;0.0667;-0.8674;
874.5000;0.0724;-0.8541;
874.8000;0.0619;-0.8785;
875.1000;0.0757;-0.8519;
875.4000;0.0741;-0.8564;
875.7000;0.0724;-0.8586;
876.0000;0.0724;-0.8519;
876.3000;0.0757;-0.8453;
876.6000;0.0724;-0.8387;
876.9000;0.0716;-0.8364;
877.2000;0.0716;-0.8475;
877.5000;0.0733;-0.8564;
877.8000;0.0863;-0.8298;
878.1000;0.0741;-0.8652;
878.4000;0.0708;-0.8674;
878.7000;0.0757;-0.8608;
879.0000;0.0733;-0.8696;
879.3000;0.0757;-0.8564;
879.6000;0.0724;-0.8608;
879.9000;0.0749;-0.8608;
880.2000;0.0733;-0.8630;
880.5000;0.0733;-0.8696;
880.8000;0.0733;-0.8652;
881.1000;0.0724;-0.8785;
881.4000;0.0716;-0.8785;
881.7000;0.0741;-0.8674;
882.0000;0.0814;-0.8497;
882.3000;0.0741;-0.8630;
882.6000;0.0741;-0.8674;
882.9000;0.0749;-0.8674;
883.2000;0.0741;-0.8718;
883.5000;0.0741;-0.8741;
883.8000;0.0757;-0.8718;
884.1000;0.0757;-0.8696;
884.4000;0.0741;-0.8630;
884.7000;0.0749;-0.8564;
885.0000;0.0733;-0.8564;
885.3000;0.0733;-0.8586;
885.6000;0.0749;-0.8564;
885.9000;0.0724;-0.8564;
886.2000;0.0724;-0.8475;
886.5000;0.0700;-0.8519;
886.8000;0.0773;-0.8342;
887.1000;0.0733;-0.8431;
887.4000;0.0708;-0.8564;
887.7000;0.0757;-0.8453;
888.0000;0.0611;-0.8807;
888.3000;0.0830;-0.8210;
888.6000;0.0741;-0.8519;
888.9000;0.0790;-0.8497;
889.2000;0.0749;-0.8564;
889.5000;0.0733;-0.8608;
889.8000;0.0741;-0.8564;
890.1000;0.0724;-0.8630;
890.4000;0.0757;-0.8541;
890.7000;0.0757;-0.8497;
891.0000;0.0749;-0.8608;
891.3000;0.0741;-0.8608;
891.6000;0.0741;-0.8564;
891.9000;0.0749;-0.8475;
892.2000;0.0741;-0.8497;
892.5000;0.0741;-0.8409;
892.8000;0.0741;-0.8387;
893.1000;0.0716;-0.8475;
893.4000;0.0757;-0.8409;
893.7000;0.0773;-0.8364;
894.0000;0.0733;-0.8541;
894.3000;0.0741;-0.8541;
894.6000;0.0757;-0.8564;
894.9000;0.0741;-0.8564;
895.2000;0.0733;-0.8630;
895.5000;0.0741;-0.8608;
895.8000;0.0765;-0.8541;
896.1000;0.0724;-0.8630;
896.4000;0.0765;-0.8674;
896.7000;0.0757;-0.8674;
897.0000;0.0765;-0.8696;
897.3000;0.0724;-0.8807;
897.6000;0.0733;-0.8741;
897.9000;0.0741;-0.8807;
898.2000;0.0806;-0.8586;
898.5000;0.0757;-0.8718;
898.8000;0.0806;-0.8497;
899.1000;0.0765;-0.8541;
899.4000;0.0757;-0.8564;
899.7000;0.0749;-0.8541;
900.0000;0.0757;-0.8519;
900.3000;0.0741;-0.8652;
900.6000;0.0806;-0.8497;
900.9000;0.0765;-0.8718;
901.2000;0.0700;-0.8918;
901.5000;0.0741;-0.8785;
901.8000;0.0741;-0.8785;
902.1000;0.0773;-0.8741;
902.4000;0.0749;-0.8785;
902.7000;0.0741;-0.8718;
903.0000;0.0749;-0.8630;
903.3000;0.0692;-0.8652;
903.6000;0.0741;-0.8541;
903.9000;0.0733;-0.8586;
904.2000;0.0724;-0.8674;
904.5000;0.0757;-0.8608;
904.8000;0.0733;-0.8652;
905.1000;0.0676;-0.8763;
905.4000;0.0765;-0.8586;
905.7000;0.0724;-0.8741;
906.0000;0.0773;-0.8608;
906.3000;0.0684;-0.8829;
906.6000;0.0765;-0.8586;
906.9000;0.0708;-0.8652;
907.2000;0.0798;-0.8475;
907.5000;0.0724;-0.8718;
907.8000;0.0741;-0.8674;
908.1000;0.0773;-0.8586;
908.4000;0.0765;-0.8541;
908.7000;0.0741;-0.8608;
909.0000;0.0733;-0.8652;
909.3000;0.0733;-0.8696;
909.6000;0.0741;-0.8652;
909.9000;0.0733;-0.8652;
910.2000;0.0708;-0.8763;
910.5000;0.0724;-0.8718;
910.8000;0.0749;-0.8785;
911.1000;0.0724;-0.8851;
911.4000;0.0708;-0.8896;
911.7000;0.0733;-0.8851;
912.0000;0.0724;-0.8962;
912.3000;0.0741;-0.8962;
912.6000;0.0708;-0.8918;
912.9000;0.0733;-0.8829;
913.2000;0.0773;-0.8696;
913.5000;0.0741;-0.8674;
913.8000;0.0749;-0.8718;
914.1000;0.0773;-0.8718;
914.4000;0.0733;-0.8807;
914.7000;0.0716;-0.8896;
915.0000;0.0741;-0.8785;
915.3000;0.0733;-0.8829;
915.6000;0.0741;-0.8807;
915.9000;0.0700;-0.8918;
916.2000;0.0724;-0.8873;
916.5000;0.0741;-0.8807;
916.8000;0.0741;-0.8696;
917.1000;0.0724;-0.8674;
917.4000;0.0708;-0.8718;
917.7000;0.0724;-0.8652;
918.0000;0.0741;-0.8674;
918.3000;0.0757;-0.8564;
918.6000;0.0749;-0.8519;
918.9000;0.0741;-0.8564;
919.2000;0.0724;-0.8652;
919.5000;0.0733;-0.8741;
919.8000;0.0757;-0.8674;
920.1000;0.0733;-0.8652;
920.4000;0.0733;-0.8674;
920.7000;0.0724;-0.8630;
921.0000;0.0733;-0.8608;
921.3000;0.0741;-0.8652;
921.6000;0.0724;-0.8652;
921.9000;0.0773;-0.8608;
922.2000;0.0733;-0.8696;
922.5000;0.0749;-0.8696;
922.8000;0.0733;-0.8829;
923.1000;0.0765;-0.8785;
923.4000;0.0733;-0.8807;
923.7000;0.0741;-0.8741;
924.0000;0.0733;-0.8785;
924.3000;0.0741;-0.8718;
924.6000;0.0749;-0.8586;
924.9000;0.0733;-0.8586;
925.2000;0.0708;-0.8696;
925.5000;0.0716;-0.8696;
925.8000;0.0749;-0.8586;
926.1000;0.0757;-0.8586;
926.4000;0.0676;-0.8785;
926.7000;0.0749;-0.8608;
927.0000;0.0733;-0.8608;
927.3000;0.0733;-0.8674;
927.6000;0.0724;-0.8696;
927.9000;0.0733;-0.8741;
928.2000;0.0773;-0.8608;
928.5000;0.0684;-0.8940;
928.8000;0.0757;-0.8630;
929.1000;0.0733;-0.8608;
929.4000;0.0741;-0.8497;
929.7000;0.0741;-0.8453;
930.0000;0.0741;-0.8431;
930.3000;0.0659;-0.8652;
930.6000;0.0733;-0.8541;
930.9000;0.0749;-0.8453;
931.2000;0.0733;-0.8497;
931.5000;0.0749;-0.8541;
931.8000;0.0716;-0.8586;
932.1000;0.0757;-0.8586;
932.4000;0.0667;-0.8785;
932.7000;0.0724;-0.8674;
933.0000;0.0741;-0.8696;
933.3000;0.0716;-0.8807;
933.6000;0.0733;-0.8807;
933.9000;0.0749;-0.8807;
934.2000;0.0741;-0.8851;
934.5000;0.0741;-0.8829;
934.8000;0.0733;-0.8763;
935.1000;0.0733;-0.8674;
935.4000;0.0708;-0.8652;
935.7000;0.0724;-0.8497;
936.0000;0.0741;-0.8564;
936.3000;0.0749;-0.8564;
936.6000;0.0741;-0.8519;
936.9000;0.0741;-0.8586;
937.2000;0.0749;-0.8608;
937.5000;0.0757;-0.8674;
937.8000;0.0871;-0.8431;
938.1000;0.0773;-0.8785;
938.4000;0.0749;-0.8940;
938.7000;0.0765;-0.8785;
939.0000;0.0749;-0.8785;
939.3000;0.0724;-0.8807;
939.6000;0.0741;-0.8696;
939.9000;0.0741;-0.8608;
940.2000;0.0749;-0.8475;
940.5000;0.0716;-0.8519;
940.8000;0.0733;-0.8431;
941.1000;0.0741;-0.8342;
941.4000;0.0733;-0.8387;
941.7000;0.0741;-0.8475;
942.0000;0.0733;-0.8608;
942.3000;0.0708;-0.8674;
942.6000;0.0741;-0.8497;
942.9000;0.0733;-0.8453;
943.2000;0.0733;-0.8431;
943.5000;0.0733;-0.8497;
943.8000;0.0749;-0.8431;
944.1000;0.0724;-0.8497;
944.4000;0.0741;-0.8431;
944.7000;0.0741;-0.8475;
945.0000;0.0724;-0.8541;
945.3000;0.0724;-0.8586;
945.6000;0.0733;-0.8564;
945.9000;0.0765;-0.8475;
946.2000;0.0708;-0.8608;
946.5000;0.0741;-0.8497;
946.8000;0.0667;-0.8630;
947.1000;0.0741;-0.8497;
947.4000;0.0716;-0.8564;
947.7000;0.0724;-0.8497;
948.0000;0.0765;-0.8387;
948.3000;0.0692;-0.8608;
948.6000;0.0733;-0.8453;
948.9000;0.0724;-0.8475;
949.2000;0.0749;-0.8475;
949.5000;0.0708;-0.8519;
949.8000;0.0724;-0.8409;
950.1000;0.0749;-0.8387;
950.4000;0.0741;-0.8387;
950.7000;0.0724;-0.8453;
951.0000;0.0724;-0.8541;
951.3000;0.0733;-0.8564;
951.6000;0.0635;-0.8807;
951.9000;0.0733;-0.8519;
952.2000;0.0741;-0.8497;
952.5000;0.0749;-0.8608;
952.8000;0.0871;-0.8298;
953.1000;0.0757;-0.8519;
953.4000;0.0724;-0.8586;
953.7000;0.0733;-0.8519;
954.0000;0.0781;-0.8364;
954.3000;0.0741;-0.8431;
954.6000;0.0749;-0.8497;
954.9000;0.0749;-0.8564;
955.2000;0.0716;-0.8652;
955.5000;0.0733;-0.8608;
955.8000;0.0741;-0.8652;
956.1000;0.0765;-0.8564;
956.4000;0.0741;-0.8564;
956.7000;0.0798;-0.8409;
957.0000;0.0838;-0.8276;
957.3000;0.0757;-0.8497;
957.6000;0.0733;-0.8541;
957.9000;0.0749;-0.8541;
958.2000;0.0757;-0.8586;
958.5000;0.0716;-0.8674;
958.8000;0.0659;-0.8807;
959.1000;0.0749;-0.8564;
959.4000;0.0749;-0.8586;
959.7000;0.0749;-0.8564;
960.0000;0.0635;-0.8696;
960.3000;0.0765;-0.8342;
960.6000;0.0749;-0.8453;
960.9000;0.0716;-0.8453;
961.2000;0.0659;-0.8696;
961.5000;0.0724;-0.8541;
961.8000;0.0708;-0.8652;
962.1000;0.0749;-0.8652;
962.4000;0.0716;-0.8718;
962.7000;0.0733;-0.8652;
963.0000;0.0765;-0.8564;
963.3000;0.0749;-0.8564;
963.6000;0.0749;-0.8564;
963.9000;0.0830;-0.8276;
964.2000;0.0757;-0.8497;
964.5000;0.0611;-0.8851;
964.8000;0.0757;-0.8541;
965.1000;0.0757;-0.8497;
965.4000;0.0765;-0.8453;
965.7000;0.0733;-0.8475;
966.0000;0.0733;-0.8475;
966.3000;0.0716;-0.8541;
966.6000;0.0741;-0.8519;
966.9000;0.0757;-0.8541;
967.2000;0.0765;-0.8497;
967.5000;0.0724;-0.8564;
967.8000;0.0741;-0.8541;
968.1000;0.0757;-0.8519;
968.4000;0.0790;-0.8409;
968.7000;0.0708;-0.8541;
969.0000;0.0773;-0.8475;
969.3000;0.0724;-0.8608;
969.6000;0.0749;-0.8608;
969.9000;0.0659;-0.8785;
970.2000;0.0716;-0.8564;
970.5000;0.0765;-0.8364;
970.8000;0.0749;-0.8364;
971.1000;0.0733;-0.8409;
971.4000;0.0790;-0.8254;
971.7000;0.0741;-0.8387;
972.0000;0.0724;-0.8497;
972.3000;0.0724;-0.8541;
972.6000;0.0724;-0.8541;
972.9000;0.0708;-0.8431;
973.2000;0.0708;-0.8431;
973.5000;0.0741;-0.8342;
973.8000;0.0733;-0.8431;
974.1000;0.0741;-0.8387;
974.4000;0.0741;-0.8431;
974.7000;0.0741;-0.8497;
975.0000;0.0733;-0.8586;
975.3000;0.0741;-0.8564;
975.6000;0.0733;-0.8608;
975.9000;0.0790;-0.8586;
976.2000;0.0757;-0.8674;
976.5000;0.0757;-0.8718;
976.8000;0.0806;-0.8586;
977.1000;0.0733;-0.8696;
977.4000;0.0773;-0.8586;
977.7000;0.0733;-0.8718;
978.0000;0.0757;-0.8718;
978.3000;0.0667;-0.8918;
978.6000;0.0733;-0.8741;
978.9000;0.0733;-0.8696;
979.2000;0.0741;-0.8741;
979.5000;0.0708;-0.8763;
979.8000;0.0790;-0.8541;
980.1000;0.0741;-0.8630;
980.4000;0.0733;-0.8696;
980.7000;0.0733;-0.8696;
981.0000;0.0724;-0.8785;
981.3000;0.0757;-0.8630;
981.6000;0.0700;-0.8718;
981.9000;0.0814;-0.8387;
982.2000;0.0733;-0.8586;
982.5000;0.0749;-0.8586;
982.8000;0.0733;-0.8608;
983.1000;0.0733;-0.8586;
983.4000;0.0741;-0.8519;
983.7000;0.0798;-0.8342;
984.0000;0.0733;-0.8497;
984.3000;0.0749;-0.8453;
984.6000;0.0749;-0.8497;
984.9000;0.0716;-0.8564;
985.2000;0.0733;-0.8630;
985.5000;0.0708;-0.8741;
985.8000;0.0757;-0.8674;
986.1000;0.0708;-0.8718;
986.4000;0.0741;-0.8586;
986.7000;0.0765;-0.8541;
987.0000;0.0741;-0.8608;
987.3000;0.0757;-0.8564;
987.6000;0.0741;-0.8630;
987.9000;0.0749;-0.8608;
988.2000;0.0749;-0.8586;
988.5000;0.0700;-0.8718;
988.8000;0.0741;-0.8741;
989.1000;0.0757;-0.8763;
989.4000;0.0757;-0.8696;
989.7000;0.0749;-0.8763;
990.0000;0.0733;-0.8763;
990.3000;0.0724;-0.8696;
990.6000;0.0733;-0.8718;
990.9000;0.0667;-0.8962;
991.2000;0.0749;-0.8829;
991.5000;0.0733;-0.8785;
991.8000;0.0790;-0.8696;
992.1000;0.0741;-0.8807;
992.4000;0.0741;-0.8918;
992.7000;0.0757;-0.8696;
993.0000;0.0716;-0.8829;
993.3000;0.0716;-0.8807;
993.6000;0.0757;-0.8586;
993.9000;0.0741;-0.8718;
994.2000;0.0790;-0.8674;
994.5000;0.0773;-0.8630;
994.8000;0.0700;-0.8851;
995.1000;0.0741;-0.8741;
995.4000;0.0741;-0.8741;
995.7000;0.0765;-0.8696;
996.0000;0.0749;-0.8741;
996.3000;0.0724;-0.8851;
996.6000;0.0863;-0.8453;
996.9000;0.0733;-0.8763;
997.2000;0.0724;-0.8785;
997.5000;0.0733;-0.8763;
997.8000;0.0757;-0.8630;
998.1000;0.0749;-0.8785;
998.4000;0.0757;-0.8741;
998.7000;0.0733;-0.8763;
999.0000;0.0627;-0.8984;
999.3000;0.0716;-0.8718;
999.6000;0.0741;-0.8586;
999.9000;0.0757;-0.8564;
1000.2000;0.0790;-0.8497;
1000.5000;0.0741;-0.8630;
1000.8000;0.0757;-0.8564;
1001.1000;0.0667;-0.8829;
1001.4000;0.0708;-0.8718;
1001.7000;0.0716;-0.8741;
1002.0000;0.0749;-0.8674;
1002.3000;0.0773;-0.8630;
1002.6000;0.0659;-0.9028;
1002.9000;0.0733;-0.8829;
1003.2000;0.0659;-0.8807;
1003.5000;0.0773;-0.8541;
1003.8000;0.0855;-0.8254;
1004.1000;0.0773;-0.8431;
1004.4000;0.0700;-0.8630;
1004.7000;0.0724;-0.8541;
1005.0000;0.0724;-0.8541;
1005.3000;0.0733;-0.8519;
1005.6000;0.0700;-0.8630;
1005.9000;0.0749;-0.8586;
1006.2000;0.0733;-0.8652;
1006.5000;0.0724;-0.8718;
1006.8000;0.0708;-0.8741;
1007.1000;0.0724;-0.8718;
1007.4000;0.0741;-0.8674;
1007.7000;0.0749;-0.8564;
1008.0000;0.0724;-0.8674;
1008.3000;0.0741;-0.8497;
1008.6000;0.0741;-0.8519;
1008.9000;0.0741;-0.8608;
1009.2000;0.0733;-0.8608;
1009.5000;0.0757;-0.8541;
1009.8000;0.0757;-0.8541;
1010.1000;0.0749;-0.8475;
1010.4000;0.0733;-0.8564;
1010.7000;0.0741;-0.8652;
1011.0000;0.0749;-0.8564;
1011.3000;0.0733;-0.8630;
1011.6000;0.0741;-0.8674;
1011.9000;0.0724;-0.8718;
1012.2000;0.0716;-0.8763;
1012.5000;0.0733;-0.8763;
1012.8000;0.0741;-0.8674;
1013.1000;0.0733;-0.8763;
1013.4000;0.0708;-0.8785;
1013.7000;0.0741;-0.8674;
1014.0000;0.0749;-0.8696;
1014.3000;0.0700;-0.8741;
1014.6000;0.0733;-0.8564;
1014.9000;0.0863;-0.8276;
1015.2000;0.0733;-0.8608;
1015.5000;0.0724;-0.8608;
1015.8000;0.0790;-0.8475;
1016.1000;0.0765;-0.8541;
1016.4000;0.0716;-0.8564;
1016.7000;0.0716;-0.8541;
1017.0000;0.0749;-0.8475;
1017.3000;0.0749;-0.8431;
1017.6000;0.0700;-0.8519;
1017.9000;0.0741;-0.8409;
1018.2000;0.0733;-0.8409;
1018.5000;0.0749;-0.8453;
1018.8000;0.0757;-0.8453;
1019.1000;0.0757;-0.8364;
1019.4000;0.0749;-0.8364;
1019.7000;0.0741;-0.8320;
1020.0000;0.0741;-0.8342;
1020.3000;0.0741;-0.8409;
1020.6000;0.0724;-0.8453;
1020.9000;0.0733;-0.8431;
1021.2000;0.0741;-0.8431;
1021.5000;0.0733;-0.8431;
1021.8000;0.0781;-0.8431;
1022.1000;0.0733;-0.8519;
1022.4000;0.0724;-0.8475;
1022.7000;0.0781;-0.8497;
1023.0000;0.0724;-0.8718;
1023.3000;0.0733;-0.8741;
1023.6000;0.0765;-0.8586;
1023.9000;0.0749;-0.8519;
1024.2000;0.0757;-0.8497;
1024.5000;0.0757;-0.8586;
1024.8000;0.0798;-0.8541;
1025.1000;0.0676;-0.8851;
1025.4000;0.0741;-0.8630;
1025.7000;0.0749;-0.8608;
1026.0000;0.0708;-0.8652;
1026.3000;0.0733;-0.8564;
1026.6000;0.0765;-0.8497;
1026.9000;0.0724;-0.8652;
1027.2000;0.0733;-0.8564;
1027.5000;0.0724;-0.8541;
1027.8000;0.0733;-0.8564;
1028.1000;0.0790;-0.8497;
1028.4000;0.0733;-0.8586;
1028.7000;0.0765;-0.8564;
1029.0000;0.0749;-0.8608;
1029.3000;0.0749;-0.8541;
1029.6000;0.0741;-0.8497;
1029.9000;0.0773;-0.8364;
1030.2000;0.0749;-0.8497;
1030.5000;0.0708;-0.8652;
1030.8000;0.0765;-0.8519;
1031.1000;0.0741;-0.8541;
1031.4000;0.0643;-0.8674;
1031.7000;0.0733;-0.8431;
1032.0000;0.0733;-0.8564;
1032.3000;0.0733;-0.8630;
1032.6000;0.0741;-0.8652;
1032.9000;0.0741;-0.8674;
1033.2000;0.0749;-0.8564;
1033.5000;0.0667;-0.8763;
1033.8000;0.0773;-0.8475;
1034.1000;0.0757;-0.8519;
1034.4000;0.0749;-0.8541;
1034.7000;0.0781;-0.8541;
1035.0000;0.0757;-0.8541;
1035.3000;0.0700;-0.8630;
1035.6000;0.0724;-0.8564;
1035.9000;0.0757;-0.8497;
1036.2000;0.0765;-0.8431;
1036.5000;0.0773;-0.8475;
1036.8000;0.0643;-0.8718;
1037.1000;0.0741;-0.8475;
1037.4000;0.0749;-0.8497;
1037.7000;0.0749;-0.8541;
1038.0000;0.0733;-0.8564;
1038.3000;0.0773;-0.8519;
1038.6000;0.0814;-0.8475;
1038.9000;0.0733;-0.8652;
1039.2000;0.0773;-0.8608;
1039.5000;0.0659;-0.8829;
1039.8000;0.0692;-0.8741;
1040.1000;0.0724;-0.8674;
1040.4000;0.0733;-0.8608;
1040.7000;0.0708;-0.8608;
1041.0000;0.0741;-0.8497;
1041.3000;0.0700;-0.8586;
1041.6000;0.0749;-0.8497;
1041.9000;0.0716;-0.8453;
1042.2000;0.0741;-0.8431;
1042.5000;0.0741;-0.8387;
1042.8000;0.0749;-0.8320;
1043.1000;0.0741;-0.8276;
1043.4000;0.0749;-0.8165;
1043.7000;0.0749;-0.8187;
1044.0000;0.0749;-0.8232;
1044.3000;0.0741;-0.8320;
1044.6000;0.0733;-0.8342;
1044.9000;0.0741;-0.8342;
1045.2000;0.0716;-0.8453;
1045.5000;0.0733;-0.8564;
1045.8000;0.0749;-0.8519;
1046.1000;0.0733;-0.8541;
1046.4000;0.0814;-0.8320;
1046.7000;0.0708;-0.8586;
1047.0000;0.0741;-0.8475;
1047.3000;0.0733;-0.8409;
1047.6000;0.0724;-0.8497;
1047.9000;0.0741;-0.8519;
1048.2000;0.0716;-0.8586;
1048.5000;0.0741;-0.8519;
1048.8000;0.0749;-0.8453;
1049.1000;0.0757;-0.8409;
1049.4000;0.0765;-0.8431;
1049.7000;0.0716;-0.8541;
1050.0000;0.0724;-0.8564;
1050.3000;0.0895;-0.8099;
1050.6000;0.0781;-0.8320;
1050.9000;0.0716;-0.8453;
1051.2000;0.0716;-0.8497;
1051.5000;0.0716;-0.8431;
1051.8000;0.0708;-0.8475;
1052.1000;0.0684;-0.8541;
1052.4000;0.0773;-0.8342;
1052.7000;0.0741;-0.8519;
1053.0000;0.0798;-0.8320;
1053.3000;0.0733;-0.8541;
1053.6000;0.0749;-0.8475;
1053.9000;0.0790;-0.8364;
1054.2000;0.0733;-0.8519;
1054.5000;0.0749;-0.8342;
1054.8000;0.0749;-0.8342;
1055.1000;0.0643;-0.8564;
1055.4000;0.0716;-0.8387;
1055.7000;0.0741;-0.8409;
1056.0000;0.0667;-0.8519;
1056.3000;0.0749;-0.8387;
1056.6000;0.0716;-0.8475;
1056.9000;0.0741;-0.8453;
1057.2000;0.0749;-0.8387;
1057.5000;0.0716;-0.8475;
1057.8000;0.0724;-0.8519;
1058.1000;0.0733;-0.8519;
1058.4000;0.0741;-0.8497;
1058.7000;0.0733;-0.8608;
1059.0000;0.0733;-0.8586;
1059.3000;0.0773;-0.8541;
1059.6000;0.0749;-0.8652;
1059.9000;0.0700;-0.8696;
1060.2000;0.0741;-0.8564;
1060.5000;0.0724;-0.8586;
1060.8000;0.0773;-0.8564;
1061.1000;0.0741;-0.8652;
1061.4000;0.0692;-0.8696;
1061.7000;0.0830;-0.8364;
1062.0000;0.0765;-0.8541;
1062.3000;0.0741;-0.8586;
1062.6000;0.0806;-0.8431;
1062.9000;0.0708;-0.8541;
1063.2000;0.0790;-0.8364;
1063.5000;0.0741;-0.8497;
1063.8000;0.0733;-0.8475;
1064.1000;0.0733;-0.8497;
1064.4000;0.0749;-0.8541;
1064.7000;0.0733;-0.8652;
1065.0000;0.0741;-0.8630;
1065.3000;0.0749;-0.8608;
1065.6000;0.0749;-0.8541;
1065.9000;0.0708;-0.8630;
1066.2000;0.0749;-0.8564;
1066.5000;0.0708;-0.8741;
1066.8000;0.0733;-0.8674;
1067.1000;0.0733;-0.8608;
1067.4000;0.0757;-0.8519;
1067.7000;0.0749;-0.8541;
1068.0000;0.0765;-0.8475;
1068.3000;0.0716;-0.8586;
1068.6000;0.0733;-0.8541;
1068.9000;0.0724;-0.8564;
1069.2000;0.0741;-0.8519;
1069.5000;0.0700;-0.8630;
1069.8000;0.0749;-0.8453;
1070.1000;0.0749;-0.8453;
1070.4000;0.0733;-0.8564;
1070.7000;0.0765;-0.8519;
1071.0000;0.0659;-0.8763;
1071.3000;0.0765;-0.8475;
1071.6000;0.0724;-0.8541;
1071.9000;0.0781;-0.8409;
1072.2000;0.0594;-0.8873;
1072.5000;0.0749;-0.8475;
1072.8000;0.0733;-0.8497;
1073.1000;0.0749;-0.8431;
1073.4000;0.0830;-0.8165;
1073.7000;0.0733;-0.8320;
1074.0000;0.0724;-0.8409;
1074.3000;0.0773;-0.8276;
1074.6000;0.0724;-0.8364;
1074.9000;0.0733;-0.8497;
1075.2000;0.0749;-0.8497;
1075.5000;0.0749;-0.8431;
1075.8000;0.0741;-0.8387;
1076.1000;0.0749;-0.8342;
1076.4000;0.0708;-0.8431;
1076.7000;0.0716;-0.8431;
1077.0000;0.0667;-0.8652;
1077.3000;0.0716;-0.8453;
1077.6000;0.0733;-0.8364;
1077.9000;0.0765;-0.8254;
1078.2000;0.0741;-0.8298;
1078.5000;0.0741;-0.8409;
1078.8000;0.0757;-0.8453;
1079.1000;0.0749;-0.8497;
1079.4000;0.0749;-0.8541;
1079.7000;0.0733;-0.8586;
1080.0000;0.0765;-0.8519;
1080.3000;0.0741;-0.8519;
1080.6000;0.0741;-0.8475;
1080.9000;0.0733;-0.8453;
1081.2000;0.0765;-0.8320;
1081.5000;0.0741;-0.8342;
1081.8000;0.0716;-0.8453;
1082.1000;0.0676;-0.8564;
1082.4000;0.0749;-0.8387;
1082.7000;0.0667;-0.8564;
1083.0000;0.0733;-0.8453;
1083.3000;0.0757;-0.8431;
1083.6000;0.0741;-0.8541;
1083.9000;0.0741;-0.8475;
1084.2000;0.0724;-0.8497;
1084.5000;0.0749;-0.8431;
1084.8000;0.0724;-0.8497;
1085.1000;0.0749;-0.8364;
1085.4000;0.0716;-0.8409;
1085.7000;0.0781;-0.8210;
1086.0000;0.0741;-0.8298;
1086.3000;0.0724;-0.8387;
1086.6000;0.0741;-0.8453;
1086.9000;0.0724;-0.8475;
1087.2000;0.0765;-0.8276;
1087.5000;0.0659;-0.8608;
1087.8000;0.0757;-0.8431;
1088.1000;0.0708;-0.8453;
1088.4000;0.0749;-0.8276;
1088.7000;0.0773;-0.8143;
1089.0000;0.0741;-0.8276;
1089.3000;0.0773;-0.8276;
1089.6000;0.0741;-0.8431;
1089.9000;0.0724;-0.8431;
1090.2000;0.0692;-0.8541;
1090.5000;0.0716;-0.8564;
1090.8000;0.0635;-0.8674;
1091.1000;0.0733;-0.8453;
1091.4000;0.0733;-0.8453;
1091.7000;0.0741;-0.8364;
1092.0000;0.0700;-0.8409;
1092.3000;0.0765;-0.8254;
1092.6000;0.0741;-0.8320;
1092.9000;0.0749;-0.8298;
1093.2000;0.0741;-0.8364;
1093.5000;0.0847;-0.8077;
1093.8000;0.0741;-0.8298;
1094.1000;0.0724;-0.8298;
1094.4000;0.0749;-0.8232;
1094.7000;0.0765;-0.8210;
1095.0000;0.0733;-0.8342;
1095.3000;0.0749;-0.8342;
1095.6000;0.0733;-0.8298;
1095.9000;0.0790;-0.8165;
1096.2000;0.0765;-0.8210;
1096.5000;0.0741;-0.8276;
1096.8000;0.0733;-0.8276;
1097.1000;0.0749;-0.8187;
1097.4000;0.0765;-0.8121;
1097.7000;0.0716;-0.8232;
1098.0000;0.0773;-0.8099;
1098.3000;0.0749;-0.8187;
1098.6000;0.0765;-0.8320;
1098.9000;0.0733;-0.8298;
1099.2000;0.0749;-0.8298;
1099.5000;0.0741;-0.8387;
1099.8000;0.0765;-0.8387;
1100.1000;0.0733;-0.8497;
1100.4000;0.0724;-0.8541;
1100.7000;0.0667;-0.8608;
1101.0000;0.0781;-0.8298;
1101.3000;0.0724;-0.8431;
1101.6000;0.0733;-0.8431;
1101.9000;0.0741;-0.8453;
1102.2000;0.0733;-0.8541;
1102.5000;0.0773;-0.8475;
1102.8000;0.0724;-0.8541;
1103.1000;0.0741;-0.8519;
1103.4000;0.0700;-0.8564;
1103.7000;0.0733;-0.8431;
1104.0000;0.0749;-0.8320;
1104.3000;0.0741;-0.8320;
1104.6000;0.0741;-0.8320;
1104.9000;0.0733;-0.8342;
1105.2000;0.0724;-0.8298;
1105.5000;0.0724;-0.8364;
1105.8000;0.0733;-0.8276;
1106.1000;0.0724;-0.8342;
1106.4000;0.0733;-0.8387;
1106.7000;0.0790;-0.8232;
1107.0000;0.0716;-0.8431;
1107.3000;0.0765;-0.8342;
1107.6000;0.0773;-0.8232;
1107.9000;0.0733;-0.8409;
1108.2000;0.0765;-0.8342;
1108.5000;0.0749;-0.8298;
1108.8000;0.0749;-0.8342;
1109.1000;0.0749;-0.8364;
1109.4000;0.0773;-0.8210;
1109.7000;0.0765;-0.8210;
1110.0000;0.0733;-0.8276;
1110.3000;0.0749;-0.8187;
1110.6000;0.0765;-0.8187;
1110.9000;0.0773;-0.8099;
1111.2000;0.0733;-0.8232;
1111.5000;0.0741;-0.8210;
1111.8000;0.0798;-0.8099;
1112.1000;0.0733;-0.8254;
1112.4000;0.0749;-0.8165;
1112.7000;0.0724;-0.8210;
1113.0000;0.0773;-0.8143;
1113.3000;0.0757;-0.8210;
1113.6000;0.0733;-0.8232;
1113.9000;0.0765;-0.8187;
1114.2000;0.0757;-0.8187;
1114.5000;0.0757;-0.8210;
1114.8000;0.0822;-0.8055;
1115.1000;0.0757;-0.8165;
1115.4000;0.0733;-0.8298;
1115.7000;0.0741;-0.8320;
1116.0000;0.0692;-0.8475;
1116.3000;0.0749;-0.8364;
1116.6000;0.0741;-0.8364;
1116.9000;0.0773;-0.8187;
1117.2000;0.0741;-0.8276;
1117.5000;0.0716;-0.8298;
1117.8000;0.0716;-0.8320;
1118.1000;0.0724;-0.8254;
1118.4000;0.0724;-0.8320;
1118.7000;0.0757;-0.8320;
1119.0000;0.0741;-0.8497;
1119.3000;0.0765;-0.8409;
1119.6000;0.0741;-0.8453;
1119.9000;0.0830;-0.8364;
1120.2000;0.0773;-0.8519;
1120.5000;0.0724;-0.8608;
1120.8000;0.0741;-0.8564;
1121.1000;0.0716;-0.8564;
1121.4000;0.0733;-0.8541;
1121.7000;0.0667;-0.8696;
1122.0000;0.0716;-0.8630;
1122.3000;0.0741;-0.8564;
1122.6000;0.0741;-0.8497;
1122.9000;0.0733;-0.8497;
1123.2000;0.0773;-0.8453;
1123.5000;0.0733;-0.8519;
1123.8000;0.0733;-0.8541;
1124.1000;0.0781;-0.8541;
1124.4000;0.0733;-0.8696;
1124.7000;0.0749;-0.8718;
1125.0000;0.0749;-0.8674;
1125.3000;0.0733;-0.8696;
1125.6000;0.0757;-0.8718;
1125.9000;0.0708;-0.8851;
1126.2000;0.0733;-0.8763;
1126.5000;0.0716;-0.8763;
1126.8000;0.0757;-0.8696;
1127.1000;0.0724;-0.8741;
1127.4000;0.0757;-0.8674;
1127.7000;0.0724;-0.8674;
1128.0000;0.0749;-0.8519;
1128.3000;0.0733;-0.8541;
1128.6000;0.0733;-0.8630;
1128.9000;0.0716;-0.8696;
1129.2000;0.0724;-0.8630;
1129.5000;0.0765;-0.8564;
1129.8000;0.0676;-0.8785;
1130.1000;0.0749;-0.8630;
1130.4000;0.0757;-0.8652;
1130.7000;0.0684;-0.8785;
1131.0000;0.0724;-0.8696;
1131.3000;0.0733;-0.8674;
1131.6000;0.0757;-0.8608;
1131.9000;0.0733;-0.8630;
1132.2000;0.0749;-0.8586;
1132.5000;0.0871;-0.8298;
1132.8000;0.0724;-0.8608;
1133.1000;0.0716;-0.8674;
1133.4000;0.0724;-0.8652;
1133.7000;0.0773;-0.8497;
1134.0000;0.0741;-0.8519;
1134.3000;0.0765;-0.8342;
1134.6000;0.0708;-0.8541;
1134.9000;0.0733;-0.8630;
1135.2000;0.0733;-0.8630;
1135.5000;0.0781;-0.8475;
1135.8000;0.0749;-0.8519;
1136.1000;0.0741;-0.8564;
1136.4000;0.0692;-0.8696;
1136.7000;0.0749;-0.8564;
1137.0000;0.0733;-0.8541;
1137.3000;0.0741;-0.8497;
1137.6000;0.0733;-0.8586;
1137.9000;0.0724;-0.8630;
1138.2000;0.0724;-0.8608;
1138.5000;0.0749;-0.8541;
1138.8000;0.0692;-0.8586;
1139.1000;0.0749;-0.8497;
1139.4000;0.0724;-0.8630;
1139.7000;0.0757;-0.8541;
1140.0000;0.0814;-0.8431;
1140.3000;0.0733;-0.8608;
1140.6000;0.0716;-0.8608;
1140.9000;0.0733;-0.8564;
1141.2000;0.0757;-0.8519;
1141.5000;0.0724;-0.8586;
1141.8000;0.0741;-0.8564;
1142.1000;0.0733;-0.8652;
1142.4000;0.0741;-0.8652;
1142.7000;0.0757;-0.8519;
1143.0000;0.0781;-0.8497;
1143.3000;0.0757;-0.8608;
1143.6000;0.0749;-0.8608;
1143.9000;0.0773;-0.8541;
1144.2000;0.0757;-0.8541;
1144.5000;0.0708;-0.8630;
1144.8000;0.0765;-0.8453;
1145.1000;0.0733;-0.8475;
1145.4000;0.0741;-0.8409;
1145.7000;0.0741;-0.8409;
1146.0000;0.0741;-0.8453;
1146.3000;0.0741;-0.8497;
1146.6000;0.0798;-0.8298;
1146.9000;0.0716;-0.8409;
1147.2000;0.0716;-0.8387;
1147.5000;0.0578;-0.8763;
1147.8000;0.0724;-0.8475;
1148.1000;0.0667;-0.8652;
1148.4000;0.0733;-0.8541;
1148.7000;0.0749;-0.8586;
1149.0000;0.0749;-0.8564;
1149.3000;0.0733;-0.8586;
1149.6000;0.0765;-0.8519;
1149.9000;0.0716;-0.8586;
1150.2000;0.0781;-0.8364;
1150.5000;0.0749;-0.8431;
1150.8000;0.0741;-0.8497;
1151.1000;0.0733;-0.8431;
1151.4000;0.0708;-0.8541;
1151.7000;0.0716;-0.8564;
1152.0000;0.0708;-0.8586;
1152.3000;0.0733;-0.8541;
1152.6000;0.0716;-0.8608;
1152.9000;0.0765;-0.8608;
1153.2000;0.0716;-0.8586;
1153.5000;0.0716;-0.8541;
1153.8000;0.0830;-0.8210;
1154.1000;0.0716;-0.8475;
1154.4000;0.0757;-0.8409;
1154.7000;0.0814;-0.8165;
1155.0000;0.0733;-0.8364;
1155.3000;0.0724;-0.8387;
1155.6000;0.0724;-0.8431;
1155.9000;0.0651;-0.8696;
1156.2000;0.0741;-0.8497;
1156.5000;0.0773;-0.8564;
1156.8000;0.0741;-0.8652;
1157.1000;0.0733;-0.8564;
1157.4000;0.0741;-0.8497;
1157.7000;0.0676;-0.8674;
1158.0000;0.0741;-0.8519;
1158.3000;0.0749;-0.8497;
1158.6000;0.0724;-0.8608;
1158.9000;0.0733;-0.8652;
1159.2000;0.0733;-0.8674;
1159.5000;0.0667;-0.8785;
1159.8000;0.0733;-0.8608;
1160.1000;0.0757;-0.8519;
1160.4000;0.0716;-0.8586;
1160.7000;0.0716;-0.8586;
1161.0000;0.0749;-0.8497;
1161.3000;0.0733;-0.8630;
1161.6000;0.0765;-0.8586;
1161.9000;0.0716;-0.8763;
1162.2000;0.0749;-0.8718;
1162.5000;0.0692;-0.8785;
1162.8000;0.0741;-0.8652;
1163.1000;0.0741;-0.8718;
1163.4000;0.0765;-0.8630;
1163.7000;0.0741;-0.8741;
1164.0000;0.0724;-0.8763;
1164.3000;0.0749;-0.8652;
1164.6000;0.0749;-0.8630;
1164.9000;0.0733;-0.8630;
1165.2000;0.0724;-0.8652;
1165.5000;0.0733;-0.8630;
1165.8000;0.0708;-0.8718;
1166.1000;0.0627;-0.8940;
1166.4000;0.0814;-0.8519;
1166.7000;0.0765;-0.8718;
1167.0000;0.0708;-0.8807;
1167.3000;0.0708;-0.8807;
1167.6000;0.0708;-0.8807;
1167.9000;0.0822;-0.8541;
1168.2000;0.0749;-0.8674;
1168.5000;0.0692;-0.8696;
1168.8000;0.0741;-0.8497;
1169.1000;0.0822;-0.8254;
1169.4000;0.0741;-0.8431;
1169.7000;0.0781;-0.8276;
1170.0000;0.0749;-0.8387;
1170.3000;0.0741;-0.8519;
1170.6000;0.0708;-0.8586;
1170.9000;0.0733;-0.8541;
1171.2000;0.0757;-0.8564;
1171.5000;0.0757;-0.8541;
1171.8000;0.0765;-0.8630;
1172.1000;0.0781;-0.8608;
1172.4000;0.0790;-0.8497;
1172.7000;0.0716;-0.8763;
1173.0000;0.0749;-0.8586;
1173.3000;0.0733;-0.8630;
1173.6000;0.0749;-0.8519;
1173.9000;0.0757;-0.8519;
1174.2000;0.0749;-0.8475;
1174.5000;0.0716;-0.8519;
1174.8000;0.0822;-0.8232;
1175.1000;0.0733;-0.8431;
1175.4000;0.0765;-0.8387;
1175.7000;0.0757;-0.8364;
1176.0000;0.0724;-0.8431;
1176.3000;0.0724;-0.8541;
1176.6000;0.0741;-0.8519;
1176.9000;0.0741;-0.8453;
1177.2000;0.0781;-0.8409;
1177.5000;0.0733;-0.8453;
1177.8000;0.0855;-0.8010;
1178.1000;0.0716;-0.8298;
1178.4000;0.0733;-0.8298;
1178.7000;0.0773;-0.8210;
1179.0000;0.0749;-0.8254;
1179.3000;0.0724;-0.8254;
1179.6000;0.0749;-0.8232;
1179.9000;0.0741;-0.8298;
1180.2000;0.0716;-0.8364;
1180.5000;0.0765;-0.8342;
1180.8000;0.0733;-0.8409;
1181.1000;0.0716;-0.8409;
1181.4000;0.0667;-0.8586;
1181.7000;0.0733;-0.8409;
1182.0000;0.0741;-0.8497;
1182.3000;0.0733;-0.8475;
1182.6000;0.0757;-0.8409;
1182.9000;0.0733;-0.8453;
1183.2000;0.0724;-0.8497;
1183.5000;0.0765;-0.8409;
1183.8000;0.0765;-0.8453;
1184.1000;0.0749;-0.8541;
1184.4000;0.0724;-0.8541;
1184.7000;0.0733;-0.8541;
1185.0000;0.0741;-0.8475;
1185.3000;0.0733;-0.8475;
1185.6000;0.0724;-0.8497;
1185.9000;0.0716;-0.8541;
1186.2000;0.0733;-0.8409;
1186.5000;0.0733;-0.8409;
1186.8000;0.0757;-0.8320;
1187.1000;0.0708;-0.8431;
1187.4000;0.0692;-0.8431;
1187.7000;0.0724;-0.8342;
1188.0000;0.0659;-0.8519;
1188.3000;0.0733;-0.8320;
1188.6000;0.0708;-0.8409;
1188.9000;0.0733;-0.8364;
1189.2000;0.0741;-0.8409;
1189.5000;0.0667;-0.8608;
1189.8000;0.0733;-0.8320;
1190.1000;0.0749;-0.8232;
1190.4000;0.0724;-0.8298;
1190.7000;0.0733;-0.8364;
1191.0000;0.0830;-0.8165;
1191.3000;0.0724;-0.8453;
1191.6000;0.0741;-0.8409;
1191.9000;0.0733;-0.8497;
1192.2000;0.0733;-0.8453;
1192.5000;0.0814;-0.8320;
1192.8000;0.0773;-0.8475;
1193.1000;0.0700;-0.8652;
1193.4000;0.0716;-0.8586;
1193.7000;0.0838;-0.8298;
1194.0000;0.0741;-0.8519;
1194.3000;0.0733;-0.8541;
1194.6000;0.0757;-0.8497;
1194.9000;0.0822;-0.8320;
1195.2000;0.0741;-0.8608;
1195.5000;0.0741;-0.8586;
1195.8000;0.0733;-0.8630;
1196.1000;0.0733;-0.8608;
1196.4000;0.0765;-0.8564;
1196.7000;0.0733;-0.8674;
1197.0000;0.0741;-0.8674;
1197.3000;0.0724;-0.8741;
1197.6000;0.0757;-0.8652;
1197.9000;0.0708;-0.8873;
1198.2000;0.0765;-0.8696;
1198.5000;0.0716;-0.8696;
1198.8000;0.0716;-0.8674;
1199.1000;0.0733;-0.8564;
1199.4000;0.0700;-0.8564;
1199.7000;0.0724;-0.8541;
1200.0000;0.0716;-0.8409;
1200.3000;0.0749;-0.8364;
1200.6000;0.0871;-0.8187;
1200.9000;0.0724;-0.8564;
1201.2000;0.0733;-0.8608;
1201.5000;0.0814;-0.8431;
1201.8000;0.0724;-0.8586;
1202.1000;0.0716;-0.8541;
1202.4000;0.0708;-0.8475;
1202.7000;0.0733;-0.8431;
1203.0000;0.0716;-0.8519;
1203.3000;0.0749;-0.8453;
1203.6000;0.0749;-0.8497;
1203.9000;0.0724;-0.8497;
1204.2000;0.0733;-0.8475;
1204.5000;0.0733;-0.8431;
1204.8000;0.0749;-0.8409;
1205.1000;0.0733;-0.8564;
1205.4000;0.0790;-0.8387;
1205.7000;0.0724;-0.8564;
1206.0000;0.0757;-0.8497;
1206.3000;0.0757;-0.8453;
1206.6000;0.0757;-0.8475;
1206.9000;0.0724;-0.8586;
1207.2000;0.0716;-0.8608;
1207.5000;0.0741;-0.8630;
1207.8000;0.0757;-0.8564;
1208.1000;0.0765;-0.8519;
1208.4000;0.0741;-0.8519;
1208.7000;0.0757;-0.8608;
1209.0000;0.0667;-0.8829;
1209.3000;0.0749;-0.8608;
1209.6000;0.0773;-0.8630;
1209.9000;0.0847;-0.8497;
1210.2000;0.0741;-0.8785;
1210.5000;0.0757;-0.8630;
1210.8000;0.0733;-0.8674;
1211.1000;0.0733;-0.8785;
1211.4000;0.0749;-0.8696;
1211.7000;0.0733;-0.8741;
1212.0000;0.0879;-0.8453;
1212.3000;0.0765;-0.8741;
1212.6000;0.0724;-0.8873;
1212.9000;0.0741;-0.8785;
1213.2000;0.0684;-0.8896;
1213.5000;0.0757;-0.8718;
1213.8000;0.0741;-0.8741;
1214.1000;0.0741;-0.8763;
1214.4000;0.0757;-0.8696;
1214.7000;0.0749;-0.8741;
1215.0000;0.0749;-0.8763;
1215.3000;0.0773;-0.8630;
1215.6000;0.0733;-0.8741;
1215.9000;0.0773;-0.8674;
1216.2000;0.0716;-0.8829;
1216.5000;0.0773;-0.8674;
1216.8000;0.0733;-0.8785;
1217.1000;0.0684;-0.8851;
1217.4000;0.0781;-0.8630;
1217.7000;0.0724;-0.8696;
1218.0000;0.0708;-0.8741;
1218.3000;0.0733;-0.8652;
1218.6000;0.0790;-0.8519;
1218.9000;0.0733;-0.8586;
1219.2000;0.0716;-0.8586;
1219.5000;0.0757;-0.8586;
1219.8000;0.0798;-0.8475;
1220.1000;0.0757;-0.8630;
1220.4000;0.0733;-0.8652;
1220.7000;0.0733;-0.8674;
1221.0000;0.0716;-0.8652;
1221.3000;0.0716;-0.8652;
1221.6000;0.0724;-0.8630;
1221.9000;0.0733;-0.8674;
1222.2000;0.0749;-0.8630;
1222.5000;0.0700;-0.8785;
1222.8000;0.0757;-0.8763;
1223.1000;0.0733;-0.8807;
1223.4000;0.0684;-0.8851;
1223.7000;0.0741;-0.8630;
1224.0000;0.0741;-0.8718;
1224.3000;0.0757;-0.8718;
1224.6000;0.0765;-0.8608;
1224.9000;0.0773;-0.8453;
1225.2000;0.0733;-0.8541;
1225.5000;0.0749;-0.8453;
1225.8000;0.0741;-0.8387;
1226.1000;0.0765;-0.8409;
1226.4000;0.0716;-0.8541;
1226.7000;0.0765;-0.8453;
1227.0000;0.0733;-0.8519;
1227.3000;0.0724;-0.8497;
1227.6000;0.0659;-0.8630;
1227.9000;0.0716;-0.8409;
1228.2000;0.0716;-0.8431;
1228.5000;0.0692;-0.8497;
1228.8000;0.0741;-0.8475;
1229.1000;0.0724;-0.8519;
1229.4000;0.0724;-0.8541;
1229.7000;0.0741;-0.8541;
1230.0000;0.0757;-0.8475;
1230.3000;0.0733;-0.8608;
1230.6000;0.0692;-0.8718;
1230.9000;0.0724;-0.8696;
1231.2000;0.0724;-0.8696;
1231.5000;0.0724;-0.8696;
1231.8000;0.0741;-0.8630;
1232.1000;0.0724;-0.8608;
1232.4000;0.0749;-0.8475;
1232.7000;0.0741;-0.8497;
1233.0000;0.0684;-0.8586;
1233.3000;0.0749;-0.8475;
1233.6000;0.0724;-0.8541;
1233.9000;0.0741;-0.8696;
1234.2000;0.0822;-0.8364;
1234.5000;0.0790;-0.8497;
1234.8000;0.0765;-0.8564;
1235.1000;0.0814;-0.8431;
1235.4000;0.0733;-0.8608;
1235.7000;0.0749;-0.8674;
1236.0000;0.0741;-0.8763;
1236.3000;0.0733;-0.8741;
1236.6000;0.0733;-0.8741;
1236.9000;0.0741;-0.8763;
1237.2000;0.0749;-0.8763;
1237.5000;0.0798;-0.8630;
1237.8000;0.0733;-0.8829;
1238.1000;0.0733;-0.8763;
1238.4000;0.0749;-0.8696;
1238.7000;0.0790;-0.8630;
1239.0000;0.0773;-0.8674;
1239.3000;0.0635;-0.9073;
1239.6000;0.0757;-0.8608;
1239.9000;0.0781;-0.8586;
1240.2000;0.0724;-0.8674;
1240.5000;0.0830;-0.8342;
1240.8000;0.0749;-0.8608;
1241.1000;0.0757;-0.8652;
1241.4000;0.0733;-0.8696;
1241.7000;0.0733;-0.8630;
1242.0000;0.0806;-0.8541;
1242.3000;0.0733;-0.8586;
1242.6000;0.0724;-0.8519;
1242.9000;0.0790;-0.8431;
1243.2000;0.0765;-0.8519;
1243.5000;0.0757;-0.8497;
1243.8000;0.0667;-0.8696;
1244.1000;0.0741;-0.8564;
1244.4000;0.0757;-0.8564;
1244.7000;0.0733;-0.8630;
1245.0000;0.0749;-0.8718;
1245.3000;0.0741;-0.8763;
1245.6000;0.0765;-0.8652;
1245.9000;0.0855;-0.8298;
1246.2000;0.0733;-0.8630;
1246.5000;0.0684;-0.8674;
1246.8000;0.0724;-0.8541;
1247.1000;0.0749;-0.8475;
1247.4000;0.0749;-0.8497;
1247.7000;0.0781;-0.8431;
1248.0000;0.0708;-0.8718;
1248.3000;0.0724;-0.8741;
1248.6000;0.0724;-0.8785;
1248.9000;0.0692;-0.8873;
1249.2000;0.0741;-0.8718;
1249.5000;0.0676;-0.8873;
1249.8000;0.0724;-0.8696;
1250.1000;0.0765;-0.8630;
1250.4000;0.0716;-0.8741;
1250.7000;0.0741;-0.8674;
1251.0000;0.0733;-0.8696;
1251.3000;0.0741;-0.8608;
1251.6000;0.0749;-0.8630;
1251.9000;0.0708;-0.8696;
1252.2000;0.0716;-0.8630;
1252.5000;0.0749;-0.8630;
1252.8000;0.0773;-0.8586;
1253.1000;0.0757;-0.8630;
1253.4000;0.0733;-0.8652;
1253.7000;0.0749;-0.8586;
1254.0000;0.0781;-0.8497;
1254.3000;0.0741;-0.8519;
1254.6000;0.0749;-0.8475;
1254.9000;0.0765;-0.8519;
1255.2000;0.0741;-0.8431;
1255.5000;0.0741;-0.8497;
1255.8000;0.0757;-0.8387;
1256.1000;0.0716;-0.8586;
1256.4000;0.0733;-0.8541;
1256.7000;0.0749;-0.8586;
1257.0000;0.0724;-0.8564;
1257.3000;0.0741;-0.8630;
1257.6000;0.0724;-0.8652;
1257.9000;0.0757;-0.8564;
1258.2000;0.0814;-0.8409;
1258.5000;0.0781;-0.8564;
1258.8000;0.0749;-0.8630;
1259.1000;0.0798;-0.8564;
1259.4000;0.0757;-0.8807;
1259.7000;0.0733;-0.8785;
1260.0000;0.0716;-0.8873;
1260.3000;0.0733;-0.8851;
1260.6000;0.0716;-0.8851;
1260.9000;0.0724;-0.8807;
1261.2000;0.0692;-0.8940;
1261.5000;0.0749;-0.8763;
1261.8000;0.0741;-0.8674;
1262.1000;0.0830;-0.8431;
1262.4000;0.0741;-0.8718;
1262.7000;0.0716;-0.8807;
1263.0000;0.0749;-0.8785;
1263.3000;0.0659;-0.8940;
1263.6000;0.0773;-0.8608;
1263.9000;0.0741;-0.8696;
1264.2000;0.0749;-0.8564;
1264.5000;0.0749;-0.8475;
1264.8000;0.0895;-0.8099;
1265.1000;0.0757;-0.8431;
1265.4000;0.0741;-0.8519;
1265.7000;0.0741;-0.8608;
1266.0000;0.0724;-0.8763;
1266.3000;0.0716;-0.8807;
1266.6000;0.0741;-0.8763;
1266.9000;0.0716;-0.8785;
1267.2000;0.0733;-0.8763;
1267.5000;0.0724;-0.8741;
1267.8000;0.0741;-0.8763;
1268.1000;0.0708;-0.8873;
1268.4000;0.0757;-0.8741;
1268.7000;0.0684;-0.8873;
1269.0000;0.0733;-0.8741;
1269.3000;0.0757;-0.8674;
1269.6000;0.0741;-0.8718;
1269.9000;0.0757;-0.8763;
1270.2000;0.0733;-0.8896;
1270.5000;0.0716;-0.8829;
1270.8000;0.0757;-0.8807;
1271.1000;0.0749;-0.8896;
1271.4000;0.0692;-0.9006;
1271.7000;0.0773;-0.8807;
1272.0000;0.0741;-0.8896;
1272.3000;0.0716;-0.9028;
1272.6000;0.0708;-0.8896;
1272.9000;0.0733;-0.8807;
1273.2000;0.0749;-0.8741;
1273.5000;0.0757;-0.8696;
1273.8000;0.0765;-0.8718;
1274.1000;0.0741;-0.8807;
1274.4000;0.0741;-0.8807;
1274.7000;0.0765;-0.8829;
1275.0000;0.0757;-0.8829;
1275.3000;0.0749;-0.8851;
1275.6000;0.0757;-0.8873;
1275.9000;0.0749;-0.8851;
1276.2000;0.0716;-0.8873;
1276.5000;0.0741;-0.8829;
1276.8000;0.0741;-0.8896;
1277.1000;0.0733;-0.8940;
1277.4000;0.0773;-0.8785;
1277.7000;0.0716;-0.8851;
1278.0000;0.0806;-0.8652;
1278.3000;0.0741;-0.8873;
1278.6000;0.0741;-0.8829;
1278.9000;0.0741;-0.8829;
1279.2000;0.0733;-0.8918;
1279.5000;0.0781;-0.8741;
1279.8000;0.0733;-0.8851;
1280.1000;0.0733;-0.8873;
1280.4000;0.0724;-0.8873;
1280.7000;0.0733;-0.8873;
1281.0000;0.0724;-0.8940;
1281.3000;0.0733;-0.8896;
1281.6000;0.0781;-0.8674;
1281.9000;0.0733;-0.8873;
1282.2000;0.0749;-0.8785;
1282.5000;0.0708;-0.8940;
1282.8000;0.0749;-0.8896;
1283.1000;0.0716;-0.8918;
1283.4000;0.0733;-0.8984;
1283.7000;0.0733;-0.8940;
1284.0000;0.0724;-0.8984;
1284.3000;0.0733;-0.8940;
1284.6000;0.0708;-0.9117;
1284.9000;0.0676;-0.9183;
1285.2000;0.0749;-0.9006;
1285.5000;0.0765;-0.8962;
1285.8000;0.0741;-0.8962;
1286.1000;0.0733;-0.8873;
1286.4000;0.0733;-0.8940;
1286.7000;0.0733;-0.8940;
1287.0000;0.0806;-0.8696;
1287.3000;0.0749;-0.8873;
1287.6000;0.0773;-0.8851;
1287.9000;0.0749;-0.8984;
1288.2000;0.0741;-0.8940;
1288.5000;0.0749;-0.8851;
1288.8000;0.0749;-0.8785;
1289.1000;0.0700;-0.8896;
1289.4000;0.0814;-0.8630;
1289.7000;0.0749;-0.8873;
1290.0000;0.0741;-0.8918;
1290.3000;0.0733;-0.8918;
1290.6000;0.0749;-0.8807;
1290.9000;0.0733;-0.8785;
1291.2000;0.0741;-0.8763;
1291.5000;0.0749;-0.8696;
1291.8000;0.0749;-0.8696;
1292.1000;0.0741;-0.8763;
1292.4000;0.0733;-0.8718;
1292.7000;0.0741;-0.8696;
1293.0000;0.0716;-0.8718;
1293.3000;0.0733;-0.8718;
1293.6000;0.0651;-0.8918;
1293.9000;0.0733;-0.8763;
1294.2000;0.0716;-0.8785;
1294.5000;0.0749;-0.8785;
1294.8000;0.0765;-0.8807;
1295.1000;0.0708;-0.8940;
1295.4000;0.0716;-0.8940;
1295.7000;0.0733;-0.8918;
1296.0000;0.0716;-0.8851;
1296.3000;0.0733;-0.8807;
1296.6000;0.0757;-0.8674;
1296.9000;0.0724;-0.8696;
1297.2000;0.0733;-0.8763;
1297.5000;0.0733;-0.8696;
1297.8000;0.0667;-0.8896;
1298.1000;0.0724;-0.8829;
1298.4000;0.0716;-0.8807;
1298.7000;0.0724;-0.8785;
1299.0000;0.0757;-0.8718;
1299.3000;0.0741;-0.8763;
1299.6000;0.0716;-0.8829;
1299.9000;0.0733;-0.8696;
1300.2000;0.0757;-0.8696;
1300.5000;0.0741;-0.8718;
1300.8000;0.0708;-0.8785;
1301.1000;0.0765;-0.8586;
1301.4000;0.0716;-0.8696;
1301.7000;0.0733;-0.8652;
1302.0000;0.0733;-0.8674;
1302.3000;0.0741;-0.8718;
1302.6000;0.0741;-0.8696;
1302.9000;0.0765;-0.8696;
1303.2000;0.0741;-0.8763;
1303.5000;0.0741;-0.8763;
1303.8000;0.0741;-0.8785;
1304.1000;0.0749;-0.8763;
1304.4000;0.0741;-0.8741;
1304.7000;0.0724;-0.8896;
1305.0000;0.0643;-0.9073;
1305.3000;0.0716;-0.8918;
1305.6000;0.0724;-0.8918;
1305.9000;0.0765;-0.8896;
1306.2000;0.0741;-0.8940;
1306.5000;0.0741;-0.8962;
1306.8000;0.0733;-0.8873;
1307.1000;0.0716;-0.8873;
1307.4000;0.0733;-0.8807;
1307.7000;0.0716;-0.8851;
1308.0000;0.0692;-0.8829;
1308.3000;0.0757;-0.8674;
1308.6000;0.0724;-0.8873;
1308.9000;0.0741;-0.8807;
1309.2000;0.0749;-0.8785;
1309.5000;0.0741;-0.8785;
1309.8000;0.0741;-0.8851;
1310.1000;0.0749;-0.8807;
1310.4000;0.0667;-0.9028;
1310.7000;0.0749;-0.8851;
1311.0000;0.0749;-0.8940;
1311.3000;0.0724;-0.9073;
1311.6000;0.0733;-0.9006;
1311.9000;0.0716;-0.9006;
1312.2000;0.0749;-0.8896;
1312.5000;0.0724;-0.9028;
1312.8000;0.0757;-0.9006;
1313.1000;0.0733;-0.8984;
1313.4000;0.0667;-0.9095;
1313.7000;0.0733;-0.8807;
1314.0000;0.0724;-0.8851;
1314.3000;0.0724;-0.8873;
1314.6000;0.0733;-0.8896;
1314.9000;0.0749;-0.8807;
1315.2000;0.0741;-0.8851;
1315.5000;0.0741;-0.8940;
1315.8000;0.0765;-0.8807;
1316.1000;0.0741;-0.8873;
1316.4000;0.0765;-0.8918;
1316.7000;0.0733;-0.8918;
1317.0000;0.0741;-0.8785;
1317.3000;0.0741;-0.8785;
1317.6000;0.0757;-0.8763;
1317.9000;0.0643;-0.9006;
1318.2000;0.0733;-0.8851;
1318.5000;0.0667;-0.9006;
1318.8000;0.0757;-0.8741;
1319.1000;0.0749;-0.8741;
1319.4000;0.0757;-0.8674;
1319.7000;0.0749;-0.8741;
1320.0000;0.0749;-0.8741;
1320.3000;0.0749;-0.8785;
1320.6000;0.0749;-0.8763;
1320.9000;0.0773;-0.8696;
1321.2000;0.0741;-0.8807;
1321.5000;0.0716;-0.8873;
1321.8000;0.0757;-0.8785;
1322.1000;0.0724;-0.8873;
1322.4000;0.0741;-0.8918;
1322.7000;0.0757;-0.8896;
1323.0000;0.0700;-0.9095;
1323.3000;0.0741;-0.9028;
1323.6000;0.0741;-0.8984;
1323.9000;0.0781;-0.8851;
1324.2000;0.0724;-0.8940;
1324.5000;0.0749;-0.8873;
1324.8000;0.0757;-0.8940;
1325.1000;0.0749;-0.8940;
1325.4000;0.0733;-0.8807;
1325.7000;0.0733;-0.8807;
1326.0000;0.0781;-0.8718;
1326.3000;0.0724;-0.8785;
1326.6000;0.0724;-0.8873;
1326.9000;0.0708;-0.8940;
1327.2000;0.0733;-0.8851;
1327.5000;0.0757;-0.8741;
1327.8000;0.0692;-0.8873;
1328.1000;0.0733;-0.8807;
1328.4000;0.0643;-0.9050;
1328.7000;0.0733;-0.8829;
1329.0000;0.0586;-0.9161;
1329.3000;0.0716;-0.8940;
1329.6000;0.0757;-0.8829;
1329.9000;0.0724;-0.8807;
1330.2000;0.0879;-0.8409;
1330.5000;0.0773;-0.8696;
1330.8000;0.0708;-0.8829;
1331.1000;0.0724;-0.8785;
1331.4000;0.0749;-0.8785;
1331.7000;0.0716;-0.8896;
1332.0000;0.0749;-0.8763;
1332.3000;0.0716;-0.8785;
1332.6000;0.0741;-0.8741;
1332.9000;0.0733;-0.8741;
1333.2000;0.0765;-0.8652;
1333.5000;0.0741;-0.8718;
1333.8000;0.0700;-0.8851;
1334.1000;0.0741;-0.8851;
1334.4000;0.0741;-0.8896;
1334.7000;0.0798;-0.8807;
1335.0000;0.0814;-0.8829;
1335.3000;0.0741;-0.8962;
1335.6000;0.0765;-0.8896;
1335.9000;0.0830;-0.8696;
1336.2000;0.0749;-0.8896;
1336.5000;0.0724;-0.8873;
1336.8000;0.0749;-0.8807;
1337.1000;0.0741;-0.8741;
1337.4000;0.0741;-0.8696;
1337.7000;0.0741;-0.8718;
1338.0000;0.0716;-0.8785;
1338.3000;0.0741;-0.8763;
1338.6000;0.0773;-0.8564;
1338.9000;0.0733;-0.8696;
1339.2000;0.0733;-0.8674;
1339.5000;0.0733;-0.8718;
1339.8000;0.0733;-0.8851;
1340.1000;0.0757;-0.8873;
1340.4000;0.0749;-0.8851;
1340.7000;0.0765;-0.8785;
1341.0000;0.0733;-0.8807;
1341.3000;0.0749;-0.8807;
1341.6000;0.0765;-0.8718;
1341.9000;0.0716;-0.8807;
1342.2000;0.0733;-0.8763;
1342.5000;0.0594;-0.9095;
1342.8000;0.0757;-0.8718;
1343.1000;0.0741;-0.8763;
1343.4000;0.0716;-0.8785;
1343.7000;0.0790;-0.8586;
1344.0000;0.0733;-0.8696;
1344.3000;0.0741;-0.8674;
1344.6000;0.0724;-0.8652;
1344.9000;0.0733;-0.8652;
1345.2000;0.0733;-0.8718;
1345.5000;0.0757;-0.8718;
1345.8000;0.0733;-0.8785;
1346.1000;0.0733;-0.8785;
1346.4000;0.0749;-0.8741;
1346.7000;0.0733;-0.8696;
1347.0000;0.0749;-0.8652;
1347.3000;0.0741;-0.8696;
1347.6000;0.0708;-0.8718;
1347.9000;0.0733;-0.8652;
1348.2000;0.0724;-0.8608;
1348.5000;0.0724;-0.8630;
1348.8000;0.0733;-0.8519;
1349.1000;0.0773;-0.8453;
1349.4000;0.0781;-0.8475;
1349.7000;0.0757;-0.8475;
1350.0000;0.0765;-0.8431;
1350.3000;0.0741;-0.8475;
1350.6000;0.0724;-0.8519;
1350.9000;0.0724;-0.8519;
1351.2000;0.0741;-0.8409;
1351.5000;0.0757;-0.8320;
1351.8000;0.0733;-0.8409;
1352.1000;0.0822;-0.8210;
1352.4000;0.0651;-0.8586;
1352.7000;0.0749;-0.8431;
1353.0000;0.0684;-0.8586;
1353.3000;0.0757;-0.8497;
1353.6000;0.0741;-0.8475;
1353.9000;0.0757;-0.8475;
1354.2000;0.0806;-0.8320;
1354.5000;0.0733;-0.8497;
1354.8000;0.0724;-0.8541;
1355.1000;0.0749;-0.8431;
1355.4000;0.0724;-0.8409;
1355.7000;0.0741;-0.8364;
1356.0000;0.0741;-0.8453;
1356.3000;0.0757;-0.8453;
1356.6000;0.0724;-0.8541;
1356.9000;0.0790;-0.8431;
1357.2000;0.0692;-0.8541;
1357.5000;0.0733;-0.8431;
1357.8000;0.0757;-0.8409;
1358.1000;0.0749;-0.8342;
1358.4000;0.0879;-0.7966;
1358.7000;0.0724;-0.8320;
1359.0000;0.0708;-0.8409;
1359.3000;0.0741;-0.8320;
1359.6000;0.0781;-0.8254;
1359.9000;0.0716;-0.8364;
1360.2000;0.0741;-0.8342;
1360.5000;0.0733;-0.8364;
1360.8000;0.0757;-0.8298;
1361.1000;0.0708;-0.8475;
1361.4000;0.0716;-0.8475;
1361.7000;0.0741;-0.8364;
1362.0000;0.0749;-0.8497;
1362.3000;0.0790;-0.8453;
1362.6000;0.0716;-0.8652;
1362.9000;0.0741;-0.8652;
1363.2000;0.0733;-0.8741;
1363.5000;0.0659;-0.8829;
1363.8000;0.0708;-0.8696;
1364.1000;0.0749;-0.8630;
1364.4000;0.0733;-0.8674;
1364.7000;0.0716;-0.8674;
1365.0000;0.0741;-0.8652;
1365.3000;0.0790;-0.8409;
1365.6000;0.0741;-0.8453;
1365.9000;0.0757;-0.8387;
1366.2000;0.0733;-0.8475;
1366.5000;0.0863;-0.8187;
1366.8000;0.0757;-0.8342;
1367.1000;0.0733;-0.8364;
1367.4000;0.0749;-0.8364;
1367.7000;0.0741;-0.8497;
1368.0000;0.0741;-0.8387;
1368.3000;0.0741;-0.8387;
1368.6000;0.0749;-0.8320;
1368.9000;0.0724;-0.8475;
1369.2000;0.0741;-0.8519;
1369.5000;0.0765;-0.8497;
1369.8000;0.0716;-0.8586;
1370.1000;0.0733;-0.8564;
1370.4000;0.0757;-0.8541;
1370.7000;0.0741;-0.8564;
1371.0000;0.0667;-0.8763;
1371.3000;0.0757;-0.8497;
1371.6000;0.0733;-0.8586;
1371.9000;0.0765;-0.8541;
1372.2000;0.0765;-0.8564;
1372.5000;0.0765;-0.8564;
1372.8000;0.0724;-0.8608;
1373.1000;0.0749;-0.8586;
1373.4000;0.0757;-0.8541;
1373.7000;0.0749;-0.8541;
1374.0000;0.0733;-0.8608;
1374.3000;0.0733;-0.8586;
1374.6000;0.0757;-0.8519;
1374.9000;0.0741;-0.8608;
1375.2000;0.0749;-0.8586;
1375.5000;0.0757;-0.8475;
1375.8000;0.0757;-0.8431;
1376.1000;0.0741;-0.8541;
1376.4000;0.0708;-0.8652;
1376.7000;0.0741;-0.8586;
1377.0000;0.0741;-0.8674;
1377.3000;0.0724;-0.8763;
1377.6000;0.0733;-0.8741;
1377.9000;0.0757;-0.8718;
1378.2000;0.0765;-0.8564;
1378.5000;0.0749;-0.8497;
1378.8000;0.0724;-0.8453;
1379.1000;0.0781;-0.8276;
1379.4000;0.0741;-0.8387;
1379.7000;0.0765;-0.8276;
1380.0000;0.0765;-0.8232;
1380.3000;0.0733;-0.8298;
1380.6000;0.0741;-0.8298;
1380.9000;0.0733;-0.8298;
1381.2000;0.0773;-0.8320;
1381.5000;0.0733;-0.8431;
1381.8000;0.0757;-0.8497;
1382.1000;0.0724;-0.8497;
1382.4000;0.0741;-0.8387;
1382.7000;0.0757;-0.8320;
1383.0000;0.0708;-0.8387;
1383.3000;0.0749;-0.8320;
1383.6000;0.0724;-0.8453;
1383.9000;0.0733;-0.8409;
1384.2000;0.0716;-0.8475;
1384.5000;0.0749;-0.8453;
1384.8000;0.0749;-0.8519;
1385.1000;0.0741;-0.8564;
1385.4000;0.0741;-0.8586;
1385.7000;0.0749;-0.8586;
1386.0000;0.0733;-0.8630;
1386.3000;0.0733;-0.8630;
1386.6000;0.0708;-0.8696;
1386.9000;0.0724;-0.8564;
1387.2000;0.0749;-0.8519;
1387.5000;0.0749;-0.8586;
1387.8000;0.0741;-0.8564;
1388.1000;0.0733;-0.8541;
1388.4000;0.0757;-0.8564;
1388.7000;0.0749;-0.8564;
1389.0000;0.0741;-0.8497;
1389.3000;0.0724;-0.8519;
1389.6000;0.0757;-0.8431;
1389.9000;0.0741;-0.8497;
1390.2000;0.0733;-0.8497;
1390.5000;0.0716;-0.8541;
1390.8000;0.0724;-0.8497;
1391.1000;0.0733;-0.8431;
1391.4000;0.0724;-0.8475;
1391.7000;0.0724;-0.8475;
1392.0000;0.0741;-0.8431;
1392.3000;0.0749;-0.8431;
1392.6000;0.0724;-0.8453;
1392.9000;0.0741;-0.8409;
1393.2000;0.0733;-0.8475;
1393.5000;0.0733;-0.8541;
1393.8000;0.0733;-0.8541;
1394.1000;0.0749;-0.8475;
1394.4000;0.0733;-0.8387;
1394.7000;0.0741;-0.8364;
1395.0000;0.0741;-0.8342;
1395.3000;0.0733;-0.8453;
1395.6000;0.0749;-0.8453;
1395.9000;0.0733;-0.8497;
1396.2000;0.0733;-0.8453;
1396.5000;0.0724;-0.8475;
1396.8000;0.0741;-0.8453;
1397.1000;0.0749;-0.8475;
1397.4000;0.0733;-0.8497;
1397.7000;0.0733;-0.8608;
1398.0000;0.0716;-0.8652;
1398.3000;0.0708;-0.8696;
1398.6000;0.0724;-0.8652;
1398.9000;0.0741;-0.8608;
1399.2000;0.0716;-0.8630;
1399.5000;0.0749;-0.8608;
1399.8000;0.0716;-0.8674;
