time/ms;Fluo/V;P700 deltaI/I x10³;
-199.8000;0.0781;-0.7678;
-199.5000;0.0822;-0.7612;
-199.2000;0.0830;-0.7634;
-198.9000;0.0790;-0.7701;
-198.6000;0.0749;-0.7833;
-198.3000;0.0806;-0.7656;
-198.0000;0.0863;-0.7524;
-197.7000;0.0749;-0.7767;
-197.4000;0.0847;-0.7524;
-197.1000;0.0773;-0.7524;
-196.8000;0.0838;-0.7391;
-196.5000;0.0822;-0.7369;
-196.2000;0.0781;-0.7369;
-195.9000;0.0887;-0.6970;
-195.6000;0.0847;-0.7125;
-195.3000;0.0806;-0.7214;
-195.0000;0.0798;-0.7170;
-194.7000;0.0904;-0.6904;
-194.4000;0.0806;-0.7170;
-194.1000;0.0814;-0.7236;
-193.8000;0.0814;-0.7280;
-193.5000;0.0790;-0.7324;
-193.2000;0.0798;-0.7258;
-192.9000;0.0847;-0.7147;
-192.6000;0.0733;-0.7324;
-192.3000;0.0830;-0.7081;
-192.0000;0.0814;-0.7125;
-191.7000;0.0798;-0.7192;
-191.4000;0.0814;-0.7125;
-191.1000;0.0838;-0.7059;
-190.8000;0.0838;-0.7081;
-190.5000;0.0838;-0.7059;
-190.2000;0.0814;-0.7125;
-189.9000;0.0806;-0.7081;
-189.6000;0.0806;-0.7081;
-189.3000;0.0822;-0.7103;
-189.0000;0.0806;-0.7214;
-188.7000;0.0838;-0.7170;
-188.4000;0.0838;-0.7192;
-188.1000;0.0741;-0.7479;
-187.8000;0.0847;-0.7280;
-187.5000;0.0895;-0.7170;
-187.2000;0.0838;-0.7324;
-186.9000;0.0838;-0.7214;
-186.6000;0.0814;-0.7236;
-186.3000;0.0838;-0.7236;
-186.0000;0.0806;-0.7347;
-185.7000;0.0765;-0.7413;
-185.4000;0.0790;-0.7302;
-185.1000;0.0814;-0.7324;
-184.8000;0.0814;-0.7391;
-184.5000;0.0822;-0.7347;
-184.2000;0.0814;-0.7391;
-183.9000;0.0798;-0.7435;
-183.6000;0.0822;-0.7347;
-183.3000;0.0806;-0.7391;
-183.0000;0.0798;-0.7280;
-182.7000;0.0781;-0.7280;
-182.4000;0.0814;-0.7280;
-182.1000;0.0806;-0.7302;
-181.8000;0.0814;-0.7324;
-181.5000;0.0708;-0.7501;
-181.2000;0.0716;-0.7546;
-180.9000;0.0798;-0.7347;
-180.6000;0.0822;-0.7302;
-180.3000;0.0847;-0.7236;
-180.0000;0.0822;-0.7214;
-179.7000;0.0733;-0.7413;
-179.4000;0.0814;-0.7170;
-179.1000;0.0700;-0.7435;
-178.8000;0.0830;-0.7103;
-178.5000;0.0912;-0.6904;
-178.2000;0.0790;-0.7280;
-177.9000;0.0757;-0.7413;
-177.6000;0.0822;-0.7280;
-177.3000;0.0790;-0.7391;
-177.0000;0.0773;-0.7457;
-176.7000;0.0830;-0.7258;
-176.4000;0.0814;-0.7391;
-176.1000;0.0838;-0.7391;
-175.8000;0.0798;-0.7479;
-175.5000;0.0838;-0.7391;
-175.2000;0.0830;-0.7369;
-174.9000;0.0822;-0.7391;
-174.6000;0.0814;-0.7324;
-174.3000;0.0855;-0.7258;
-174.0000;0.0838;-0.7324;
-173.7000;0.0814;-0.7280;
-173.4000;0.0871;-0.7081;
-173.1000;0.0814;-0.7214;
-172.8000;0.0822;-0.7192;
-172.5000;0.0830;-0.7192;
-172.2000;0.0879;-0.7015;
-171.9000;0.0822;-0.7236;
-171.6000;0.0814;-0.7236;
-171.3000;0.0830;-0.7192;
-171.0000;0.0814;-0.7258;
-170.7000;0.0814;-0.7302;
-170.4000;0.0814;-0.7302;
-170.1000;0.0806;-0.7280;
-169.8000;0.0814;-0.7214;
-169.5000;0.0781;-0.7258;
-169.2000;0.0806;-0.7192;
-168.9000;0.0822;-0.7147;
-168.6000;0.0798;-0.7236;
-168.3000;0.0806;-0.7170;
-168.0000;0.0790;-0.7258;
-167.7000;0.0871;-0.7125;
-167.4000;0.0806;-0.7236;
-167.1000;0.0708;-0.7501;
-166.8000;0.0781;-0.7258;
-166.5000;0.0830;-0.7214;
-166.2000;0.0847;-0.7147;
-165.9000;0.0798;-0.7302;
-165.6000;0.0814;-0.7280;
-165.3000;0.0814;-0.7280;
-165.0000;0.0806;-0.7347;
-164.7000;0.0806;-0.7347;
-164.4000;0.0781;-0.7435;
-164.1000;0.0676;-0.7723;
-163.8000;0.0798;-0.7479;
-163.5000;0.0798;-0.7435;
-163.2000;0.0822;-0.7214;
-162.9000;0.0847;-0.7214;
-162.6000;0.0822;-0.7280;
-162.3000;0.0733;-0.7524;
-162.0000;0.0806;-0.7324;
-161.7000;0.0814;-0.7170;
-161.4000;0.0838;-0.7125;
-161.1000;0.0757;-0.7391;
-160.8000;0.0814;-0.7280;
-160.5000;0.0798;-0.7369;
-160.2000;0.0847;-0.7258;
-159.9000;0.0814;-0.7347;
-159.6000;0.0814;-0.7369;
-159.3000;0.0961;-0.6992;
-159.0000;0.0757;-0.7391;
-158.7000;0.0838;-0.7125;
-158.4000;0.0822;-0.7236;
-158.1000;0.0904;-0.7103;
-157.8000;0.0814;-0.7324;
-157.5000;0.0781;-0.7413;
-157.2000;0.0757;-0.7479;
-156.9000;0.0838;-0.7192;
-156.6000;0.0814;-0.7236;
-156.3000;0.0806;-0.7280;
-156.0000;0.0830;-0.7214;
-155.7000;0.0838;-0.7125;
-155.4000;0.0855;-0.7059;
-155.1000;0.0863;-0.7081;
-154.8000;0.0830;-0.7103;
-154.5000;0.0838;-0.7103;
-154.2000;0.0838;-0.7125;
-153.9000;0.0847;-0.7170;
-153.6000;0.0847;-0.7125;
-153.3000;0.0822;-0.7170;
-153.0000;0.0806;-0.7236;
-152.7000;0.0822;-0.7192;
-152.4000;0.0814;-0.7192;
-152.1000;0.0765;-0.7324;
-151.8000;0.0838;-0.7081;
-151.5000;0.0790;-0.7170;
-151.2000;0.0814;-0.7081;
-150.9000;0.0790;-0.7125;
-150.6000;0.0790;-0.7214;
-150.3000;0.0822;-0.7125;
-150.0000;0.0798;-0.7192;
-149.7000;0.0822;-0.7192;
-149.4000;0.0822;-0.7280;
-149.1000;0.0814;-0.7347;
-148.8000;0.0838;-0.7435;
-148.5000;0.0847;-0.7413;
-148.2000;0.0855;-0.7391;
-147.9000;0.0830;-0.7435;
-147.6000;0.0847;-0.7457;
-147.3000;0.0716;-0.7634;
-147.0000;0.0806;-0.7413;
-146.7000;0.0781;-0.7479;
-146.4000;0.0814;-0.7369;
-146.1000;0.0855;-0.7347;
-145.8000;0.0798;-0.7501;
-145.5000;0.0806;-0.7479;
-145.2000;0.0847;-0.7435;
-144.9000;0.0790;-0.7391;
-144.6000;0.0765;-0.7435;
-144.3000;0.0830;-0.7302;
-144.0000;0.0822;-0.7302;
-143.7000;0.0814;-0.7347;
-143.4000;0.0806;-0.7324;
-143.1000;0.0863;-0.7147;
-142.8000;0.0798;-0.7280;
-142.5000;0.0830;-0.7214;
-142.2000;0.0806;-0.7258;
-141.9000;0.0733;-0.7302;
-141.6000;0.0765;-0.7302;
-141.3000;0.0814;-0.7214;
-141.0000;0.0757;-0.7369;
-140.7000;0.0863;-0.7147;
-140.4000;0.0822;-0.7236;
-140.1000;0.0830;-0.7214;
-139.8000;0.0830;-0.7192;
-139.5000;0.0806;-0.7236;
-139.2000;0.0871;-0.7125;
-138.9000;0.0806;-0.7324;
-138.6000;0.0838;-0.7324;
-138.3000;0.0733;-0.7590;
-138.0000;0.0838;-0.7347;
-137.7000;0.0806;-0.7413;
-137.4000;0.0822;-0.7236;
-137.1000;0.0904;-0.7081;
-136.8000;0.0822;-0.7192;
-136.5000;0.0814;-0.7147;
-136.2000;0.0822;-0.7170;
-135.9000;0.0806;-0.7125;
-135.6000;0.0830;-0.7103;
-135.3000;0.0830;-0.7125;
-135.0000;0.0814;-0.7192;
-134.7000;0.0814;-0.7170;
-134.4000;0.0798;-0.7192;
-134.1000;0.0822;-0.7214;
-133.8000;0.0700;-0.7479;
-133.5000;0.0822;-0.7192;
-133.2000;0.0830;-0.7081;
-132.9000;0.0822;-0.7170;
-132.6000;0.0830;-0.7192;
-132.3000;0.0847;-0.7170;
-132.0000;0.0814;-0.7125;
-131.7000;0.0830;-0.7059;
-131.4000;0.0830;-0.7037;
-131.1000;0.0814;-0.7103;
-130.8000;0.0830;-0.7015;
-130.5000;0.0920;-0.6815;
-130.2000;0.0790;-0.7170;
-129.9000;0.0781;-0.7192;
-129.6000;0.0790;-0.7258;
-129.3000;0.0806;-0.7236;
-129.0000;0.0838;-0.7147;
-128.7000;0.0822;-0.7214;
-128.4000;0.0790;-0.7214;
-128.1000;0.0798;-0.7170;
-127.8000;0.0814;-0.7170;
-127.5000;0.0790;-0.7280;
-127.2000;0.0814;-0.7236;
-126.9000;0.0814;-0.7214;
-126.6000;0.0822;-0.7170;
-126.3000;0.0838;-0.7103;
-126.0000;0.0814;-0.7236;
-125.7000;0.0838;-0.7125;
-125.4000;0.0814;-0.7125;
-125.1000;0.0822;-0.7037;
-124.8000;0.0822;-0.6992;
-124.5000;0.0781;-0.7081;
-124.2000;0.0822;-0.7103;
-123.9000;0.0806;-0.7170;
-123.6000;0.0806;-0.7258;
-123.3000;0.0749;-0.7435;
-123.0000;0.0757;-0.7479;
-122.7000;0.0806;-0.7324;
-122.4000;0.0806;-0.7347;
-122.1000;0.0790;-0.7324;
-121.8000;0.0814;-0.7214;
-121.5000;0.0806;-0.7170;
-121.2000;0.0855;-0.7147;
-120.9000;0.0830;-0.7236;
-120.6000;0.0855;-0.7192;
-120.3000;0.0790;-0.7391;
-120.0000;0.0806;-0.7258;
-119.7000;0.0798;-0.7258;
-119.4000;0.0814;-0.7170;
-119.1000;0.0790;-0.7147;
-118.8000;0.0806;-0.7081;
-118.5000;0.0822;-0.7103;
-118.2000;0.0790;-0.7170;
-117.9000;0.0781;-0.7258;
-117.6000;0.0814;-0.7236;
-117.3000;0.0814;-0.7236;
-117.0000;0.0692;-0.7479;
-116.7000;0.0822;-0.7214;
-116.4000;0.0806;-0.7258;
-116.1000;0.0904;-0.6992;
-115.8000;0.0830;-0.7324;
-115.5000;0.0806;-0.7391;
-115.2000;0.0830;-0.7258;
-114.9000;0.0814;-0.7280;
-114.6000;0.0830;-0.7192;
-114.3000;0.0814;-0.7280;
-114.0000;0.0830;-0.7258;
-113.7000;0.0822;-0.7214;
-113.4000;0.0830;-0.7192;
-113.1000;0.0855;-0.7147;
-112.8000;0.0895;-0.7081;
-112.5000;0.0822;-0.7302;
-112.2000;0.0822;-0.7302;
-111.9000;0.0814;-0.7435;
-111.6000;0.0838;-0.7324;
-111.3000;0.0814;-0.7369;
-111.0000;0.0814;-0.7369;
-110.7000;0.0798;-0.7413;
-110.4000;0.0798;-0.7391;
-110.1000;0.0822;-0.7236;
-109.8000;0.0790;-0.7347;
-109.5000;0.0838;-0.7192;
-109.2000;0.0838;-0.7192;
-108.9000;0.0822;-0.7302;
-108.6000;0.0838;-0.7280;
-108.3000;0.0798;-0.7435;
-108.0000;0.0847;-0.7258;
-107.7000;0.0838;-0.7236;
-107.4000;0.0830;-0.7258;
-107.1000;0.0838;-0.7347;
-106.8000;0.0806;-0.7391;
-106.5000;0.0822;-0.7391;
-106.2000;0.0847;-0.7413;
-105.9000;0.0822;-0.7501;
-105.6000;0.0904;-0.7236;
-105.3000;0.0830;-0.7369;
-105.0000;0.0822;-0.7347;
-104.7000;0.0814;-0.7258;
-104.4000;0.0847;-0.7236;
-104.1000;0.0838;-0.7324;
-103.8000;0.0822;-0.7369;
-103.5000;0.0830;-0.7280;
-103.2000;0.0969;-0.6992;
-102.9000;0.0822;-0.7457;
-102.6000;0.0814;-0.7501;
-102.3000;0.0838;-0.7457;
-102.0000;0.0847;-0.7413;
-101.7000;0.0830;-0.7457;
-101.4000;0.0814;-0.7435;
-101.1000;0.0822;-0.7391;
-100.8000;0.0814;-0.7324;
-100.5000;0.0822;-0.7280;
-100.2000;0.0814;-0.7302;
-99.9000;0.0814;-0.7302;
-99.6000;0.0814;-0.7324;
-99.3000;0.0781;-0.7391;
-99.0000;0.0765;-0.7435;
-98.7000;0.0798;-0.7324;
-98.4000;0.0830;-0.7214;
-98.1000;0.0814;-0.7170;
-97.8000;0.0806;-0.7170;
-97.5000;0.0838;-0.7103;
-97.2000;0.0806;-0.7236;
-96.9000;0.0757;-0.7258;
-96.6000;0.0863;-0.6970;
-96.3000;0.0790;-0.7236;
-96.0000;0.0822;-0.7125;
-95.7000;0.0838;-0.7125;
-95.4000;0.0765;-0.7347;
-95.1000;0.0692;-0.7568;
-94.8000;0.0814;-0.7347;
-94.5000;0.0749;-0.7524;
-94.2000;0.0838;-0.7369;
-93.9000;0.0822;-0.7391;
-93.6000;0.0838;-0.7347;
-93.3000;0.0838;-0.7391;
-93.0000;0.0838;-0.7391;
-92.7000;0.0830;-0.7391;
-92.4000;0.0855;-0.7302;
-92.1000;0.0757;-0.7391;
-91.8000;0.0781;-0.7347;
-91.5000;0.0806;-0.7236;
-91.2000;0.0822;-0.7258;
-90.9000;0.0814;-0.7302;
-90.6000;0.0822;-0.7347;
-90.3000;0.0830;-0.7324;
-90.0000;0.0798;-0.7413;
-89.7000;0.0806;-0.7391;
-89.4000;0.0822;-0.7435;
-89.1000;0.0798;-0.7369;
-88.8000;0.0781;-0.7435;
-88.5000;0.0806;-0.7347;
-88.2000;0.0814;-0.7280;
-87.9000;0.0822;-0.7236;
-87.6000;0.0781;-0.7413;
-87.3000;0.0847;-0.7214;
-87.0000;0.0741;-0.7369;
-86.7000;0.0757;-0.7280;
-86.4000;0.0830;-0.7170;
-86.1000;0.0806;-0.7147;
-85.8000;0.0814;-0.7125;
-85.5000;0.0798;-0.7170;
-85.2000;0.0798;-0.7081;
-84.9000;0.0798;-0.7103;
-84.6000;0.0814;-0.7081;
-84.3000;0.0790;-0.7125;
-84.0000;0.0822;-0.7059;
-83.7000;0.0814;-0.7147;
-83.4000;0.0838;-0.7037;
-83.1000;0.0822;-0.7081;
-82.8000;0.0830;-0.6992;
-82.5000;0.0814;-0.7059;
-82.2000;0.0847;-0.7037;
-81.9000;0.0814;-0.7081;
-81.6000;0.0798;-0.7037;
-81.3000;0.0838;-0.7037;
-81.0000;0.0838;-0.7081;
-80.7000;0.0814;-0.7170;
-80.4000;0.0822;-0.7192;
-80.1000;0.0838;-0.7147;
-79.8000;0.0830;-0.7236;
-79.5000;0.0806;-0.7214;
-79.2000;0.0895;-0.7015;
-78.9000;0.0773;-0.7347;
-78.6000;0.0822;-0.7258;
-78.3000;0.0822;-0.7214;
-78.0000;0.0814;-0.7369;
-77.7000;0.0773;-0.7413;
-77.4000;0.0806;-0.7302;
-77.1000;0.0806;-0.7236;
-76.8000;0.0790;-0.7192;
-76.5000;0.0814;-0.7103;
-76.2000;0.0830;-0.7081;
-75.9000;0.0822;-0.7059;
-75.6000;0.0814;-0.7037;
-75.3000;0.0822;-0.7037;
-75.0000;0.0863;-0.6882;
-74.7000;0.0806;-0.6970;
-74.4000;0.0773;-0.7059;
-74.1000;0.0814;-0.7037;
-73.8000;0.0741;-0.7192;
-73.5000;0.0790;-0.7059;
-73.2000;0.0790;-0.7125;
-72.9000;0.0814;-0.7103;
-72.6000;0.0806;-0.7037;
-72.3000;0.0822;-0.7081;
-72.0000;0.0830;-0.7015;
-71.7000;0.0822;-0.7081;
-71.4000;0.0838;-0.6992;
-71.1000;0.0822;-0.7059;
-70.8000;0.0814;-0.7147;
-70.5000;0.0822;-0.7170;
-70.2000;0.0838;-0.7258;
-69.9000;0.0814;-0.7302;
-69.6000;0.0838;-0.7236;
-69.3000;0.0814;-0.7324;
-69.0000;0.0765;-0.7435;
-68.7000;0.0798;-0.7324;
-68.4000;0.0765;-0.7524;
-68.1000;0.0773;-0.7501;
-67.8000;0.0798;-0.7435;
-67.5000;0.0830;-0.7479;
-67.2000;0.0733;-0.7634;
-66.9000;0.0838;-0.7391;
-66.6000;0.0830;-0.7435;
-66.3000;0.0798;-0.7457;
-66.0000;0.0806;-0.7413;
-65.7000;0.0863;-0.7280;
-65.4000;0.0838;-0.7324;
-65.1000;0.0814;-0.7258;
-64.8000;0.0798;-0.7280;
-64.5000;0.0798;-0.7280;
-64.2000;0.0822;-0.7280;
-63.9000;0.0741;-0.7435;
-63.6000;0.0733;-0.7369;
-63.3000;0.0798;-0.7214;
-63.0000;0.0814;-0.7170;
-62.7000;0.0838;-0.7103;
-62.4000;0.0822;-0.7125;
-62.1000;0.0814;-0.7125;
-61.8000;0.0855;-0.7125;
-61.5000;0.0847;-0.7103;
-61.2000;0.0830;-0.7081;
-60.9000;0.0798;-0.7125;
-60.6000;0.0806;-0.7125;
-60.3000;0.0838;-0.7037;
-60.0000;0.0781;-0.7081;
-59.7000;0.0855;-0.6926;
-59.4000;0.0814;-0.7081;
-59.1000;0.0781;-0.7280;
-58.8000;0.0830;-0.7192;
-58.5000;0.0822;-0.7214;
-58.2000;0.0822;-0.7236;
-57.9000;0.0822;-0.7170;
-57.6000;0.0822;-0.7192;
-57.3000;0.0814;-0.7214;
-57.0000;0.0814;-0.7192;
-56.7000;0.0814;-0.7125;
-56.4000;0.0838;-0.6992;
-56.1000;0.0806;-0.7059;
-55.8000;0.0830;-0.7081;
-55.5000;0.0847;-0.7147;
-55.2000;0.0838;-0.7258;
-54.9000;0.0822;-0.7280;
-54.6000;0.0863;-0.7258;
-54.3000;0.0798;-0.7435;
-54.0000;0.0830;-0.7369;
-53.7000;0.0855;-0.7280;
-53.4000;0.0790;-0.7501;
-53.1000;0.0798;-0.7413;
-52.8000;0.0838;-0.7236;
-52.5000;0.0814;-0.7258;
-52.2000;0.0806;-0.7236;
-51.9000;0.0798;-0.7391;
-51.6000;0.0814;-0.7479;
-51.3000;0.0806;-0.7501;
-51.0000;0.0838;-0.7369;
-50.7000;0.0822;-0.7435;
-50.4000;0.0798;-0.7435;
-50.1000;0.0822;-0.7236;
-49.8000;0.0814;-0.7302;
-49.5000;0.0806;-0.7391;
-49.2000;0.0741;-0.7501;
-48.9000;0.0790;-0.7479;
-48.6000;0.0830;-0.7324;
-48.3000;0.0830;-0.7435;
-48.0000;0.0912;-0.7214;
-47.7000;0.0798;-0.7413;
-47.4000;0.0814;-0.7302;
-47.1000;0.0806;-0.7324;
-46.8000;0.0790;-0.7324;
-46.5000;0.0912;-0.7015;
-46.2000;0.0822;-0.7280;
-45.9000;0.0838;-0.7280;
-45.6000;0.0822;-0.7347;
-45.3000;0.0879;-0.7192;
-45.0000;0.0814;-0.7369;
-44.7000;0.0798;-0.7324;
-44.4000;0.0806;-0.7236;
-44.1000;0.0814;-0.7147;
-43.8000;0.0814;-0.7170;
-43.5000;0.0806;-0.7147;
-43.2000;0.0863;-0.7125;
-42.9000;0.0814;-0.7280;
-42.6000;0.0822;-0.7236;
-42.3000;0.0822;-0.7214;
-42.0000;0.0798;-0.7302;
-41.7000;0.0838;-0.7192;
-41.4000;0.0798;-0.7280;
-41.1000;0.0814;-0.7280;
-40.8000;0.0847;-0.7347;
-40.5000;0.0790;-0.7479;
-40.2000;0.0830;-0.7280;
-39.9000;0.0830;-0.7236;
-39.6000;0.0830;-0.7192;
-39.3000;0.0814;-0.7214;
-39.0000;0.0806;-0.7258;
-38.7000;0.0847;-0.7147;
-38.4000;0.0830;-0.7280;
-38.1000;0.0822;-0.7214;
-37.8000;0.0806;-0.7258;
-37.5000;0.0716;-0.7457;
-37.2000;0.0822;-0.7214;
-36.9000;0.0895;-0.7037;
-36.6000;0.0806;-0.7236;
-36.3000;0.0814;-0.7214;
-36.0000;0.0838;-0.7147;
-35.7000;0.0806;-0.7280;
-35.4000;0.0806;-0.7302;
-35.1000;0.0830;-0.7236;
-34.8000;0.0806;-0.7258;
-34.5000;0.0879;-0.7103;
-34.2000;0.0781;-0.7302;
-33.9000;0.0838;-0.7125;
-33.6000;0.0798;-0.7214;
-33.3000;0.0838;-0.7081;
-33.0000;0.0790;-0.7170;
-32.7000;0.0798;-0.7280;
-32.4000;0.0838;-0.7192;
-32.1000;0.0920;-0.7059;
-31.8000;0.0838;-0.7302;
-31.5000;0.0855;-0.7258;
-31.2000;0.0806;-0.7347;
-30.9000;0.0822;-0.7324;
-30.6000;0.0830;-0.7192;
-30.3000;0.0822;-0.7258;
-30.0000;0.0806;-0.7391;
-29.7000;0.0798;-0.7435;
-29.4000;0.0814;-0.7413;
-29.1000;0.0757;-0.7501;
-28.8000;0.0806;-0.7324;
-28.5000;0.0838;-0.7258;
-28.2000;0.0847;-0.7236;
-27.9000;0.0822;-0.7258;
-27.6000;0.0863;-0.7170;
-27.3000;0.0822;-0.7302;
-27.0000;0.0822;-0.7236;
-26.7000;0.0733;-0.7479;
-26.4000;0.0879;-0.7059;
-26.1000;0.0757;-0.7302;
-25.8000;0.0830;-0.7081;
-25.5000;0.0895;-0.6992;
-25.2000;0.0814;-0.7280;
-24.9000;0.0863;-0.7170;
-24.6000;0.0773;-0.7347;
-24.3000;0.0830;-0.7280;
-24.0000;0.0724;-0.7590;
-23.7000;0.0798;-0.7391;
-23.4000;0.0806;-0.7369;
-23.1000;0.0814;-0.7280;
-22.8000;0.0757;-0.7391;
-22.5000;0.0798;-0.7258;
-22.2000;0.0814;-0.7258;
-21.9000;0.0806;-0.7170;
-21.6000;0.0798;-0.7214;
-21.3000;0.0757;-0.7236;
-21.0000;0.0830;-0.7059;
-20.7000;0.0830;-0.7037;
-20.4000;0.0798;-0.7214;
-20.1000;0.0798;-0.7347;
-19.8000;0.0798;-0.7236;
-19.5000;0.0814;-0.7302;
-19.2000;0.0863;-0.7192;
-18.9000;0.0830;-0.7258;
-18.6000;0.0838;-0.7170;
-18.3000;0.0847;-0.7170;
-18.0000;0.0814;-0.7280;
-17.7000;0.0830;-0.7302;
-17.4000;0.0806;-0.7369;
-17.1000;0.0838;-0.7435;
-16.8000;0.0798;-0.7590;
-16.5000;0.0814;-0.7501;
-16.2000;0.0838;-0.7391;
-15.9000;0.0814;-0.7347;
-15.6000;0.0830;-0.7347;
-15.3000;0.0822;-0.7302;
-15.0000;0.0790;-0.7302;
-14.7000;0.0822;-0.7258;
-14.4000;0.0798;-0.7214;
-14.1000;0.0798;-0.7170;
-13.8000;0.0806;-0.7170;
-13.5000;0.0830;-0.7258;
-13.2000;0.0814;-0.7236;
-12.9000;0.0814;-0.7192;
-12.6000;0.0814;-0.7170;
-12.3000;0.0814;-0.7280;
-12.0000;0.0822;-0.7258;
-11.7000;0.0822;-0.7236;
-11.4000;0.0855;-0.7302;
-11.1000;0.0790;-0.7435;
-10.8000;0.0822;-0.7413;
-10.5000;0.0822;-0.7435;
-10.2000;0.0790;-0.7546;
-9.9000;0.0814;-0.7568;
-9.6000;0.0765;-0.7612;
-9.3000;0.0798;-0.7524;
-9.0000;0.0806;-0.7568;
-8.7000;0.0814;-0.7479;
-8.4000;0.0814;-0.7391;
-8.1000;0.0822;-0.7413;
-7.8000;0.0830;-0.7369;
-7.5000;0.0806;-0.7391;
-7.2000;0.0790;-0.7391;
-6.9000;0.0944;-0.7015;
-6.6000;0.0838;-0.7391;
-6.3000;0.0781;-0.7568;
-6.0000;0.0765;-0.7612;
-5.7000;0.0822;-0.7524;
-5.4000;0.0806;-0.7435;
-5.1000;0.0814;-0.7413;
-4.8000;0.0838;-0.7435;
-4.5000;0.0781;-0.7501;
-4.2000;0.0847;-0.7369;
-3.9000;0.0847;-0.7324;
-3.6000;0.0781;-0.7479;
-3.3000;0.0806;-0.7369;
-3.0000;0.0773;-0.7435;
-2.7000;0.0822;-0.7324;
-2.4000;0.0757;-0.7501;
-2.1000;0.0871;-0.7280;
-1.8000;0.0830;-0.7391;
-1.5000;0.0871;-0.7435;
-1.2000;0.0838;-0.7501;
-0.9000;0.0863;-0.7435;
-0.6000;0.0822;-0.7546;
-0.3000;0.0830;-0.7568;
0.0000;0.0830;-0.7568;
0.3000;0.0838;-0.7656;
0.6000;0.0830;-0.7568;
0.9000;0.0814;-0.7479;
1.2000;0.0863;-0.7258;
1.5000;0.0847;-0.7236;
1.8000;0.0847;-0.7170;
2.1000;0.0855;-0.7081;
2.4000;0.0830;-0.7170;
2.7000;0.0863;-0.7015;
3.0000;0.0871;-0.6970;
3.3000;0.0863;-0.6838;
3.6000;0.0847;-0.6860;
3.9000;0.0847;-0.6815;
4.2000;0.0871;-0.6661;
4.5000;0.0863;-0.6661;
4.8000;0.0879;-0.6550;
5.1000;0.0855;-0.6572;
5.4000;0.0863;-0.6550;
5.7000;0.0863;-0.6550;
6.0000;0.0895;-0.6484;
6.3000;0.0855;-0.6594;
6.6000;0.0879;-0.6506;
6.9000;0.0855;-0.6594;
7.2000;0.0912;-0.6506;
7.5000;0.0838;-0.6683;
7.8000;0.0830;-0.6727;
8.1000;0.0879;-0.6638;
8.4000;0.0961;-0.6329;
8.7000;0.0879;-0.6506;
9.0000;0.0855;-0.6484;
9.3000;0.0855;-0.6439;
9.6000;0.0863;-0.6329;
9.9000;0.0871;-0.6329;
10.2000;0.0977;-0.6107;
10.5000;0.0855;-0.6395;
10.8000;0.0887;-0.6307;
11.1000;0.0847;-0.6439;
11.4000;0.0838;-0.6506;
11.7000;0.0871;-0.6417;
12.0000;0.0863;-0.6373;
12.3000;0.0863;-0.6351;
12.6000;0.0838;-0.6461;
12.9000;0.0847;-0.6461;
13.2000;0.0871;-0.6417;
13.5000;0.0895;-0.6329;
13.8000;0.0855;-0.6395;
14.1000;0.0879;-0.6307;
14.4000;0.0863;-0.6461;
14.7000;0.0895;-0.6417;
15.0000;0.0847;-0.6528;
15.3000;0.0724;-0.6815;
15.6000;0.0961;-0.6307;
15.9000;0.0879;-0.6439;
16.2000;0.0855;-0.6484;
16.5000;0.0871;-0.6351;
16.8000;0.0879;-0.6351;
17.1000;0.0871;-0.6395;
17.4000;0.0871;-0.6484;
17.7000;0.0879;-0.6484;
18.0000;0.0855;-0.6528;
18.3000;0.0879;-0.6506;
18.6000;0.0887;-0.6506;
18.9000;0.0871;-0.6506;
19.2000;0.0879;-0.6528;
19.5000;0.0814;-0.6638;
19.8000;0.0895;-0.6439;
20.1000;0.0863;-0.6506;
20.4000;0.0855;-0.6439;
20.7000;0.0863;-0.6417;
21.0000;0.0863;-0.6550;
21.3000;0.0847;-0.6506;
21.6000;0.0838;-0.6528;
21.9000;0.0847;-0.6572;
22.2000;0.0871;-0.6594;
22.5000;0.0887;-0.6417;
22.8000;0.0879;-0.6461;
23.1000;0.0912;-0.6528;
23.4000;0.0863;-0.6616;
23.7000;0.0847;-0.6616;
24.0000;0.0863;-0.6528;
24.3000;0.0879;-0.6506;
24.6000;0.0871;-0.6594;
24.9000;0.0863;-0.6683;
25.2000;0.0863;-0.6683;
25.5000;0.0863;-0.6572;
25.8000;0.0863;-0.6572;
26.1000;0.0855;-0.6683;
26.4000;0.0871;-0.6528;
26.7000;0.0887;-0.6439;
27.0000;0.0855;-0.6638;
27.3000;0.0847;-0.6661;
27.6000;0.0879;-0.6616;
27.9000;0.0879;-0.6683;
28.2000;0.0887;-0.6683;
28.5000;0.0879;-0.6749;
28.8000;0.0879;-0.6705;
29.1000;0.0879;-0.6705;
29.4000;0.0871;-0.6727;
29.7000;0.0863;-0.6727;
30.0000;0.0863;-0.6683;
30.3000;0.0871;-0.6705;
30.6000;0.0863;-0.6749;
30.9000;0.0863;-0.6749;
31.2000;0.0879;-0.6683;
31.5000;0.0847;-0.6793;
31.8000;0.0838;-0.6727;
32.1000;0.0887;-0.6638;
32.4000;0.0920;-0.6616;
32.7000;0.0863;-0.6705;
33.0000;0.0676;-0.7125;
33.3000;0.0855;-0.6727;
33.6000;0.0871;-0.6683;
33.9000;0.0822;-0.6860;
34.2000;0.0838;-0.6705;
34.5000;0.0863;-0.6550;
34.8000;0.0855;-0.6594;
35.1000;0.0855;-0.6550;
35.4000;0.0863;-0.6528;
35.7000;0.0871;-0.6616;
36.0000;0.0863;-0.6550;
36.3000;0.0879;-0.6594;
36.6000;0.0895;-0.6638;
36.9000;0.0863;-0.6661;
37.2000;0.0887;-0.6528;
37.5000;0.0863;-0.6528;
37.8000;0.0895;-0.6506;
38.1000;0.0879;-0.6661;
38.4000;0.0871;-0.6638;
38.7000;0.0855;-0.6638;
39.0000;0.0904;-0.6550;
39.3000;0.0879;-0.6638;
39.6000;0.0961;-0.6351;
39.9000;0.0863;-0.6506;
40.2000;0.0871;-0.6417;
40.5000;0.0838;-0.6528;
40.8000;0.0871;-0.6528;
41.1000;0.0879;-0.6616;
41.4000;0.0863;-0.6683;
41.7000;0.0887;-0.6661;
42.0000;0.0847;-0.6860;
42.3000;0.0863;-0.6815;
42.6000;0.0871;-0.6771;
42.9000;0.0855;-0.6815;
43.2000;0.0855;-0.6793;
43.5000;0.0863;-0.6638;
43.8000;0.0895;-0.6528;
44.1000;0.0863;-0.6616;
44.4000;0.0912;-0.6506;
44.7000;0.0895;-0.6550;
45.0000;0.0855;-0.6594;
45.3000;0.0969;-0.6307;
45.6000;0.0879;-0.6439;
45.9000;0.0863;-0.6550;
46.2000;0.0879;-0.6528;
46.5000;0.0847;-0.6661;
46.8000;0.0887;-0.6616;
47.1000;0.0928;-0.6484;
47.4000;0.0928;-0.6572;
47.7000;0.0863;-0.6749;
48.0000;0.0961;-0.6484;
48.3000;0.0904;-0.6572;
48.6000;0.0879;-0.6661;
48.9000;0.0904;-0.6528;
49.2000;0.0887;-0.6572;
49.5000;0.0847;-0.6616;
49.8000;0.0969;-0.6417;
50.1000;0.0904;-0.6572;
50.4000;0.0879;-0.6638;
50.7000;0.0977;-0.6262;
51.0000;0.0871;-0.6528;
51.3000;0.0887;-0.6484;
51.6000;0.0887;-0.6506;
51.9000;0.0887;-0.6506;
52.2000;0.0887;-0.6461;
52.5000;0.0855;-0.6506;
52.8000;0.0920;-0.6284;
53.1000;0.0863;-0.6461;
53.4000;0.0855;-0.6484;
53.7000;0.0895;-0.6461;
54.0000;0.0895;-0.6439;
54.3000;0.0879;-0.6439;
54.6000;0.0879;-0.6506;
54.9000;0.0871;-0.6461;
55.2000;0.0863;-0.6506;
55.5000;0.0895;-0.6439;
55.8000;0.0871;-0.6484;
56.1000;0.0895;-0.6484;
56.4000;0.0855;-0.6572;
56.7000;0.0887;-0.6550;
57.0000;0.0871;-0.6616;
57.3000;0.0822;-0.6727;
57.6000;0.0879;-0.6550;
57.9000;0.0871;-0.6572;
58.2000;0.0871;-0.6572;
58.5000;0.0838;-0.6616;
58.8000;0.0895;-0.6638;
59.1000;0.0904;-0.6572;
59.4000;0.0847;-0.6683;
59.7000;0.0887;-0.6484;
60.0000;0.0895;-0.6528;
60.3000;0.0887;-0.6506;
60.6000;0.0871;-0.6439;
60.9000;0.0879;-0.6395;
61.2000;0.0887;-0.6395;
61.5000;0.0887;-0.6461;
61.8000;0.0879;-0.6395;
62.1000;0.0879;-0.6417;
62.4000;0.0895;-0.6506;
62.7000;0.0879;-0.6528;
63.0000;0.0822;-0.6705;
63.3000;0.0887;-0.6528;
63.6000;0.0879;-0.6638;
63.9000;0.0912;-0.6550;
64.2000;0.0871;-0.6616;
64.5000;0.0863;-0.6638;
64.8000;0.0887;-0.6506;
65.1000;0.0879;-0.6550;
65.4000;0.0879;-0.6506;
65.7000;0.0863;-0.6572;
66.0000;0.0814;-0.6727;
66.3000;0.0879;-0.6484;
66.6000;0.0912;-0.6351;
66.9000;0.0944;-0.6284;
67.2000;0.0952;-0.6284;
67.5000;0.0879;-0.6506;
67.8000;0.0879;-0.6528;
68.1000;0.0855;-0.6506;
68.4000;0.0871;-0.6550;
68.7000;0.0871;-0.6616;
69.0000;0.0895;-0.6528;
69.3000;0.0879;-0.6417;
69.6000;0.0855;-0.6484;
69.9000;0.0830;-0.6616;
70.2000;0.0749;-0.6882;
70.5000;0.0822;-0.6661;
70.8000;0.0871;-0.6572;
71.1000;0.0830;-0.6638;
71.4000;0.0871;-0.6616;
71.7000;0.0863;-0.6616;
72.0000;0.0920;-0.6461;
72.3000;0.0936;-0.6395;
72.6000;0.0863;-0.6506;
72.9000;0.0928;-0.6329;
73.2000;0.0895;-0.6439;
73.5000;0.0830;-0.6528;
73.8000;0.0814;-0.6572;
74.1000;0.0855;-0.6528;
74.4000;0.0887;-0.6439;
74.7000;0.0822;-0.6616;
75.0000;0.0838;-0.6439;
75.3000;0.0936;-0.6152;
75.6000;0.0879;-0.6196;
75.9000;0.0904;-0.6063;
76.2000;0.0895;-0.6152;
76.5000;0.0863;-0.6284;
76.8000;0.0863;-0.6307;
77.1000;0.0855;-0.6373;
77.4000;0.0879;-0.6351;
77.7000;0.0855;-0.6307;
78.0000;0.0863;-0.6284;
78.3000;0.0855;-0.6284;
78.6000;0.0904;-0.6262;
78.9000;0.0871;-0.6329;
79.2000;0.0887;-0.6307;
79.5000;0.0871;-0.6329;
79.8000;0.0871;-0.6329;
80.1000;0.0879;-0.6417;
80.4000;0.0895;-0.6351;
80.7000;0.0887;-0.6329;
81.0000;0.0855;-0.6351;
81.3000;0.0895;-0.6351;
81.6000;0.0871;-0.6373;
81.9000;0.0855;-0.6307;
82.2000;0.0863;-0.6351;
82.5000;0.0871;-0.6307;
82.8000;0.0895;-0.6329;
83.1000;0.0879;-0.6329;
83.4000;0.0879;-0.6240;
83.7000;0.0871;-0.6284;
84.0000;0.0879;-0.6196;
84.3000;0.0863;-0.6329;
84.6000;0.0806;-0.6484;
84.9000;0.0895;-0.6240;
85.2000;0.0838;-0.6373;
85.5000;0.0871;-0.6284;
85.8000;0.0879;-0.6240;
86.1000;0.0879;-0.6240;
86.4000;0.0887;-0.6129;
86.7000;0.0855;-0.6240;
87.0000;0.0912;-0.6174;
87.3000;0.0952;-0.6129;
87.6000;0.0871;-0.6351;
87.9000;0.0863;-0.6417;
88.2000;0.0863;-0.6373;
88.5000;0.0863;-0.6439;
88.8000;0.0879;-0.6417;
89.1000;0.0879;-0.6373;
89.4000;0.0920;-0.6240;
89.7000;0.0871;-0.6307;
90.0000;0.0830;-0.6373;
90.3000;0.0904;-0.6152;
90.6000;0.0798;-0.6395;
90.9000;0.0863;-0.6174;
91.2000;0.0912;-0.6085;
91.5000;0.0863;-0.6284;
91.8000;0.0879;-0.6240;
92.1000;0.0887;-0.6174;
92.4000;0.0879;-0.6196;
92.7000;0.0895;-0.6129;
93.0000;0.0871;-0.6262;
93.3000;0.0798;-0.6417;
93.6000;0.0928;-0.6019;
93.9000;0.0855;-0.6240;
94.2000;0.0871;-0.6107;
94.5000;0.0855;-0.6129;
94.8000;0.0855;-0.6218;
95.1000;0.0855;-0.6284;
95.4000;0.0830;-0.6484;
95.7000;0.0855;-0.6395;
96.0000;0.0863;-0.6373;
96.3000;0.0863;-0.6373;
96.6000;0.0863;-0.6329;
96.9000;0.0879;-0.6240;
97.2000;0.0871;-0.6218;
97.5000;0.0871;-0.6196;
97.8000;0.0895;-0.6174;
98.1000;0.0863;-0.6262;
98.4000;0.0855;-0.6218;
98.7000;0.0887;-0.6218;
99.0000;0.0855;-0.6329;
99.3000;0.0912;-0.6240;
99.6000;0.0879;-0.6307;
99.9000;0.0912;-0.6174;
100.2000;0.0895;-0.6174;
100.5000;0.0879;-0.6218;
100.8000;0.0887;-0.6152;
101.1000;0.0912;-0.5997;
101.4000;0.0847;-0.6218;
101.7000;0.0871;-0.6152;
102.0000;0.0895;-0.6129;
102.3000;0.0806;-0.6373;
102.6000;0.0887;-0.6129;
102.9000;0.0879;-0.6129;
103.2000;0.0871;-0.6174;
103.5000;0.0904;-0.6174;
103.8000;0.0887;-0.6307;
104.1000;0.0912;-0.6284;
104.4000;0.0879;-0.6461;
104.7000;0.0838;-0.6528;
105.0000;0.0879;-0.6395;
105.3000;0.0855;-0.6528;
105.6000;0.0871;-0.6528;
105.9000;0.0855;-0.6461;
106.2000;0.0863;-0.6461;
106.5000;0.0847;-0.6528;
106.8000;0.0830;-0.6594;
107.1000;0.0847;-0.6506;
107.4000;0.0830;-0.6506;
107.7000;0.0904;-0.6373;
108.0000;0.0863;-0.6351;
108.3000;0.0904;-0.6218;
108.6000;0.0928;-0.6107;
108.9000;0.0871;-0.6196;
109.2000;0.0863;-0.6218;
109.5000;0.0855;-0.6218;
109.8000;0.0855;-0.6262;
110.1000;0.0733;-0.6638;
110.4000;0.0871;-0.6329;
110.7000;0.0936;-0.6240;
111.0000;0.0912;-0.6329;
111.3000;0.0879;-0.6329;
111.6000;0.0871;-0.6373;
111.9000;0.0887;-0.6373;
112.2000;0.0887;-0.6329;
112.5000;0.0944;-0.6262;
112.8000;0.0920;-0.6329;
113.1000;0.0863;-0.6439;
113.4000;0.0871;-0.6484;
113.7000;0.0879;-0.6461;
114.0000;0.0879;-0.6351;
114.3000;0.0863;-0.6307;
114.6000;0.0822;-0.6395;
114.9000;0.0871;-0.6351;
115.2000;0.0871;-0.6417;
115.5000;0.0887;-0.6417;
115.8000;0.0863;-0.6439;
116.1000;0.0871;-0.6395;
116.4000;0.0855;-0.6484;
116.7000;0.0871;-0.6461;
117.0000;0.0855;-0.6417;
117.3000;0.0887;-0.6284;
117.6000;0.0806;-0.6395;
117.9000;0.0871;-0.6284;
118.2000;0.0895;-0.6218;
118.5000;0.0871;-0.6240;
118.8000;0.0871;-0.6351;
119.1000;0.0871;-0.6307;
119.4000;0.0871;-0.6240;
119.7000;0.0879;-0.6307;
120.0000;0.0863;-0.6240;
120.3000;0.0863;-0.6262;
120.6000;0.0879;-0.6240;
120.9000;0.0863;-0.6351;
121.2000;0.0863;-0.6439;
121.5000;0.0863;-0.6395;
121.8000;0.0863;-0.6417;
122.1000;0.0879;-0.6439;
122.4000;0.0863;-0.6461;
122.7000;0.0863;-0.6439;
123.0000;0.0871;-0.6395;
123.3000;0.0871;-0.6439;
123.6000;0.0879;-0.6373;
123.9000;0.0879;-0.6351;
124.2000;0.0879;-0.6307;
124.5000;0.0912;-0.6240;
124.8000;0.0838;-0.6461;
125.1000;0.0863;-0.6484;
125.4000;0.0879;-0.6484;
125.7000;0.0855;-0.6417;
126.0000;0.0855;-0.6417;
126.3000;0.0855;-0.6373;
126.6000;0.0863;-0.6329;
126.9000;0.0887;-0.6351;
127.2000;0.0822;-0.6506;
127.5000;0.0871;-0.6351;
127.8000;0.0895;-0.6262;
128.1000;0.0904;-0.6240;
128.4000;0.0887;-0.6262;
128.7000;0.0879;-0.6351;
129.0000;0.0904;-0.6284;
129.3000;0.0904;-0.6218;
129.6000;0.0838;-0.6307;
129.9000;0.0871;-0.6351;
130.2000;0.0871;-0.6262;
130.5000;0.0863;-0.6329;
130.8000;0.0847;-0.6307;
131.1000;0.0871;-0.6262;
131.4000;0.0936;-0.6174;
131.7000;0.0871;-0.6395;
132.0000;0.0879;-0.6351;
132.3000;0.0920;-0.6262;
132.6000;0.0871;-0.6395;
132.9000;0.0822;-0.6506;
133.2000;0.0830;-0.6461;
133.5000;0.0871;-0.6307;
133.8000;0.0920;-0.6218;
134.1000;0.0887;-0.6351;
134.4000;0.0895;-0.6284;
134.7000;0.0895;-0.6240;
135.0000;0.0855;-0.6307;
135.3000;0.0887;-0.6196;
135.6000;0.0871;-0.6240;
135.9000;0.0871;-0.6218;
136.2000;0.0871;-0.6240;
136.5000;0.0887;-0.6196;
136.8000;0.0830;-0.6395;
137.1000;0.0895;-0.6129;
137.4000;0.0822;-0.6395;
137.7000;0.0879;-0.6329;
138.0000;0.0904;-0.6174;
138.3000;0.0798;-0.6506;
138.6000;0.0879;-0.6329;
138.9000;0.0895;-0.6218;
139.2000;0.0895;-0.6152;
139.5000;0.0765;-0.6484;
139.8000;0.0855;-0.6262;
140.1000;0.0830;-0.6196;
140.4000;0.0814;-0.6307;
140.7000;0.0806;-0.6351;
141.0000;0.0847;-0.6152;
141.3000;0.0855;-0.6240;
141.6000;0.0895;-0.6218;
141.9000;0.0814;-0.6439;
142.2000;0.0855;-0.6461;
142.5000;0.0863;-0.6417;
142.8000;0.0863;-0.6506;
143.1000;0.0847;-0.6506;
143.4000;0.0838;-0.6550;
143.7000;0.0822;-0.6550;
144.0000;0.0879;-0.6373;
144.3000;0.0904;-0.6307;
144.6000;0.0838;-0.6506;
144.9000;0.0920;-0.6329;
145.2000;0.0847;-0.6461;
145.5000;0.0879;-0.6417;
145.8000;0.0855;-0.6461;
146.1000;0.0838;-0.6484;
146.4000;0.0855;-0.6461;
146.7000;0.0879;-0.6439;
147.0000;0.0887;-0.6395;
147.3000;0.0855;-0.6484;
147.6000;0.0871;-0.6461;
147.9000;0.0871;-0.6417;
148.2000;0.0863;-0.6417;
148.5000;0.0863;-0.6417;
148.8000;0.0887;-0.6373;
149.1000;0.0863;-0.6395;
149.4000;0.0879;-0.6373;
149.7000;0.0847;-0.6417;
150.0000;0.0871;-0.6351;
150.3000;0.0830;-0.6461;
150.6000;0.0879;-0.6417;
150.9000;0.0838;-0.6506;
151.2000;0.0871;-0.6528;
151.5000;0.0863;-0.6506;
151.8000;0.0863;-0.6616;
152.1000;0.0887;-0.6550;
152.4000;0.0847;-0.6572;
152.7000;0.0863;-0.6594;
153.0000;0.0863;-0.6594;
153.3000;0.0920;-0.6329;
153.6000;0.0871;-0.6439;
153.9000;0.0871;-0.6439;
154.2000;0.0887;-0.6461;
154.5000;0.0790;-0.6727;
154.8000;0.0871;-0.6461;
155.1000;0.0863;-0.6484;
155.4000;0.0863;-0.6550;
155.7000;0.0814;-0.6661;
156.0000;0.0871;-0.6484;
156.3000;0.0887;-0.6373;
156.6000;0.0855;-0.6484;
156.9000;0.0895;-0.6329;
157.2000;0.0895;-0.6351;
157.5000;0.0912;-0.6373;
157.8000;0.0887;-0.6439;
158.1000;0.0895;-0.6417;
158.4000;0.0887;-0.6461;
158.7000;0.0855;-0.6484;
159.0000;0.0871;-0.6439;
159.3000;0.0879;-0.6395;
159.6000;0.0904;-0.6218;
159.9000;0.0879;-0.6329;
160.2000;0.0838;-0.6395;
160.5000;0.0879;-0.6373;
160.8000;0.0871;-0.6484;
161.1000;0.0855;-0.6550;
161.4000;0.0944;-0.6329;
161.7000;0.0863;-0.6594;
162.0000;0.0741;-0.6882;
162.3000;0.0830;-0.6638;
162.6000;0.0871;-0.6461;
162.9000;0.0871;-0.6484;
163.2000;0.0920;-0.6307;
163.5000;0.0895;-0.6484;
163.8000;0.0895;-0.6506;
164.1000;0.0952;-0.6373;
164.4000;0.0855;-0.6638;
164.7000;0.0887;-0.6506;
165.0000;0.0838;-0.6594;
165.3000;0.0961;-0.6395;
165.6000;0.0863;-0.6594;
165.9000;0.0822;-0.6705;
166.2000;0.0879;-0.6484;
166.5000;0.0879;-0.6484;
166.8000;0.0806;-0.6661;
167.1000;0.0863;-0.6572;
167.4000;0.0847;-0.6550;
167.7000;0.0895;-0.6439;
168.0000;0.0847;-0.6528;
168.3000;0.0847;-0.6439;
168.6000;0.0887;-0.6351;
168.9000;0.0871;-0.6461;
169.2000;0.0887;-0.6461;
169.5000;0.0863;-0.6528;
169.8000;0.0814;-0.6705;
170.1000;0.0847;-0.6683;
170.4000;0.0863;-0.6616;
170.7000;0.0847;-0.6638;
171.0000;0.0806;-0.6705;
171.3000;0.0855;-0.6528;
171.6000;0.0871;-0.6461;
171.9000;0.0887;-0.6484;
172.2000;0.0912;-0.6417;
172.5000;0.0863;-0.6484;
172.8000;0.0871;-0.6439;
173.1000;0.0790;-0.6638;
173.4000;0.0871;-0.6550;
173.7000;0.0863;-0.6572;
174.0000;0.0879;-0.6572;
174.3000;0.0838;-0.6550;
174.6000;0.0855;-0.6484;
174.9000;0.0855;-0.6572;
175.2000;0.0871;-0.6506;
175.5000;0.0895;-0.6484;
175.8000;0.0838;-0.6661;
176.1000;0.0863;-0.6616;
176.4000;0.0895;-0.6484;
176.7000;0.0847;-0.6484;
177.0000;0.0863;-0.6439;
177.3000;0.1009;-0.6085;
177.6000;0.0855;-0.6395;
177.9000;0.0895;-0.6307;
178.2000;0.0871;-0.6351;
178.5000;0.0952;-0.6174;
178.8000;0.0895;-0.6307;
179.1000;0.0871;-0.6417;
179.4000;0.0863;-0.6417;
179.7000;0.0847;-0.6461;
180.0000;0.0912;-0.6284;
180.3000;0.0912;-0.6262;
180.6000;0.0838;-0.6484;
180.9000;0.0904;-0.6307;
181.2000;0.0871;-0.6329;
181.5000;0.0863;-0.6351;
181.8000;0.0904;-0.6196;
182.1000;0.0985;-0.5975;
182.4000;0.0871;-0.6262;
182.7000;0.0863;-0.6373;
183.0000;0.0887;-0.6351;
183.3000;0.0895;-0.6240;
183.6000;0.0895;-0.6218;
183.9000;0.0887;-0.6218;
184.2000;0.0814;-0.6351;
184.5000;0.0871;-0.6218;
184.8000;0.0887;-0.6284;
185.1000;0.0863;-0.6284;
185.4000;0.0773;-0.6484;
185.7000;0.0871;-0.6196;
186.0000;0.0879;-0.6174;
186.3000;0.0887;-0.6152;
186.6000;0.0871;-0.6240;
186.9000;0.0904;-0.6240;
187.2000;0.0944;-0.6174;
187.5000;0.0969;-0.6129;
187.8000;0.0879;-0.6284;
188.1000;0.0855;-0.6262;
188.4000;0.0936;-0.6041;
188.7000;0.0863;-0.6307;
189.0000;0.0871;-0.6307;
189.3000;0.0887;-0.6262;
189.6000;0.0879;-0.6240;
189.9000;0.0871;-0.6240;
190.2000;0.0855;-0.6351;
190.5000;0.0871;-0.6395;
190.8000;0.0863;-0.6417;
191.1000;0.0887;-0.6329;
191.4000;0.0879;-0.6307;
191.7000;0.0847;-0.6395;
192.0000;0.0847;-0.6417;
192.3000;0.0871;-0.6351;
192.6000;0.0912;-0.6218;
192.9000;0.0863;-0.6307;
193.2000;0.0887;-0.6262;
193.5000;0.0912;-0.6284;
193.8000;0.0838;-0.6417;
194.1000;0.0871;-0.6417;
194.4000;0.0863;-0.6395;
194.7000;0.0838;-0.6351;
195.0000;0.0855;-0.6284;
195.3000;0.0863;-0.6307;
195.6000;0.0887;-0.6218;
195.9000;0.0863;-0.6373;
196.2000;0.0895;-0.6351;
196.5000;0.0887;-0.6373;
196.8000;0.0871;-0.6284;
197.1000;0.0895;-0.6174;
197.4000;0.0912;-0.6129;
197.7000;0.0879;-0.6240;
198.0000;0.0895;-0.6240;
198.3000;0.0798;-0.6484;
198.6000;0.0912;-0.6284;
198.9000;0.0822;-0.6417;
199.2000;0.0863;-0.6373;
199.5000;0.0871;-0.6373;
199.8000;0.0879;-0.6351;
200.1000;0.0887;-0.6373;
200.4000;0.0855;-0.6262;
200.7000;0.0863;-0.6174;
201.0000;0.0863;-0.6174;
201.3000;0.0855;-0.6196;
201.6000;0.1034;-0.5709;
201.9000;0.0863;-0.6152;
202.2000;0.0830;-0.6307;
202.5000;0.0871;-0.6174;
202.8000;0.0879;-0.6063;
203.1000;0.0879;-0.6152;
203.4000;0.0863;-0.6196;
203.7000;0.0790;-0.6439;
204.0000;0.0871;-0.6329;
204.3000;0.0855;-0.6417;
204.6000;0.0871;-0.6329;
204.9000;0.0855;-0.6395;
205.2000;0.0847;-0.6439;
205.5000;0.0798;-0.6439;
205.8000;0.0863;-0.6174;
206.1000;0.0855;-0.6174;
206.4000;0.0871;-0.6174;
206.7000;0.0887;-0.6174;
207.0000;0.0928;-0.6107;
207.3000;0.0871;-0.6218;
207.6000;0.0863;-0.6218;
207.9000;0.0855;-0.6284;
208.2000;0.0895;-0.6240;
208.5000;0.0871;-0.6329;
208.8000;0.0887;-0.6218;
209.1000;0.0879;-0.6129;
209.4000;0.0822;-0.6329;
209.7000;0.0879;-0.6085;
210.0000;0.0773;-0.6351;
210.3000;0.0879;-0.6129;
210.6000;0.0887;-0.6129;
210.9000;0.0871;-0.6152;
211.2000;0.0887;-0.6129;
211.5000;0.0879;-0.6218;
211.8000;0.0879;-0.6174;
212.1000;0.0847;-0.6240;
212.4000;0.0855;-0.6174;
212.7000;0.0912;-0.6063;
213.0000;0.0879;-0.6129;
213.3000;0.0895;-0.6218;
213.6000;0.0895;-0.6174;
213.9000;0.0863;-0.6240;
214.2000;0.0871;-0.6262;
214.5000;0.0879;-0.6284;
214.8000;0.0879;-0.6262;
215.1000;0.0871;-0.6329;
215.4000;0.0879;-0.6284;
215.7000;0.0871;-0.6307;
216.0000;0.0863;-0.6284;
216.3000;0.0904;-0.6218;
216.6000;0.0863;-0.6351;
216.9000;0.0871;-0.6307;
217.2000;0.0879;-0.6262;
217.5000;0.0895;-0.6307;
217.8000;0.0920;-0.6351;
218.1000;0.0895;-0.6373;
218.4000;0.0912;-0.6439;
218.7000;0.0887;-0.6417;
219.0000;0.0855;-0.6439;
219.3000;0.0895;-0.6307;
219.6000;0.0863;-0.6351;
219.9000;0.0814;-0.6484;
220.2000;0.0879;-0.6351;
220.5000;0.0863;-0.6329;
220.8000;0.0871;-0.6240;
221.1000;0.0879;-0.6240;
221.4000;0.0936;-0.6196;
221.7000;0.0847;-0.6307;
222.0000;0.0855;-0.6174;
222.3000;0.0822;-0.6262;
222.6000;0.0887;-0.6085;
222.9000;0.0895;-0.6152;
223.2000;0.0920;-0.6019;
223.5000;0.0863;-0.6218;
223.8000;0.0887;-0.6196;
224.1000;0.0871;-0.6240;
224.4000;0.0887;-0.6218;
224.7000;0.0871;-0.6284;
225.0000;0.0887;-0.6152;
225.3000;0.0863;-0.6174;
225.6000;0.1083;-0.5554;
225.9000;0.0887;-0.6041;
226.2000;0.0863;-0.6085;
226.5000;0.1001;-0.5665;
226.8000;0.0887;-0.5952;
227.1000;0.0847;-0.6085;
227.4000;0.0871;-0.5975;
227.7000;0.0838;-0.6085;
228.0000;0.0879;-0.6019;
228.3000;0.0887;-0.6063;
228.6000;0.0895;-0.6174;
228.9000;0.0887;-0.6218;
229.2000;0.0879;-0.6218;
229.5000;0.0871;-0.6240;
229.8000;0.0847;-0.6307;
230.1000;0.0985;-0.5930;
230.4000;0.0871;-0.6152;
230.7000;0.0879;-0.6152;
231.0000;0.0887;-0.6152;
231.3000;0.0863;-0.6196;
231.6000;0.0887;-0.6196;
231.9000;0.0863;-0.6262;
232.2000;0.0895;-0.6174;
232.5000;0.0798;-0.6439;
232.8000;0.0855;-0.6351;
233.1000;0.0879;-0.6329;
233.4000;0.0887;-0.6262;
233.7000;0.0871;-0.6196;
234.0000;0.0871;-0.6218;
234.3000;0.0855;-0.6218;
234.6000;0.0863;-0.6196;
234.9000;0.0879;-0.6196;
235.2000;0.0879;-0.6218;
235.5000;0.0871;-0.6307;
235.8000;0.0879;-0.6307;
236.1000;0.0904;-0.6307;
236.4000;0.0863;-0.6395;
236.7000;0.0855;-0.6395;
237.0000;0.0863;-0.6395;
237.3000;0.0895;-0.6284;
237.6000;0.0887;-0.6351;
237.9000;0.0871;-0.6417;
238.2000;0.0904;-0.6351;
238.5000;0.0855;-0.6351;
238.8000;0.0871;-0.6218;
239.1000;0.0847;-0.6240;
239.4000;0.0887;-0.6085;
239.7000;0.0912;-0.6019;
240.0000;0.0887;-0.5975;
240.3000;0.0871;-0.6085;
240.6000;0.0879;-0.6019;
240.9000;0.0855;-0.6152;
241.2000;0.0855;-0.6174;
241.5000;0.0863;-0.6174;
241.8000;0.0895;-0.6196;
242.1000;0.0912;-0.6174;
242.4000;0.0855;-0.6240;
242.7000;0.0895;-0.6174;
243.0000;0.0863;-0.6262;
243.3000;0.0887;-0.6262;
243.6000;0.0863;-0.6373;
243.9000;0.0879;-0.6307;
244.2000;0.0871;-0.6262;
244.5000;0.0855;-0.6262;
244.8000;0.0879;-0.6351;
245.1000;0.0887;-0.6307;
245.4000;0.0855;-0.6351;
245.7000;0.0855;-0.6262;
246.0000;0.0863;-0.6307;
246.3000;0.0871;-0.6240;
246.6000;0.0863;-0.6262;
246.9000;0.0838;-0.6373;
247.2000;0.0887;-0.6240;
247.5000;0.0920;-0.6240;
247.8000;0.0847;-0.6373;
248.1000;0.0904;-0.6174;
248.4000;0.0871;-0.6196;
248.7000;0.0895;-0.6129;
249.0000;0.0871;-0.6218;
249.3000;0.0936;-0.6085;
249.6000;0.0879;-0.6307;
249.9000;0.0879;-0.6284;
250.2000;0.0928;-0.6174;
250.5000;0.0838;-0.6351;
250.8000;0.0863;-0.6240;
251.1000;0.0895;-0.6196;
251.4000;0.0887;-0.6262;
251.7000;0.0822;-0.6417;
252.0000;0.0879;-0.6262;
252.3000;0.0871;-0.6307;
252.6000;0.0887;-0.6284;
252.9000;0.0871;-0.6329;
253.2000;0.0871;-0.6240;
253.5000;0.0879;-0.6196;
253.8000;0.0985;-0.5952;
254.1000;0.0961;-0.5930;
254.4000;0.0863;-0.6218;
254.7000;0.0855;-0.6373;
255.0000;0.0871;-0.6351;
255.3000;0.0871;-0.6351;
255.6000;0.0838;-0.6439;
255.9000;0.0871;-0.6240;
256.2000;0.0855;-0.6262;
256.5000;0.0781;-0.6550;
256.8000;0.0830;-0.6484;
257.1000;0.0871;-0.6461;
257.4000;0.0855;-0.6528;
257.7000;0.0871;-0.6528;
258.0000;0.0773;-0.6771;
258.3000;0.0765;-0.6661;
258.6000;0.0863;-0.6461;
258.9000;0.0863;-0.6417;
259.2000;0.0822;-0.6439;
259.5000;0.0855;-0.6439;
259.8000;0.0863;-0.6417;
260.1000;0.0993;-0.6019;
260.4000;0.0863;-0.6439;
260.7000;0.0879;-0.6461;
261.0000;0.0863;-0.6439;
261.3000;0.0855;-0.6506;
261.6000;0.0847;-0.6528;
261.9000;0.0847;-0.6461;
262.2000;0.0887;-0.6461;
262.5000;0.0904;-0.6395;
262.8000;0.0838;-0.6484;
263.1000;0.0871;-0.6351;
263.4000;0.0855;-0.6395;
263.7000;0.0879;-0.6351;
264.0000;0.0863;-0.6373;
264.3000;0.0887;-0.6307;
264.6000;0.0871;-0.6395;
264.9000;0.0961;-0.6174;
265.2000;0.0855;-0.6373;
265.5000;0.0822;-0.6461;
265.8000;0.0855;-0.6329;
266.1000;0.0952;-0.6129;
266.4000;0.0855;-0.6395;
266.7000;0.0871;-0.6484;
267.0000;0.0814;-0.6661;
267.3000;0.0863;-0.6528;
267.6000;0.0871;-0.6506;
267.9000;0.0879;-0.6373;
268.2000;0.0871;-0.6417;
268.5000;0.0863;-0.6461;
268.8000;0.0895;-0.6395;
269.1000;0.0887;-0.6395;
269.4000;0.0887;-0.6373;
269.7000;0.0863;-0.6461;
270.0000;0.0855;-0.6528;
270.3000;0.0863;-0.6506;
270.6000;0.0879;-0.6528;
270.9000;0.0863;-0.6550;
271.2000;0.0838;-0.6594;
271.5000;0.0879;-0.6417;
271.8000;0.1001;-0.6129;
272.1000;0.0863;-0.6351;
272.4000;0.0879;-0.6329;
272.7000;0.0871;-0.6218;
273.0000;0.0822;-0.6329;
273.3000;0.0798;-0.6484;
273.6000;0.0855;-0.6417;
273.9000;0.0847;-0.6484;
274.2000;0.0838;-0.6572;
274.5000;0.0863;-0.6484;
274.8000;0.0863;-0.6351;
275.1000;0.0871;-0.6284;
275.4000;0.0871;-0.6329;
275.7000;0.0855;-0.6417;
276.0000;0.0871;-0.6439;
276.3000;0.0838;-0.6528;
276.6000;0.0838;-0.6506;
276.9000;0.0928;-0.6395;
277.2000;0.0912;-0.6351;
277.5000;0.0790;-0.6638;
277.8000;0.0920;-0.6329;
278.1000;0.0871;-0.6461;
278.4000;0.0879;-0.6395;
278.7000;0.0863;-0.6484;
279.0000;0.0904;-0.6439;
279.3000;0.0887;-0.6550;
279.6000;0.0830;-0.6705;
279.9000;0.0871;-0.6417;
280.2000;0.0871;-0.6351;
280.5000;0.0847;-0.6351;
280.8000;0.0855;-0.6439;
281.1000;0.0879;-0.6351;
281.4000;0.0855;-0.6395;
281.7000;0.0879;-0.6373;
282.0000;0.0855;-0.6373;
282.3000;0.0863;-0.6373;
282.6000;0.0863;-0.6373;
282.9000;0.0879;-0.6284;
283.2000;0.0871;-0.6329;
283.5000;0.0863;-0.6351;
283.8000;0.0887;-0.6240;
284.1000;0.0830;-0.6351;
284.4000;0.0904;-0.6174;
284.7000;0.0806;-0.6395;
285.0000;0.0895;-0.6218;
285.3000;0.0863;-0.6262;
285.6000;0.0871;-0.6240;
285.9000;0.0928;-0.6107;
286.2000;0.0920;-0.6218;
286.5000;0.0863;-0.6329;
286.8000;0.0871;-0.6417;
287.1000;0.0863;-0.6439;
287.4000;0.0871;-0.6506;
287.7000;0.0863;-0.6484;
288.0000;0.0887;-0.6373;
288.3000;0.0863;-0.6439;
288.6000;0.0904;-0.6373;
288.9000;0.0887;-0.6351;
289.2000;0.0961;-0.6129;
289.5000;0.0847;-0.6307;
289.8000;0.0863;-0.6240;
290.1000;0.0855;-0.6152;
290.4000;0.0871;-0.6063;
290.7000;0.0855;-0.6174;
291.0000;0.0838;-0.6240;
291.3000;0.0863;-0.6240;
291.6000;0.0855;-0.6351;
291.9000;0.0855;-0.6417;
292.2000;0.0838;-0.6417;
292.5000;0.0830;-0.6461;
292.8000;0.0871;-0.6417;
293.1000;0.0863;-0.6373;
293.4000;0.0863;-0.6373;
293.7000;0.0961;-0.6196;
294.0000;0.0838;-0.6506;
294.3000;0.0611;-0.6926;
294.6000;0.0904;-0.6240;
294.9000;0.0871;-0.6417;
295.2000;0.0863;-0.6417;
295.5000;0.0879;-0.6307;
295.8000;0.0863;-0.6329;
296.1000;0.0830;-0.6417;
296.4000;0.0806;-0.6373;
296.7000;0.0904;-0.6218;
297.0000;0.0879;-0.6395;
297.3000;0.0879;-0.6329;
297.6000;0.1042;-0.5908;
297.9000;0.0887;-0.6262;
298.2000;0.0879;-0.6196;
298.5000;0.0928;-0.6129;
298.8000;0.0879;-0.6284;
299.1000;0.0879;-0.6307;
299.4000;0.0838;-0.6351;
299.7000;0.0863;-0.6284;
300.0000;0.0871;-0.6329;
300.3000;0.0838;-0.6417;
300.6000;0.0887;-0.6307;
300.9000;0.0928;-0.6218;
301.2000;0.0855;-0.6351;
301.5000;0.0781;-0.6484;
301.8000;0.0871;-0.6284;
302.1000;0.0863;-0.6307;
302.4000;0.0887;-0.6262;
302.7000;0.0863;-0.6284;
303.0000;0.0871;-0.6240;
303.3000;0.0887;-0.6196;
303.6000;0.0871;-0.6174;
303.9000;0.0879;-0.6129;
304.2000;0.0871;-0.6174;
304.5000;0.0895;-0.6152;
304.8000;0.0895;-0.6240;
305.1000;0.0838;-0.6395;
305.4000;0.0871;-0.6307;
305.7000;0.0871;-0.6240;
306.0000;0.0863;-0.6262;
306.3000;0.0855;-0.6351;
306.6000;0.0838;-0.6329;
306.9000;0.0855;-0.6284;
307.2000;0.0863;-0.6373;
307.5000;0.0855;-0.6373;
307.8000;0.0855;-0.6284;
308.1000;0.0863;-0.6196;
308.4000;0.0887;-0.6085;
308.7000;0.0879;-0.6152;
309.0000;0.0895;-0.5997;
309.3000;0.0838;-0.6174;
309.6000;0.0879;-0.5975;
309.9000;0.0879;-0.6019;
310.2000;0.0863;-0.6019;
310.5000;0.0863;-0.6041;
310.8000;0.0871;-0.6107;
311.1000;0.0993;-0.5798;
311.4000;0.0847;-0.6129;
311.7000;0.0838;-0.6174;
312.0000;0.0847;-0.6240;
312.3000;0.0838;-0.6218;
312.6000;0.0863;-0.6218;
312.9000;0.0855;-0.6240;
313.2000;0.0895;-0.6240;
313.5000;0.0871;-0.6307;
313.8000;0.0985;-0.5997;
314.1000;0.0822;-0.6351;
314.4000;0.0863;-0.6174;
314.7000;0.0847;-0.6240;
315.0000;0.0863;-0.6174;
315.3000;0.0863;-0.6174;
315.6000;0.0838;-0.6196;
315.9000;0.0871;-0.6063;
316.2000;0.0879;-0.6019;
316.5000;0.0887;-0.5997;
316.8000;0.0928;-0.5886;
317.1000;0.0871;-0.6019;
317.4000;0.0887;-0.5975;
317.7000;0.0863;-0.6063;
318.0000;0.0855;-0.6085;
318.3000;0.0855;-0.6019;
318.6000;0.0887;-0.5930;
318.9000;0.0871;-0.5952;
319.2000;0.0879;-0.5930;
319.5000;0.0879;-0.5930;
319.8000;0.0895;-0.5864;
320.1000;0.0871;-0.5864;
320.4000;0.0863;-0.6019;
320.7000;0.0806;-0.6240;
321.0000;0.0879;-0.6107;
321.3000;0.0847;-0.6174;
321.6000;0.0863;-0.6129;
321.9000;0.0798;-0.6329;
322.2000;0.0895;-0.6107;
322.5000;0.0904;-0.6085;
322.8000;0.0904;-0.6152;
323.1000;0.0879;-0.6262;
323.4000;0.0879;-0.6196;
323.7000;0.0863;-0.6284;
324.0000;0.0855;-0.6351;
324.3000;0.0847;-0.6351;
324.6000;0.0855;-0.6262;
324.9000;0.0855;-0.6174;
325.2000;0.0871;-0.6240;
325.5000;0.0806;-0.6395;
325.8000;0.0879;-0.6152;
326.1000;0.0855;-0.6218;
326.4000;0.0879;-0.6174;
326.7000;0.0879;-0.6218;
327.0000;0.0798;-0.6484;
327.3000;0.0863;-0.6329;
327.6000;0.0879;-0.6262;
327.9000;0.0863;-0.6196;
328.2000;0.0863;-0.6129;
328.5000;0.0961;-0.5975;
328.8000;0.0895;-0.6174;
329.1000;0.0871;-0.6152;
329.4000;0.0863;-0.6129;
329.7000;0.0912;-0.6063;
330.0000;0.0855;-0.6107;
330.3000;0.0838;-0.6129;
330.6000;0.0871;-0.6041;
330.9000;0.0895;-0.6041;
331.2000;0.0847;-0.6174;
331.5000;0.0749;-0.6373;
331.8000;0.0814;-0.6262;
332.1000;0.0879;-0.6174;
332.4000;0.0871;-0.6218;
332.7000;0.0855;-0.6174;
333.0000;0.0838;-0.6240;
333.3000;0.0855;-0.6218;
333.6000;0.0863;-0.6196;
333.9000;0.0879;-0.6129;
334.2000;0.0871;-0.6107;
334.5000;0.0871;-0.6041;
334.8000;0.0855;-0.6063;
335.1000;0.0863;-0.6107;
335.4000;0.0863;-0.6196;
335.7000;0.0904;-0.6063;
336.0000;0.0790;-0.6351;
336.3000;0.0904;-0.6196;
336.6000;0.0879;-0.6284;
336.9000;0.0879;-0.6262;
337.2000;0.0847;-0.6395;
337.5000;0.0879;-0.6351;
337.8000;0.0895;-0.6373;
338.1000;0.0871;-0.6484;
338.4000;0.0887;-0.6461;
338.7000;0.0871;-0.6484;
339.0000;0.0887;-0.6484;
339.3000;0.0887;-0.6417;
339.6000;0.0879;-0.6395;
339.9000;0.0920;-0.6329;
340.2000;0.0895;-0.6307;
340.5000;0.0895;-0.6196;
340.8000;0.0855;-0.6262;
341.1000;0.0863;-0.6329;
341.4000;0.0895;-0.6218;
341.7000;0.0871;-0.6284;
342.0000;0.0871;-0.6196;
342.3000;0.0855;-0.6240;
342.6000;0.0838;-0.6262;
342.9000;0.0887;-0.6196;
343.2000;0.0855;-0.6240;
343.5000;0.0855;-0.6284;
343.8000;0.0887;-0.6240;
344.1000;0.0879;-0.6262;
344.4000;0.0838;-0.6395;
344.7000;0.0855;-0.6329;
345.0000;0.0895;-0.6240;
345.3000;0.0855;-0.6284;
345.6000;0.0952;-0.6041;
345.9000;0.0904;-0.6218;
346.2000;0.0904;-0.6218;
346.5000;0.0871;-0.6307;
346.8000;0.0887;-0.6240;
347.1000;0.0838;-0.6284;
347.4000;0.0806;-0.6351;
347.7000;0.0863;-0.6196;
348.0000;0.0985;-0.5842;
348.3000;0.0879;-0.6107;
348.6000;0.0863;-0.6196;
348.9000;0.0838;-0.6262;
349.2000;0.0871;-0.6196;
349.5000;0.0936;-0.6107;
349.8000;0.0847;-0.6329;
350.1000;0.0887;-0.6174;
350.4000;0.0904;-0.6174;
350.7000;0.0879;-0.6218;
351.0000;0.0733;-0.6572;
351.3000;0.0855;-0.6284;
351.6000;0.0871;-0.6351;
351.9000;0.0838;-0.6484;
352.2000;0.0895;-0.6351;
352.5000;0.0887;-0.6329;
352.8000;0.0895;-0.6218;
353.1000;0.0904;-0.6329;
353.4000;0.0863;-0.6484;
353.7000;0.0863;-0.6417;
354.0000;0.0879;-0.6373;
354.3000;0.0863;-0.6439;
354.6000;0.0822;-0.6484;
354.9000;0.0871;-0.6461;
355.2000;0.0822;-0.6661;
355.5000;0.0855;-0.6528;
355.8000;0.0871;-0.6506;
356.1000;0.0863;-0.6506;
356.4000;0.0871;-0.6506;
356.7000;0.0847;-0.6484;
357.0000;0.0781;-0.6550;
357.3000;0.0863;-0.6307;
357.6000;0.0879;-0.6218;
357.9000;0.0912;-0.5975;
358.2000;0.0936;-0.5908;
358.5000;0.0863;-0.6107;
358.8000;0.0741;-0.6417;
359.1000;0.0871;-0.6262;
359.4000;0.0871;-0.6307;
359.7000;0.0920;-0.6240;
360.0000;0.0847;-0.6395;
360.3000;0.0928;-0.6262;
360.6000;0.0879;-0.6395;
360.9000;0.0847;-0.6439;
361.2000;0.0871;-0.6373;
361.5000;0.0871;-0.6373;
361.8000;0.0871;-0.6329;
362.1000;0.0920;-0.6107;
362.4000;0.0871;-0.6262;
362.7000;0.0887;-0.6329;
363.0000;0.0871;-0.6240;
363.3000;0.0863;-0.6284;
363.6000;0.0895;-0.6129;
363.9000;0.0920;-0.5997;
364.2000;0.0871;-0.6063;
364.5000;0.0887;-0.6063;
364.8000;0.0863;-0.6085;
365.1000;0.0879;-0.6063;
365.4000;0.0952;-0.5952;
365.7000;0.0838;-0.6152;
366.0000;0.0871;-0.6152;
366.3000;0.0822;-0.6284;
366.6000;0.0863;-0.6107;
366.9000;0.0871;-0.6174;
367.2000;0.0887;-0.6085;
367.5000;0.0855;-0.6129;
367.8000;0.0855;-0.6063;
368.1000;0.0838;-0.6129;
368.4000;0.0895;-0.6041;
368.7000;0.0871;-0.6107;
369.0000;0.0855;-0.6174;
369.3000;0.0879;-0.6085;
369.6000;0.0904;-0.6041;
369.9000;0.0855;-0.6174;
370.2000;0.0855;-0.6152;
370.5000;0.0887;-0.6152;
370.8000;0.0895;-0.6085;
371.1000;0.0871;-0.6152;
371.4000;0.0879;-0.6107;
371.7000;0.0879;-0.6085;
372.0000;0.0879;-0.6174;
372.3000;0.0887;-0.6129;
372.6000;0.0847;-0.6307;
372.9000;0.0871;-0.6174;
373.2000;0.0871;-0.6129;
373.5000;0.0716;-0.6439;
373.8000;0.0879;-0.6085;
374.1000;0.0887;-0.6129;
374.4000;0.0871;-0.6107;
374.7000;0.0879;-0.6107;
375.0000;0.0830;-0.6196;
375.3000;0.0847;-0.6218;
375.6000;0.0855;-0.6196;
375.9000;0.0879;-0.6174;
376.2000;0.0847;-0.6284;
376.5000;0.0863;-0.6240;
376.8000;0.0871;-0.6174;
377.1000;0.0863;-0.6262;
377.4000;0.0887;-0.6174;
377.7000;0.0855;-0.6196;
378.0000;0.0879;-0.6152;
378.3000;0.0879;-0.6129;
378.6000;0.0838;-0.6240;
378.9000;0.0855;-0.6240;
379.2000;0.0814;-0.6329;
379.5000;0.0838;-0.6262;
379.8000;0.0887;-0.6196;
380.1000;0.0863;-0.6262;
380.4000;0.0936;-0.6129;
380.7000;0.0977;-0.5930;
381.0000;0.0879;-0.6174;
381.3000;0.0944;-0.6085;
381.6000;0.0855;-0.6307;
381.9000;0.0806;-0.6417;
382.2000;0.0879;-0.6174;
382.5000;0.0838;-0.6262;
382.8000;0.0871;-0.6152;
383.1000;0.0806;-0.6284;
383.4000;0.0871;-0.6107;
383.7000;0.0952;-0.5908;
384.0000;0.0887;-0.6129;
384.3000;0.0871;-0.6262;
384.6000;0.0887;-0.6307;
384.9000;0.0871;-0.6262;
385.2000;0.0847;-0.6262;
385.5000;0.0855;-0.6085;
385.8000;0.0879;-0.5997;
386.1000;0.0871;-0.5975;
386.4000;0.0855;-0.6063;
386.7000;0.0863;-0.6085;
387.0000;0.0871;-0.6107;
387.3000;0.0920;-0.6041;
387.6000;0.0855;-0.6196;
387.9000;0.0863;-0.6240;
388.2000;0.0855;-0.6240;
388.5000;0.0887;-0.6240;
388.8000;0.0871;-0.6262;
389.1000;0.0781;-0.6506;
389.4000;0.0904;-0.6152;
389.7000;0.0855;-0.6196;
390.0000;0.0830;-0.6218;
390.3000;0.0847;-0.6174;
390.6000;0.0936;-0.5997;
390.9000;0.0887;-0.6152;
391.2000;0.0887;-0.6152;
391.5000;0.0879;-0.6063;
391.8000;0.0847;-0.6129;
392.1000;0.0822;-0.6218;
392.4000;0.0879;-0.6063;
392.7000;0.0985;-0.5975;
393.0000;0.0871;-0.6218;
393.3000;0.0895;-0.6218;
393.6000;0.0790;-0.6417;
393.9000;0.0847;-0.6284;
394.2000;0.0879;-0.6240;
394.5000;0.0863;-0.6262;
394.8000;0.0855;-0.6307;
395.1000;0.0879;-0.6307;
395.4000;0.0806;-0.6506;
395.7000;0.0895;-0.6218;
396.0000;0.0822;-0.6506;
396.3000;0.0904;-0.6240;
396.6000;0.0863;-0.6351;
396.9000;0.0871;-0.6284;
397.2000;0.0920;-0.6196;
397.5000;0.0847;-0.6417;
397.8000;0.0855;-0.6417;
398.1000;0.0895;-0.6307;
398.4000;0.0879;-0.6351;
398.7000;0.0887;-0.6351;
399.0000;0.0887;-0.6373;
399.3000;0.0871;-0.6395;
399.6000;0.0855;-0.6373;
399.9000;0.0904;-0.6262;
400.2000;0.0847;-0.6373;
400.5000;0.0847;-0.6439;
400.8000;0.0863;-0.6417;
401.1000;0.1001;-0.6129;
401.4000;0.0887;-0.6373;
401.7000;0.0863;-0.6351;
402.0000;0.0855;-0.6284;
402.3000;0.0781;-0.6461;
402.6000;0.0879;-0.6174;
402.9000;0.0879;-0.6196;
403.2000;0.0855;-0.6196;
403.5000;0.0895;-0.6129;
403.8000;0.0887;-0.6174;
404.1000;0.0887;-0.6152;
404.4000;0.0920;-0.6041;
404.7000;0.0887;-0.6129;
405.0000;0.0847;-0.6196;
405.3000;0.0895;-0.6218;
405.6000;0.0863;-0.6307;
405.9000;0.0879;-0.6307;
406.2000;0.0847;-0.6284;
406.5000;0.0879;-0.6240;
406.8000;0.0838;-0.6373;
407.1000;0.0904;-0.6218;
407.4000;0.0855;-0.6262;
407.7000;0.0879;-0.6196;
408.0000;0.0790;-0.6484;
408.3000;0.0879;-0.6284;
408.6000;0.0855;-0.6307;
408.9000;0.0863;-0.6284;
409.2000;0.0855;-0.6307;
409.5000;0.0879;-0.6240;
409.8000;0.0928;-0.6019;
410.1000;0.0847;-0.6107;
410.4000;0.0855;-0.6085;
410.7000;0.0969;-0.5886;
411.0000;0.0887;-0.6063;
411.3000;0.0847;-0.6262;
411.6000;0.0863;-0.6351;
411.9000;0.0855;-0.6417;
412.2000;0.0863;-0.6395;
412.5000;0.0895;-0.6262;
412.8000;0.0879;-0.6351;
413.1000;0.0838;-0.6395;
413.4000;0.0887;-0.6240;
413.7000;0.0798;-0.6439;
414.0000;0.0887;-0.6174;
414.3000;0.0830;-0.6329;
414.6000;0.0920;-0.6174;
414.9000;0.0895;-0.6152;
415.2000;0.0871;-0.6218;
415.5000;0.0895;-0.6174;
415.8000;0.0863;-0.6152;
416.1000;0.0798;-0.6262;
416.4000;0.0863;-0.6152;
416.7000;0.0847;-0.6329;
417.0000;0.0822;-0.6417;
417.3000;0.0863;-0.6351;
417.6000;0.0944;-0.6196;
417.9000;0.0936;-0.6240;
418.2000;0.0863;-0.6461;
418.5000;0.0773;-0.6638;
418.8000;0.0887;-0.6284;
419.1000;0.0863;-0.6329;
419.4000;0.0871;-0.6373;
419.7000;0.0904;-0.6329;
420.0000;0.0871;-0.6417;
420.3000;0.0863;-0.6395;
420.6000;0.0847;-0.6417;
420.9000;0.0871;-0.6395;
421.2000;0.0879;-0.6307;
421.5000;0.0847;-0.6329;
421.8000;0.0855;-0.6329;
422.1000;0.0847;-0.6395;
422.4000;0.0879;-0.6395;
422.7000;0.0871;-0.6395;
423.0000;0.0871;-0.6417;
423.3000;0.0904;-0.6395;
423.6000;0.0887;-0.6417;
423.9000;0.0863;-0.6461;
424.2000;0.0847;-0.6528;
424.5000;0.0863;-0.6484;
424.8000;0.0887;-0.6461;
425.1000;0.0887;-0.6461;
425.4000;0.0847;-0.6528;
425.7000;0.0871;-0.6484;
426.0000;0.0847;-0.6506;
426.3000;0.0871;-0.6417;
426.6000;0.0871;-0.6461;
426.9000;0.0863;-0.6439;
427.2000;0.0781;-0.6572;
427.5000;0.0879;-0.6329;
427.8000;0.0879;-0.6284;
428.1000;0.0895;-0.6284;
428.4000;0.0887;-0.6351;
428.7000;0.0887;-0.6284;
429.0000;0.0879;-0.6218;
429.3000;0.0895;-0.6262;
429.6000;0.0904;-0.6351;
429.9000;0.0871;-0.6439;
430.2000;0.0895;-0.6329;
430.5000;0.0863;-0.6417;
430.8000;0.0847;-0.6439;
431.1000;0.0830;-0.6461;
431.4000;0.0879;-0.6329;
431.7000;0.0822;-0.6506;
432.0000;0.0863;-0.6528;
432.3000;0.0863;-0.6528;
432.6000;0.0895;-0.6461;
432.9000;0.0887;-0.6417;
433.2000;0.0944;-0.6196;
433.5000;0.0855;-0.6284;
433.8000;0.0936;-0.6174;
434.1000;0.0838;-0.6395;
434.4000;0.0806;-0.6550;
434.7000;0.0887;-0.6329;
435.0000;0.0871;-0.6373;
435.3000;0.0863;-0.6351;
435.6000;0.0855;-0.6351;
435.9000;0.0871;-0.6329;
436.2000;0.0871;-0.6307;
436.5000;0.0863;-0.6329;
436.8000;0.0855;-0.6329;
437.1000;0.0936;-0.6152;
437.4000;0.0895;-0.6174;
437.7000;0.0822;-0.6262;
438.0000;0.0961;-0.5975;
438.3000;0.0871;-0.6262;
438.6000;0.0895;-0.6218;
438.9000;0.0887;-0.6196;
439.2000;0.0912;-0.6085;
439.5000;0.0985;-0.6019;
439.8000;0.0871;-0.6240;
440.1000;0.0871;-0.6262;
440.4000;0.0887;-0.6196;
440.7000;0.0790;-0.6506;
441.0000;0.0879;-0.6240;
441.3000;0.0879;-0.6196;
441.6000;0.0961;-0.5864;
441.9000;0.0887;-0.6063;
442.2000;0.0871;-0.6107;
442.5000;0.0757;-0.6307;
442.8000;0.0855;-0.6063;
443.1000;0.0887;-0.5930;
443.4000;0.0847;-0.6041;
443.7000;0.0863;-0.6041;
444.0000;0.0798;-0.6240;
444.3000;0.0855;-0.6174;
444.6000;0.0887;-0.6174;
444.9000;0.0855;-0.6284;
445.2000;0.0847;-0.6284;
445.5000;0.0847;-0.6307;
445.8000;0.0863;-0.6284;
446.1000;0.0871;-0.6262;
446.4000;0.0895;-0.6240;
446.7000;0.0879;-0.6262;
447.0000;0.0863;-0.6351;
447.3000;0.0838;-0.6373;
447.6000;0.0879;-0.6284;
447.9000;0.0904;-0.6107;
448.2000;0.0912;-0.6129;
448.5000;0.0871;-0.6218;
448.8000;0.0741;-0.6484;
449.1000;0.0879;-0.6174;
449.4000;0.0887;-0.6129;
449.7000;0.0904;-0.6063;
450.0000;0.0904;-0.6129;
450.3000;0.0855;-0.6174;
450.6000;0.0863;-0.6196;
450.9000;0.0887;-0.6174;
451.2000;0.0847;-0.6262;
451.5000;0.0871;-0.6107;
451.8000;0.0879;-0.6041;
452.1000;0.0863;-0.6085;
452.4000;0.0822;-0.6174;
452.7000;0.0887;-0.6063;
453.0000;0.0830;-0.6307;
453.3000;0.0895;-0.6107;
453.6000;0.0871;-0.6041;
453.9000;0.0871;-0.6129;
454.2000;0.0887;-0.6218;
454.5000;0.0887;-0.6329;
454.8000;0.0847;-0.6550;
455.1000;0.0847;-0.6484;
455.4000;0.0871;-0.6351;
455.7000;0.0879;-0.6218;
456.0000;0.0847;-0.6307;
456.3000;0.0847;-0.6307;
456.6000;0.0871;-0.6262;
456.9000;0.0847;-0.6240;
457.2000;0.0871;-0.6262;
457.5000;0.0830;-0.6351;
457.8000;0.0895;-0.6262;
458.1000;0.0928;-0.6107;
458.4000;0.0879;-0.6262;
458.7000;0.0863;-0.6307;
459.0000;0.0928;-0.6196;
459.3000;0.0895;-0.6307;
459.6000;0.0936;-0.6284;
459.9000;0.0879;-0.6439;
460.2000;0.0879;-0.6307;
460.5000;0.0806;-0.6484;
460.8000;0.0863;-0.6307;
461.1000;0.0830;-0.6329;
461.4000;0.0871;-0.6307;
461.7000;0.0879;-0.6307;
462.0000;0.0969;-0.6107;
462.3000;0.0879;-0.6240;
462.6000;0.0822;-0.6395;
462.9000;0.0887;-0.6152;
463.2000;0.0887;-0.6085;
463.5000;0.0847;-0.6218;
463.8000;0.0871;-0.6218;
464.1000;0.0904;-0.6218;
464.4000;0.0887;-0.6284;
464.7000;0.0838;-0.6395;
465.0000;0.0855;-0.6439;
465.3000;0.0838;-0.6484;
465.6000;0.0838;-0.6484;
465.9000;0.0863;-0.6373;
466.2000;0.0855;-0.6373;
466.5000;0.0863;-0.6307;
466.8000;0.0871;-0.6240;
467.1000;0.0895;-0.6174;
467.4000;0.0879;-0.6284;
467.7000;0.0855;-0.6307;
468.0000;0.0871;-0.6284;
468.3000;0.0887;-0.6329;
468.6000;0.0871;-0.6439;
468.9000;0.0887;-0.6439;
469.2000;0.0863;-0.6506;
469.5000;0.0847;-0.6528;
469.8000;0.0912;-0.6506;
470.1000;0.0871;-0.6661;
470.4000;0.0871;-0.6594;
470.7000;0.0879;-0.6550;
471.0000;0.0904;-0.6439;
471.3000;0.0863;-0.6484;
471.6000;0.0855;-0.6484;
471.9000;0.0863;-0.6351;
472.2000;0.0879;-0.6329;
472.5000;0.0871;-0.6395;
472.8000;0.0847;-0.6351;
473.1000;0.0879;-0.6284;
473.4000;0.0928;-0.6152;
473.7000;0.0863;-0.6351;
474.0000;0.0863;-0.6417;
474.3000;0.0733;-0.6793;
474.6000;0.0887;-0.6395;
474.9000;0.0887;-0.6461;
475.2000;0.0838;-0.6661;
475.5000;0.0879;-0.6550;
475.8000;0.0773;-0.6815;
476.1000;0.0863;-0.6572;
476.4000;0.0871;-0.6528;
476.7000;0.0847;-0.6506;
477.0000;0.0847;-0.6461;
477.3000;0.0838;-0.6572;
477.6000;0.0855;-0.6461;
477.9000;0.0855;-0.6461;
478.2000;0.0871;-0.6395;
478.5000;0.0863;-0.6439;
478.8000;0.0879;-0.6395;
479.1000;0.0790;-0.6594;
479.4000;0.0871;-0.6351;
479.7000;0.0887;-0.6196;
480.0000;0.0806;-0.6395;
480.3000;0.0887;-0.6174;
480.6000;0.0887;-0.6129;
480.9000;0.0757;-0.6417;
481.2000;0.0863;-0.6107;
481.5000;0.0863;-0.6063;
481.8000;0.0920;-0.5908;
482.1000;0.0773;-0.6307;
482.4000;0.0871;-0.6129;
482.7000;0.0838;-0.6240;
483.0000;0.0871;-0.6240;
483.3000;0.0855;-0.6329;
483.6000;0.0871;-0.6284;
483.9000;0.0887;-0.6329;
484.2000;0.0879;-0.6329;
484.5000;0.0871;-0.6439;
484.8000;0.0838;-0.6572;
485.1000;0.0895;-0.6461;
485.4000;0.0847;-0.6461;
485.7000;0.0806;-0.6550;
486.0000;0.0912;-0.6307;
486.3000;0.0855;-0.6329;
486.6000;0.0879;-0.6240;
486.9000;0.0863;-0.6395;
487.2000;0.0863;-0.6461;
487.5000;0.0863;-0.6506;
487.8000;0.0887;-0.6484;
488.1000;0.0847;-0.6638;
488.4000;0.0838;-0.6506;
488.7000;0.0838;-0.6528;
489.0000;0.0887;-0.6439;
489.3000;0.0863;-0.6417;
489.6000;0.0952;-0.6085;
489.9000;0.0871;-0.6307;
490.2000;0.0814;-0.6417;
490.5000;0.0708;-0.6727;
490.8000;0.0863;-0.6373;
491.1000;0.0879;-0.6307;
491.4000;0.0887;-0.6240;
491.7000;0.0855;-0.6351;
492.0000;0.0838;-0.6373;
492.3000;0.0871;-0.6307;
492.6000;0.0904;-0.6262;
492.9000;0.0895;-0.6417;
493.2000;0.0871;-0.6506;
493.5000;0.0855;-0.6550;
493.8000;0.0879;-0.6484;
494.1000;0.0847;-0.6484;
494.4000;0.0863;-0.6373;
494.7000;0.0863;-0.6417;
495.0000;0.0855;-0.6417;
495.3000;0.0863;-0.6395;
495.6000;0.0871;-0.6373;
495.9000;0.0798;-0.6484;
496.2000;0.0863;-0.6351;
496.5000;0.0863;-0.6395;
496.8000;0.0879;-0.6307;
497.1000;0.0798;-0.6638;
497.4000;0.0912;-0.6461;
497.7000;0.0871;-0.6550;
498.0000;0.0863;-0.6572;
498.3000;0.0879;-0.6572;
498.6000;0.0863;-0.6594;
498.9000;0.0928;-0.6351;
499.2000;0.0871;-0.6439;
499.5000;0.0863;-0.6439;
499.8000;0.0863;-0.6417;
500.1000;0.0871;-0.6329;
500.4000;0.0855;-0.6417;
500.7000;0.0855;-0.6373;
501.0000;0.0879;-0.6329;
501.3000;0.0895;-0.6218;
501.6000;0.0863;-0.6284;
501.9000;0.0847;-0.6307;
502.2000;0.0806;-0.6417;
502.5000;0.0912;-0.6262;
502.8000;0.0855;-0.6417;
503.1000;0.0887;-0.6351;
503.4000;0.0765;-0.6683;
503.7000;0.0863;-0.6351;
504.0000;0.0855;-0.6351;
504.3000;0.0855;-0.6439;
504.6000;0.0855;-0.6439;
504.9000;0.0879;-0.6373;
505.2000;0.0912;-0.6218;
505.5000;0.0847;-0.6417;
505.8000;0.0847;-0.6373;
506.1000;0.0928;-0.6196;
506.4000;0.0952;-0.6085;
506.7000;0.1018;-0.5908;
507.0000;0.0879;-0.6174;
507.3000;0.0847;-0.6329;
507.6000;0.0871;-0.6307;
507.9000;0.0838;-0.6417;
508.2000;0.0814;-0.6616;
508.5000;0.0871;-0.6395;
508.8000;0.0895;-0.6351;
509.1000;0.0871;-0.6351;
509.4000;0.0895;-0.6307;
509.7000;0.0920;-0.6284;
510.0000;0.0887;-0.6284;
510.3000;0.0879;-0.6240;
510.6000;0.0863;-0.6262;
510.9000;0.0879;-0.6218;
511.2000;0.0855;-0.6329;
511.5000;0.0920;-0.6174;
511.8000;0.0871;-0.6351;
512.1000;0.0912;-0.6218;
512.4000;0.0871;-0.6307;
512.7000;0.0871;-0.6284;
513.0000;0.0871;-0.6262;
513.3000;0.0847;-0.6351;
513.6000;0.0855;-0.6417;
513.9000;0.0863;-0.6417;
514.2000;0.0871;-0.6395;
514.5000;0.0871;-0.6307;
514.8000;0.0871;-0.6218;
515.1000;0.0863;-0.6152;
515.4000;0.0879;-0.6152;
515.7000;0.0887;-0.6152;
516.0000;0.0838;-0.6174;
516.3000;0.0887;-0.5997;
516.6000;0.0847;-0.6107;
516.9000;0.0871;-0.6041;
517.2000;0.0887;-0.6107;
517.5000;0.0855;-0.6129;
517.8000;0.0887;-0.6240;
518.1000;0.0855;-0.6284;
518.4000;0.0863;-0.6218;
518.7000;0.0855;-0.6262;
519.0000;0.0847;-0.6174;
519.3000;0.0887;-0.6152;
519.6000;0.0855;-0.6240;
519.9000;0.0863;-0.6240;
520.2000;0.0928;-0.6152;
520.5000;0.0887;-0.6240;
520.8000;0.0830;-0.6329;
521.1000;0.0879;-0.6196;
521.4000;0.0952;-0.5952;
521.7000;0.0847;-0.6240;
522.0000;0.0961;-0.6107;
522.3000;0.0887;-0.6329;
522.6000;0.0838;-0.6484;
522.9000;0.0985;-0.6129;
523.2000;0.0830;-0.6528;
523.5000;0.0863;-0.6373;
523.8000;0.0847;-0.6417;
524.1000;0.0855;-0.6461;
524.4000;0.0863;-0.6461;
524.7000;0.0847;-0.6417;
525.0000;0.0847;-0.6373;
525.3000;0.0912;-0.6262;
525.6000;0.0895;-0.6218;
525.9000;0.0871;-0.6284;
526.2000;0.0863;-0.6307;
526.5000;0.0863;-0.6174;
526.8000;0.0863;-0.6196;
527.1000;0.0838;-0.6284;
527.4000;0.0855;-0.6218;
527.7000;0.0871;-0.6152;
528.0000;0.0887;-0.6107;
528.3000;0.0863;-0.6107;
528.6000;0.0838;-0.6129;
528.9000;0.0863;-0.6107;
529.2000;0.0871;-0.6152;
529.5000;0.0863;-0.6240;
529.8000;0.0887;-0.6174;
530.1000;0.0855;-0.6262;
530.4000;0.0814;-0.6439;
530.7000;0.0879;-0.6284;
531.0000;0.0863;-0.6196;
531.3000;0.0871;-0.6218;
531.6000;0.0936;-0.6041;
531.9000;0.0879;-0.6307;
532.2000;0.0830;-0.6439;
532.5000;0.0887;-0.6196;
532.8000;0.0887;-0.6218;
533.1000;0.0871;-0.6196;
533.4000;0.0871;-0.6196;
533.7000;0.0879;-0.6196;
534.0000;0.0879;-0.6129;
534.3000;0.0895;-0.6041;
534.6000;0.0887;-0.6152;
534.9000;0.0871;-0.6262;
535.2000;0.0863;-0.6351;
535.5000;0.0912;-0.6240;
535.8000;0.0863;-0.6439;
536.1000;0.0830;-0.6484;
536.4000;0.1034;-0.5975;
536.7000;0.0871;-0.6484;
537.0000;0.0830;-0.6594;
537.3000;0.0895;-0.6373;
537.6000;0.0879;-0.6373;
537.9000;0.0863;-0.6351;
538.2000;0.0904;-0.6373;
538.5000;0.0936;-0.6174;
538.8000;0.0879;-0.6218;
539.1000;0.0855;-0.6329;
539.4000;0.0863;-0.6262;
539.7000;0.0855;-0.6240;
540.0000;0.0871;-0.6152;
540.3000;0.0830;-0.6262;
540.6000;0.0895;-0.6063;
540.9000;0.0879;-0.6107;
541.2000;0.0838;-0.6240;
541.5000;0.0863;-0.6240;
541.8000;0.0863;-0.6152;
542.1000;0.0879;-0.6085;
542.4000;0.0887;-0.6085;
542.7000;0.0855;-0.6174;
543.0000;0.0847;-0.6262;
543.3000;0.0895;-0.6085;
543.6000;0.0871;-0.6152;
543.9000;0.1042;-0.5820;
544.2000;0.0863;-0.6284;
544.5000;0.0863;-0.6351;
544.8000;0.0977;-0.5975;
545.1000;0.0961;-0.5975;
545.4000;0.0993;-0.5908;
545.7000;0.0757;-0.6616;
546.0000;0.0863;-0.6307;
546.3000;0.0863;-0.6152;
546.6000;0.0847;-0.6196;
546.9000;0.0952;-0.5886;
547.2000;0.0838;-0.6174;
547.5000;0.0871;-0.6174;
547.8000;0.0879;-0.6240;
548.1000;0.0879;-0.6262;
548.4000;0.0887;-0.6218;
548.7000;0.0847;-0.6284;
549.0000;0.0838;-0.6307;
549.3000;0.0871;-0.6240;
549.6000;0.0887;-0.6152;
549.9000;0.0871;-0.6174;
550.2000;0.0904;-0.6107;
550.5000;0.0814;-0.6351;
550.8000;0.0879;-0.6262;
551.1000;0.0887;-0.6284;
551.4000;0.0863;-0.6373;
551.7000;0.0887;-0.6307;
552.0000;0.0879;-0.6329;
552.3000;0.0863;-0.6461;
552.6000;0.0790;-0.6616;
552.9000;0.0871;-0.6417;
553.2000;0.0838;-0.6506;
553.5000;0.0806;-0.6661;
553.8000;0.0855;-0.6506;
554.1000;0.0871;-0.6439;
554.4000;0.0871;-0.6439;
554.7000;0.0781;-0.6616;
555.0000;0.0895;-0.6329;
555.3000;0.0855;-0.6307;
555.6000;0.0895;-0.6262;
555.9000;0.0879;-0.6284;
556.2000;0.0871;-0.6307;
556.5000;0.0822;-0.6395;
556.8000;0.0871;-0.6218;
557.1000;0.0863;-0.6284;
557.4000;0.0887;-0.6262;
557.7000;0.0879;-0.6240;
558.0000;0.0863;-0.6262;
558.3000;0.0855;-0.6262;
558.6000;0.0855;-0.6329;
558.9000;0.0871;-0.6284;
559.2000;0.0855;-0.6351;
559.5000;0.0879;-0.6329;
559.8000;0.0830;-0.6506;
560.1000;0.0879;-0.6395;
560.4000;0.0822;-0.6506;
560.7000;0.0863;-0.6484;
561.0000;0.0863;-0.6484;
561.3000;0.0863;-0.6484;
561.6000;0.0863;-0.6461;
561.9000;0.0830;-0.6528;
562.2000;0.0847;-0.6373;
562.5000;0.0863;-0.6329;
562.8000;0.0863;-0.6284;
563.1000;0.0879;-0.6262;
563.4000;0.0871;-0.6307;
563.7000;0.0871;-0.6329;
564.0000;0.0895;-0.6196;
564.3000;0.0879;-0.6240;
564.6000;0.0879;-0.6218;
564.9000;0.0887;-0.6174;
565.2000;0.0912;-0.6063;
565.5000;0.0887;-0.6019;
565.8000;0.0822;-0.6174;
566.1000;0.0855;-0.6129;
566.4000;0.0879;-0.6085;
566.7000;0.0895;-0.6085;
567.0000;0.0879;-0.6174;
567.3000;0.0887;-0.6152;
567.6000;0.0822;-0.6329;
567.9000;0.0863;-0.6329;
568.2000;0.0887;-0.6262;
568.5000;0.0863;-0.6307;
568.8000;0.0936;-0.6085;
569.1000;0.0887;-0.6307;
569.4000;0.0863;-0.6329;
569.7000;0.0822;-0.6373;
570.0000;0.0871;-0.6196;
570.3000;0.0871;-0.6218;
570.6000;0.0871;-0.6107;
570.9000;0.0871;-0.6129;
571.2000;0.0879;-0.6152;
571.5000;0.0847;-0.6218;
571.8000;0.0944;-0.5952;
572.1000;0.0863;-0.6218;
572.4000;0.0863;-0.6262;
572.7000;0.0879;-0.6174;
573.0000;0.0847;-0.6284;
573.3000;0.0879;-0.6196;
573.6000;0.0920;-0.6129;
573.9000;0.0887;-0.6196;
574.2000;0.0895;-0.6129;
574.5000;0.0863;-0.6218;
574.8000;0.0904;-0.6174;
575.1000;0.0871;-0.6174;
575.4000;0.0871;-0.6262;
575.7000;0.0887;-0.6240;
576.0000;0.0871;-0.6307;
576.3000;0.0871;-0.6373;
576.6000;0.0863;-0.6351;
576.9000;0.0879;-0.6262;
577.2000;0.0863;-0.6262;
577.5000;0.0887;-0.6129;
577.8000;0.0871;-0.6240;
578.1000;0.0879;-0.6240;
578.4000;0.0863;-0.6240;
578.7000;0.0879;-0.6196;
579.0000;0.0863;-0.6284;
579.3000;0.0879;-0.6307;
579.6000;0.0855;-0.6307;
579.9000;0.0838;-0.6351;
580.2000;0.0895;-0.6284;
580.5000;0.0936;-0.6240;
580.8000;0.0863;-0.6439;
581.1000;0.0773;-0.6594;
581.4000;0.0855;-0.6439;
581.7000;0.0904;-0.6351;
582.0000;0.0912;-0.6262;
582.3000;0.0895;-0.6329;
582.6000;0.0944;-0.6174;
582.9000;0.0879;-0.6307;
583.2000;0.0871;-0.6373;
583.5000;0.0871;-0.6351;
583.8000;0.0879;-0.6417;
584.1000;0.0790;-0.6616;
584.4000;0.0863;-0.6484;
584.7000;0.0887;-0.6484;
585.0000;0.0863;-0.6572;
585.3000;0.0879;-0.6506;
585.6000;0.0855;-0.6484;
585.9000;0.0879;-0.6373;
586.2000;0.0863;-0.6395;
586.5000;0.0895;-0.6373;
586.8000;0.0879;-0.6395;
587.1000;0.0879;-0.6395;
587.4000;0.0855;-0.6484;
587.7000;0.0871;-0.6461;
588.0000;0.0863;-0.6461;
588.3000;0.0879;-0.6329;
588.6000;0.0879;-0.6284;
588.9000;0.0741;-0.6594;
589.2000;0.0871;-0.6240;
589.5000;0.0855;-0.6218;
589.8000;0.0855;-0.6218;
590.1000;0.0871;-0.6174;
590.4000;0.0871;-0.6284;
590.7000;0.0879;-0.6240;
591.0000;0.0879;-0.6373;
591.3000;0.0822;-0.6528;
591.6000;0.0879;-0.6284;
591.9000;0.0790;-0.6373;
592.2000;0.0855;-0.6174;
592.5000;0.0855;-0.6152;
592.8000;0.0895;-0.6196;
593.1000;0.0879;-0.6262;
593.4000;0.0871;-0.6351;
593.7000;0.0871;-0.6329;
594.0000;0.0790;-0.6484;
594.3000;0.0871;-0.6262;
594.6000;0.0879;-0.6218;
594.9000;0.0871;-0.6174;
595.2000;0.0887;-0.6284;
595.5000;0.0863;-0.6351;
595.8000;0.0912;-0.6351;
596.1000;0.0871;-0.6439;
596.4000;0.0887;-0.6484;
596.7000;0.0863;-0.6528;
597.0000;0.0855;-0.6550;
597.3000;0.0928;-0.6307;
597.6000;0.0895;-0.6329;
597.9000;0.0781;-0.6616;
598.2000;0.0879;-0.6329;
598.5000;0.0912;-0.6262;
598.8000;0.0855;-0.6461;
599.1000;0.0895;-0.6351;
599.4000;0.0879;-0.6484;
599.7000;0.0871;-0.6484;
600.0000;0.0879;-0.6439;
600.3000;0.0708;-0.6860;
600.6000;0.0887;-0.6506;
600.9000;0.0855;-0.6638;
601.2000;0.0855;-0.6661;
601.5000;0.0790;-0.6904;
601.8000;0.0814;-0.6970;
602.1000;0.0838;-0.6948;
602.4000;0.0830;-0.7081;
602.7000;0.0822;-0.7192;
603.0000;0.0765;-0.7391;
603.3000;0.0838;-0.7170;
603.6000;0.0863;-0.7214;
603.9000;0.0798;-0.7302;
604.2000;0.0830;-0.7280;
604.5000;0.0838;-0.7302;
604.8000;0.0790;-0.7324;
605.1000;0.0838;-0.7280;
605.4000;0.0790;-0.7391;
605.7000;0.0822;-0.7391;
606.0000;0.0822;-0.7413;
606.3000;0.0790;-0.7568;
606.6000;0.0798;-0.7546;
606.9000;0.0790;-0.7634;
607.2000;0.0887;-0.7435;
607.5000;0.0855;-0.7435;
607.8000;0.0781;-0.7612;
608.1000;0.0879;-0.7413;
608.4000;0.0765;-0.7678;
608.7000;0.0781;-0.7612;
609.0000;0.0798;-0.7590;
609.3000;0.0790;-0.7678;
609.6000;0.0773;-0.7612;
609.9000;0.0724;-0.7678;
610.2000;0.0887;-0.7280;
610.5000;0.0822;-0.7457;
610.8000;0.0773;-0.7701;
611.1000;0.0733;-0.7855;
611.4000;0.0790;-0.7656;
611.7000;0.0773;-0.7634;
612.0000;0.0781;-0.7590;
612.3000;0.0757;-0.7612;
612.6000;0.0806;-0.7501;
612.9000;0.0879;-0.7347;
613.2000;0.0773;-0.7612;
613.5000;0.0757;-0.7701;
613.8000;0.0724;-0.7789;
614.1000;0.0757;-0.7701;
614.4000;0.0749;-0.7656;
614.7000;0.0765;-0.7612;
615.0000;0.0741;-0.7678;
615.3000;0.0676;-0.7922;
615.6000;0.0749;-0.7723;
615.9000;0.0757;-0.7678;
616.2000;0.0871;-0.7324;
616.5000;0.0773;-0.7568;
616.8000;0.0757;-0.7524;
617.1000;0.0822;-0.7413;
617.4000;0.0741;-0.7656;
617.7000;0.0749;-0.7701;
618.0000;0.0765;-0.7701;
618.3000;0.0749;-0.7678;
618.6000;0.0765;-0.7634;
618.9000;0.0741;-0.7634;
619.2000;0.0765;-0.7612;
619.5000;0.0716;-0.7678;
619.8000;0.0814;-0.7524;
620.1000;0.0822;-0.7568;
620.4000;0.0741;-0.7767;
620.7000;0.0765;-0.7723;
621.0000;0.0773;-0.7745;
621.3000;0.0781;-0.7767;
621.6000;0.0741;-0.7789;
621.9000;0.0724;-0.7878;
622.2000;0.0692;-0.8010;
622.5000;0.0684;-0.7966;
622.8000;0.0733;-0.7900;
623.1000;0.0765;-0.7944;
623.4000;0.0627;-0.8232;
623.7000;0.0741;-0.7966;
624.0000;0.0733;-0.7900;
624.3000;0.0651;-0.8077;
624.6000;0.0806;-0.7745;
624.9000;0.0757;-0.7855;
625.2000;0.0790;-0.7745;
625.5000;0.0724;-0.7855;
625.8000;0.0724;-0.7789;
626.1000;0.0757;-0.7723;
626.4000;0.0724;-0.7767;
626.7000;0.0724;-0.7723;
627.0000;0.0765;-0.7701;
627.3000;0.0757;-0.7723;
627.6000;0.0741;-0.7789;
627.9000;0.0716;-0.7789;
628.2000;0.0733;-0.7767;
628.5000;0.0749;-0.7745;
628.8000;0.0765;-0.7811;
629.1000;0.0749;-0.7789;
629.4000;0.0757;-0.7745;
629.7000;0.0757;-0.7745;
630.0000;0.0781;-0.7745;
630.3000;0.0822;-0.7656;
630.6000;0.0741;-0.7767;
630.9000;0.0733;-0.7656;
631.2000;0.0724;-0.7634;
631.5000;0.0716;-0.7678;
631.8000;0.0741;-0.7612;
632.1000;0.0724;-0.7656;
632.4000;0.0733;-0.7678;
632.7000;0.0733;-0.7678;
633.0000;0.0708;-0.7701;
633.3000;0.0741;-0.7612;
633.6000;0.0741;-0.7723;
633.9000;0.0724;-0.7811;
634.2000;0.0757;-0.7789;
634.5000;0.0741;-0.7833;
634.8000;0.0773;-0.7789;
635.1000;0.0757;-0.7855;
635.4000;0.0716;-0.7922;
635.7000;0.0724;-0.7855;
636.0000;0.0814;-0.7612;
636.3000;0.0741;-0.7745;
636.6000;0.0741;-0.7723;
636.9000;0.0887;-0.7413;
637.2000;0.0741;-0.7767;
637.5000;0.0733;-0.7723;
637.8000;0.0749;-0.7678;
638.1000;0.0749;-0.7634;
638.4000;0.0814;-0.7501;
638.7000;0.0733;-0.7767;
639.0000;0.0667;-0.7878;
639.3000;0.0724;-0.7745;
639.6000;0.0757;-0.7634;
639.9000;0.0716;-0.7656;
640.2000;0.0781;-0.7479;
640.5000;0.0741;-0.7546;
640.8000;0.0676;-0.7701;
641.1000;0.0716;-0.7656;
641.4000;0.0733;-0.7656;
641.7000;0.0733;-0.7656;
642.0000;0.0749;-0.7656;
642.3000;0.0724;-0.7745;
642.6000;0.0724;-0.7789;
642.9000;0.0741;-0.7723;
643.2000;0.0716;-0.7789;
643.5000;0.0724;-0.7789;
643.8000;0.0741;-0.7701;
644.1000;0.0716;-0.7723;
644.4000;0.0716;-0.7723;
644.7000;0.0733;-0.7634;
645.0000;0.0781;-0.7568;
645.3000;0.0667;-0.7811;
645.6000;0.0749;-0.7612;
645.9000;0.0724;-0.7656;
646.2000;0.0741;-0.7656;
646.5000;0.0830;-0.7369;
646.8000;0.0749;-0.7678;
647.1000;0.0692;-0.7701;
647.4000;0.0708;-0.7701;
647.7000;0.0765;-0.7546;
648.0000;0.0733;-0.7723;
648.3000;0.0765;-0.7678;
648.6000;0.0830;-0.7457;
648.9000;0.0741;-0.7656;
649.2000;0.0716;-0.7833;
649.5000;0.0757;-0.7767;
649.8000;0.0708;-0.7767;
650.1000;0.0724;-0.7745;
650.4000;0.0716;-0.7745;
650.7000;0.0659;-0.7900;
651.0000;0.0887;-0.7324;
651.3000;0.0879;-0.7192;
651.6000;0.0716;-0.7546;
651.9000;0.0716;-0.7634;
652.2000;0.0700;-0.7678;
652.5000;0.0700;-0.7656;
652.8000;0.0716;-0.7723;
653.1000;0.0724;-0.7701;
653.4000;0.0716;-0.7678;
653.7000;0.0708;-0.7701;
654.0000;0.0757;-0.7546;
654.3000;0.0643;-0.7900;
654.6000;0.0733;-0.7678;
654.9000;0.0733;-0.7701;
655.2000;0.0741;-0.7656;
655.5000;0.0741;-0.7634;
655.8000;0.0716;-0.7723;
656.1000;0.0643;-0.7900;
656.4000;0.0757;-0.7546;
656.7000;0.0765;-0.7546;
657.0000;0.0676;-0.7723;
657.3000;0.0724;-0.7590;
657.6000;0.0724;-0.7634;
657.9000;0.0724;-0.7656;
658.2000;0.0773;-0.7678;
658.5000;0.0741;-0.7745;
658.8000;0.0733;-0.7811;
659.1000;0.0741;-0.7811;
659.4000;0.0773;-0.7833;
659.7000;0.0733;-0.7900;
660.0000;0.0716;-0.7811;
660.3000;0.0724;-0.7767;
660.6000;0.0716;-0.7811;
660.9000;0.0667;-0.7944;
661.2000;0.0806;-0.7767;
661.5000;0.0692;-0.7878;
661.8000;0.0651;-0.7944;
662.1000;0.0855;-0.7479;
662.4000;0.0724;-0.7701;
662.7000;0.0733;-0.7678;
663.0000;0.0724;-0.7745;
663.3000;0.0667;-0.7855;
663.6000;0.0692;-0.7745;
663.9000;0.0716;-0.7723;
664.2000;0.0741;-0.7678;
664.5000;0.0684;-0.7833;
664.8000;0.0724;-0.7745;
665.1000;0.0741;-0.7701;
665.4000;0.0700;-0.7767;
665.7000;0.0708;-0.7789;
666.0000;0.0716;-0.7833;
666.3000;0.0708;-0.7878;
666.6000;0.0684;-0.7988;
666.9000;0.0749;-0.7878;
667.2000;0.0708;-0.7944;
667.5000;0.0741;-0.7811;
667.8000;0.0692;-0.7878;
668.1000;0.0733;-0.7789;
668.4000;0.0733;-0.7789;
668.7000;0.0700;-0.7745;
669.0000;0.0724;-0.7723;
669.3000;0.0692;-0.7878;
669.6000;0.0708;-0.7922;
669.9000;0.0724;-0.7878;
670.2000;0.0700;-0.7988;
670.5000;0.0716;-0.7966;
670.8000;0.0741;-0.7878;
671.1000;0.0684;-0.8055;
671.4000;0.0724;-0.7944;
671.7000;0.0692;-0.7988;
672.0000;0.0716;-0.7944;
672.3000;0.0651;-0.8099;
672.6000;0.0806;-0.7701;
672.9000;0.0733;-0.7900;
673.2000;0.0708;-0.7988;
673.5000;0.0733;-0.7900;
673.8000;0.0724;-0.7966;
674.1000;0.0749;-0.7878;
674.4000;0.0659;-0.8033;
674.7000;0.0700;-0.7944;
675.0000;0.0733;-0.7878;
675.3000;0.0708;-0.7944;
675.6000;0.0741;-0.7811;
675.9000;0.0692;-0.7944;
676.2000;0.0724;-0.7811;
676.5000;0.0724;-0.7745;
676.8000;0.0684;-0.7878;
677.1000;0.0822;-0.7701;
677.4000;0.0708;-0.8033;
677.7000;0.0716;-0.8055;
678.0000;0.0716;-0.8010;
678.3000;0.0716;-0.7966;
678.6000;0.0724;-0.7944;
678.9000;0.0692;-0.7922;
679.2000;0.0733;-0.7789;
679.5000;0.0724;-0.7767;
679.8000;0.0716;-0.7767;
680.1000;0.0733;-0.7723;
680.4000;0.0749;-0.7678;
680.7000;0.0724;-0.7701;
681.0000;0.0733;-0.7701;
681.3000;0.0733;-0.7745;
681.6000;0.0708;-0.7878;
681.9000;0.0749;-0.7900;
682.2000;0.0757;-0.7900;
682.5000;0.0741;-0.7966;
682.8000;0.0692;-0.8055;
683.1000;0.0716;-0.7988;
683.4000;0.0781;-0.7723;
683.7000;0.0724;-0.7855;
684.0000;0.0757;-0.7811;
684.3000;0.0773;-0.7855;
684.6000;0.0741;-0.7855;
684.9000;0.0692;-0.7855;
685.2000;0.0781;-0.7723;
685.5000;0.0733;-0.7811;
685.8000;0.0659;-0.8010;
686.1000;0.0684;-0.7922;
686.4000;0.0708;-0.7855;
686.7000;0.0708;-0.7833;
687.0000;0.0724;-0.7745;
687.3000;0.0643;-0.7944;
687.6000;0.0741;-0.7701;
687.9000;0.0692;-0.7745;
688.2000;0.0733;-0.7678;
688.5000;0.0716;-0.7723;
688.8000;0.0724;-0.7767;
689.1000;0.0716;-0.7745;
689.4000;0.0741;-0.7723;
689.7000;0.0741;-0.7656;
690.0000;0.0724;-0.7701;
690.3000;0.0724;-0.7656;
690.6000;0.0733;-0.7568;
690.9000;0.0692;-0.7524;
691.2000;0.0716;-0.7501;
691.5000;0.0749;-0.7479;
691.8000;0.0716;-0.7634;
692.1000;0.0708;-0.7634;
692.4000;0.0716;-0.7634;
692.7000;0.0773;-0.7546;
693.0000;0.0749;-0.7612;
693.3000;0.0798;-0.7501;
693.6000;0.0716;-0.7678;
693.9000;0.0765;-0.7590;
694.2000;0.0741;-0.7634;
694.5000;0.0716;-0.7656;
694.8000;0.0757;-0.7501;
695.1000;0.0716;-0.7590;
695.4000;0.0708;-0.7568;
695.7000;0.0724;-0.7479;
696.0000;0.0733;-0.7501;
696.3000;0.0700;-0.7590;
696.6000;0.0708;-0.7612;
696.9000;0.0708;-0.7590;
697.2000;0.0667;-0.7701;
697.5000;0.0676;-0.7701;
697.8000;0.0781;-0.7435;
698.1000;0.0733;-0.7568;
698.4000;0.0724;-0.7634;
698.7000;0.0733;-0.7590;
699.0000;0.0700;-0.7590;
699.3000;0.0659;-0.7656;
699.6000;0.0716;-0.7590;
699.9000;0.0733;-0.7546;
700.2000;0.0692;-0.7501;
700.5000;0.0708;-0.7590;
700.8000;0.0716;-0.7524;
701.1000;0.0659;-0.7745;
701.4000;0.0692;-0.7678;
701.7000;0.0741;-0.7701;
702.0000;0.0716;-0.7833;
702.3000;0.0724;-0.7855;
702.6000;0.0798;-0.7767;
702.9000;0.0667;-0.8077;
703.2000;0.0733;-0.7789;
703.5000;0.0724;-0.7767;
703.8000;0.0733;-0.7833;
704.1000;0.0741;-0.7767;
704.4000;0.0741;-0.7723;
704.7000;0.0757;-0.7701;
705.0000;0.0733;-0.7745;
705.3000;0.0700;-0.7789;
705.6000;0.0692;-0.7811;
705.9000;0.0708;-0.7767;
706.2000;0.0692;-0.7811;
706.5000;0.0724;-0.7723;
706.8000;0.0692;-0.7745;
707.1000;0.0724;-0.7745;
707.4000;0.0749;-0.7723;
707.7000;0.0724;-0.7767;
708.0000;0.0684;-0.7789;
708.3000;0.0700;-0.7767;
708.6000;0.0708;-0.7701;
708.9000;0.0684;-0.7767;
709.2000;0.0716;-0.7745;
709.5000;0.0716;-0.7723;
709.8000;0.0741;-0.7767;
710.1000;0.0692;-0.7789;
710.4000;0.0716;-0.7767;
710.7000;0.0700;-0.7811;
711.0000;0.0749;-0.7723;
711.3000;0.0724;-0.7723;
711.6000;0.0700;-0.7767;
711.9000;0.0724;-0.7745;
712.2000;0.0724;-0.7723;
712.5000;0.0684;-0.7833;
712.8000;0.0724;-0.7678;
713.1000;0.0716;-0.7678;
713.4000;0.0659;-0.7833;
713.7000;0.0716;-0.7745;
714.0000;0.0724;-0.7701;
714.3000;0.0733;-0.7612;
714.6000;0.0741;-0.7590;
714.9000;0.0733;-0.7612;
715.2000;0.0733;-0.7612;
715.5000;0.0659;-0.7745;
715.8000;0.0733;-0.7590;
716.1000;0.0708;-0.7568;
716.4000;0.0700;-0.7590;
716.7000;0.0708;-0.7612;
717.0000;0.0733;-0.7568;
717.3000;0.0700;-0.7546;
717.6000;0.0708;-0.7568;
717.9000;0.0716;-0.7546;
718.2000;0.0741;-0.7413;
718.5000;0.0716;-0.7546;
718.8000;0.0724;-0.7590;
719.1000;0.0716;-0.7546;
719.4000;0.0733;-0.7678;
719.7000;0.0700;-0.7723;
720.0000;0.0700;-0.7767;
720.3000;0.0692;-0.7723;
720.6000;0.0716;-0.7678;
720.9000;0.0684;-0.7678;
721.2000;0.0724;-0.7634;
721.5000;0.0716;-0.7612;
721.8000;0.0716;-0.7546;
722.1000;0.0700;-0.7501;
722.4000;0.0684;-0.7524;
722.7000;0.0684;-0.7479;
723.0000;0.0724;-0.7479;
723.3000;0.0716;-0.7546;
723.6000;0.0724;-0.7568;
723.9000;0.0724;-0.7524;
724.2000;0.0733;-0.7524;
724.5000;0.0741;-0.7568;
724.8000;0.0741;-0.7568;
725.1000;0.0724;-0.7546;
725.4000;0.0708;-0.7612;
725.7000;0.0716;-0.7612;
726.0000;0.0741;-0.7590;
726.3000;0.0708;-0.7656;
726.6000;0.0700;-0.7656;
726.9000;0.0700;-0.7634;
727.2000;0.0667;-0.7656;
727.5000;0.0733;-0.7546;
727.8000;0.0700;-0.7612;
728.1000;0.0708;-0.7656;
728.4000;0.0667;-0.7745;
728.7000;0.0716;-0.7701;
729.0000;0.0708;-0.7701;
729.3000;0.0724;-0.7656;
729.6000;0.0708;-0.7568;
729.9000;0.0733;-0.7479;
730.2000;0.0700;-0.7479;
730.5000;0.0692;-0.7546;
730.8000;0.0733;-0.7479;
731.1000;0.0798;-0.7280;
731.4000;0.0724;-0.7501;
731.7000;0.0708;-0.7501;
732.0000;0.0667;-0.7656;
732.3000;0.0806;-0.7324;
732.6000;0.0708;-0.7568;
732.9000;0.0684;-0.7546;
733.2000;0.0733;-0.7413;
733.5000;0.0733;-0.7524;
733.8000;0.0586;-0.7878;
734.1000;0.0708;-0.7612;
734.4000;0.0716;-0.7656;
734.7000;0.0814;-0.7413;
735.0000;0.0716;-0.7701;
735.3000;0.0724;-0.7678;
735.6000;0.0716;-0.7701;
735.9000;0.0716;-0.7634;
736.2000;0.0700;-0.7678;
736.5000;0.0676;-0.7745;
736.8000;0.0733;-0.7612;
737.1000;0.0692;-0.7634;
737.4000;0.0716;-0.7656;
737.7000;0.0733;-0.7590;
738.0000;0.0692;-0.7612;
738.3000;0.0708;-0.7612;
738.6000;0.0700;-0.7745;
738.9000;0.0724;-0.7678;
739.2000;0.0700;-0.7701;
739.5000;0.0716;-0.7701;
739.8000;0.0716;-0.7723;
740.1000;0.0700;-0.7745;
740.4000;0.0741;-0.7524;
740.7000;0.0659;-0.7723;
741.0000;0.0741;-0.7546;
741.3000;0.0724;-0.7634;
741.6000;0.0651;-0.7833;
741.9000;0.0716;-0.7701;
742.2000;0.0708;-0.7634;
742.5000;0.0578;-0.7988;
742.8000;0.0708;-0.7656;
743.1000;0.0667;-0.7701;
743.4000;0.0733;-0.7546;
743.7000;0.0741;-0.7546;
744.0000;0.0716;-0.7678;
744.3000;0.0700;-0.7745;
744.6000;0.0724;-0.7811;
744.9000;0.0700;-0.7811;
745.2000;0.0733;-0.7634;
745.5000;0.0716;-0.7723;
745.8000;0.0724;-0.7723;
746.1000;0.0676;-0.7833;
746.4000;0.0724;-0.7767;
746.7000;0.0716;-0.7767;
747.0000;0.0700;-0.7723;
747.3000;0.0700;-0.7767;
747.6000;0.0724;-0.7656;
747.9000;0.0724;-0.7701;
748.2000;0.0651;-0.7878;
748.5000;0.0643;-0.7988;
748.8000;0.0716;-0.7855;
749.1000;0.0749;-0.7789;
749.4000;0.0724;-0.7833;
749.7000;0.0716;-0.7878;
750.0000;0.0635;-0.8077;
750.3000;0.0716;-0.7878;
750.6000;0.0733;-0.7833;
750.9000;0.0716;-0.7855;
751.2000;0.0757;-0.7833;
751.5000;0.0716;-0.7833;
751.8000;0.0733;-0.7678;
752.1000;0.0749;-0.7678;
752.4000;0.0692;-0.7745;
752.7000;0.0724;-0.7678;
753.0000;0.0692;-0.7767;
753.3000;0.0798;-0.7501;
753.6000;0.0716;-0.7723;
753.9000;0.0708;-0.7811;
754.2000;0.0749;-0.7656;
754.5000;0.0700;-0.7767;
754.8000;0.0733;-0.7701;
755.1000;0.0773;-0.7590;
755.4000;0.0741;-0.7634;
755.7000;0.0684;-0.7767;
756.0000;0.0765;-0.7590;
756.3000;0.0651;-0.7789;
756.6000;0.0716;-0.7678;
756.9000;0.0716;-0.7612;
757.2000;0.0667;-0.7612;
757.5000;0.0700;-0.7678;
757.8000;0.0692;-0.7811;
758.1000;0.0708;-0.7767;
758.4000;0.0684;-0.7789;
758.7000;0.0708;-0.7789;
759.0000;0.0700;-0.7855;
759.3000;0.0749;-0.7678;
759.6000;0.0700;-0.7811;
759.9000;0.0700;-0.7745;
760.2000;0.0700;-0.7723;
760.5000;0.0733;-0.7590;
760.8000;0.0716;-0.7656;
761.1000;0.0708;-0.7568;
761.4000;0.0586;-0.7855;
761.7000;0.0716;-0.7568;
762.0000;0.0708;-0.7612;
762.3000;0.0716;-0.7568;
762.6000;0.0676;-0.7656;
762.9000;0.0749;-0.7590;
763.2000;0.0716;-0.7568;
763.5000;0.0724;-0.7546;
763.8000;0.0716;-0.7479;
764.1000;0.0749;-0.7391;
764.4000;0.0749;-0.7391;
764.7000;0.0708;-0.7501;
765.0000;0.0692;-0.7501;
765.3000;0.0700;-0.7501;
765.6000;0.0643;-0.7656;
765.9000;0.0708;-0.7413;
766.2000;0.0667;-0.7546;
766.5000;0.0635;-0.7701;
766.8000;0.0684;-0.7590;
767.1000;0.0700;-0.7590;
767.4000;0.0692;-0.7612;
767.7000;0.0676;-0.7612;
768.0000;0.0749;-0.7479;
768.3000;0.0724;-0.7568;
768.6000;0.0716;-0.7546;
768.9000;0.0716;-0.7612;
769.2000;0.0798;-0.7391;
769.5000;0.0724;-0.7457;
769.8000;0.0708;-0.7546;
770.1000;0.0716;-0.7524;
770.4000;0.0627;-0.7811;
770.7000;0.0708;-0.7656;
771.0000;0.0700;-0.7612;
771.3000;0.0708;-0.7701;
771.6000;0.0749;-0.7612;
771.9000;0.0773;-0.7612;
772.2000;0.0708;-0.7634;
772.5000;0.0716;-0.7678;
772.8000;0.0724;-0.7568;
773.1000;0.0708;-0.7634;
773.4000;0.0684;-0.7612;
773.7000;0.0724;-0.7501;
774.0000;0.0716;-0.7479;
774.3000;0.0716;-0.7457;
774.6000;0.0716;-0.7546;
774.9000;0.0773;-0.7479;
775.2000;0.0659;-0.7634;
775.5000;0.0741;-0.7501;
775.8000;0.0724;-0.7546;
776.1000;0.0700;-0.7501;
776.4000;0.0692;-0.7479;
776.7000;0.0716;-0.7457;
777.0000;0.0684;-0.7590;
777.3000;0.0708;-0.7546;
777.6000;0.0708;-0.7501;
777.9000;0.0733;-0.7524;
778.2000;0.0684;-0.7701;
778.5000;0.0749;-0.7546;
778.8000;0.0700;-0.7701;
779.1000;0.0749;-0.7590;
779.4000;0.0733;-0.7568;
779.7000;0.0692;-0.7678;
780.0000;0.0676;-0.7789;
780.3000;0.0692;-0.7767;
780.6000;0.0724;-0.7678;
780.9000;0.0724;-0.7612;
781.2000;0.0684;-0.7678;
781.5000;0.0741;-0.7546;
781.8000;0.0822;-0.7302;
782.1000;0.0708;-0.7634;
782.4000;0.0700;-0.7656;
782.7000;0.0724;-0.7590;
783.0000;0.0724;-0.7501;
783.3000;0.0757;-0.7391;
783.6000;0.0733;-0.7524;
783.9000;0.0724;-0.7590;
784.2000;0.0716;-0.7656;
784.5000;0.0741;-0.7546;
784.8000;0.0716;-0.7524;
785.1000;0.0724;-0.7479;
785.4000;0.0724;-0.7524;
785.7000;0.0741;-0.7479;
786.0000;0.0733;-0.7524;
786.3000;0.0700;-0.7590;
786.6000;0.0716;-0.7568;
786.9000;0.0733;-0.7501;
787.2000;0.0757;-0.7479;
787.5000;0.0692;-0.7590;
787.8000;0.0700;-0.7590;
788.1000;0.0733;-0.7457;
788.4000;0.0708;-0.7457;
788.7000;0.0724;-0.7435;
789.0000;0.0700;-0.7479;
789.3000;0.0708;-0.7435;
789.6000;0.0716;-0.7435;
789.9000;0.0733;-0.7391;
790.2000;0.0733;-0.7369;
790.5000;0.0692;-0.7435;
790.8000;0.0692;-0.7413;
791.1000;0.0724;-0.7435;
791.4000;0.0594;-0.7701;
791.7000;0.0708;-0.7391;
792.0000;0.0716;-0.7413;
792.3000;0.0733;-0.7479;
792.6000;0.0814;-0.7347;
792.9000;0.0708;-0.7634;
793.2000;0.0676;-0.7634;
793.5000;0.0765;-0.7369;
793.8000;0.0724;-0.7501;
794.1000;0.0708;-0.7524;
794.4000;0.0757;-0.7347;
794.7000;0.0716;-0.7457;
795.0000;0.0790;-0.7236;
795.3000;0.0724;-0.7413;
795.6000;0.0806;-0.7258;
795.9000;0.0733;-0.7413;
796.2000;0.0741;-0.7391;
796.5000;0.0708;-0.7369;
796.8000;0.0676;-0.7391;
797.1000;0.0708;-0.7369;
797.4000;0.0692;-0.7479;
797.7000;0.0684;-0.7634;
798.0000;0.0692;-0.7590;
798.3000;0.0716;-0.7546;
798.6000;0.0757;-0.7435;
798.9000;0.0741;-0.7435;
799.2000;0.0708;-0.7524;
799.5000;0.0692;-0.7524;
799.8000;0.0724;-0.7524;
800.1000;0.0619;-0.7745;
800.4000;0.0733;-0.7501;
800.7000;0.0716;-0.7501;
801.0000;0.0716;-0.7457;
801.3000;0.0692;-0.7568;
801.6000;0.0692;-0.7546;
801.9000;0.0741;-0.7413;
802.2000;0.0724;-0.7435;
802.5000;0.0724;-0.7435;
802.8000;0.0765;-0.7391;
803.1000;0.0724;-0.7501;
803.4000;0.0692;-0.7678;
803.7000;0.0643;-0.7855;
804.0000;0.0684;-0.7723;
804.3000;0.0700;-0.7678;
804.6000;0.0708;-0.7678;
804.9000;0.0765;-0.7501;
805.2000;0.0716;-0.7612;
805.5000;0.0765;-0.7501;
805.8000;0.0700;-0.7701;
806.1000;0.0692;-0.7656;
806.4000;0.0708;-0.7656;
806.7000;0.0700;-0.7612;
807.0000;0.0700;-0.7678;
807.3000;0.0716;-0.7656;
807.6000;0.0708;-0.7546;
807.9000;0.0749;-0.7479;
808.2000;0.0724;-0.7479;
808.5000;0.0733;-0.7501;
808.8000;0.0733;-0.7501;
809.1000;0.0733;-0.7524;
809.4000;0.0716;-0.7568;
809.7000;0.0716;-0.7590;
810.0000;0.0676;-0.7612;
810.3000;0.0708;-0.7568;
810.6000;0.0708;-0.7678;
810.9000;0.0692;-0.7723;
811.2000;0.0692;-0.7678;
811.5000;0.0708;-0.7634;
811.8000;0.0708;-0.7767;
812.1000;0.0724;-0.7723;
812.4000;0.0781;-0.7612;
812.7000;0.0708;-0.7767;
813.0000;0.0765;-0.7745;
813.3000;0.0700;-0.7900;
813.6000;0.0716;-0.7767;
813.9000;0.0724;-0.7745;
814.2000;0.0708;-0.7767;
814.5000;0.0724;-0.7723;
814.8000;0.0733;-0.7656;
815.1000;0.0749;-0.7568;
815.4000;0.0781;-0.7501;
815.7000;0.0708;-0.7656;
816.0000;0.0724;-0.7590;
816.3000;0.0708;-0.7568;
816.6000;0.0708;-0.7612;
816.9000;0.0659;-0.7723;
817.2000;0.0708;-0.7701;
817.5000;0.0708;-0.7701;
817.8000;0.0708;-0.7656;
818.1000;0.0700;-0.7678;
818.4000;0.0724;-0.7678;
818.7000;0.0724;-0.7634;
819.0000;0.0716;-0.7612;
819.3000;0.0724;-0.7546;
819.6000;0.0708;-0.7546;
819.9000;0.0733;-0.7435;
820.2000;0.0659;-0.7656;
820.5000;0.0700;-0.7612;
820.8000;0.0692;-0.7612;
821.1000;0.0708;-0.7568;
821.4000;0.0708;-0.7546;
821.7000;0.0700;-0.7590;
822.0000;0.0724;-0.7524;
822.3000;0.0676;-0.7612;
822.6000;0.0716;-0.7546;
822.9000;0.0684;-0.7590;
823.2000;0.0724;-0.7546;
823.5000;0.0700;-0.7590;
823.8000;0.0716;-0.7590;
824.1000;0.0700;-0.7524;
824.4000;0.0708;-0.7457;
824.7000;0.0700;-0.7524;
825.0000;0.0724;-0.7546;
825.3000;0.0716;-0.7634;
825.6000;0.0716;-0.7656;
825.9000;0.0716;-0.7634;
826.2000;0.0733;-0.7656;
826.5000;0.0724;-0.7678;
826.8000;0.0700;-0.7678;
827.1000;0.0724;-0.7612;
827.4000;0.0692;-0.7656;
827.7000;0.0724;-0.7479;
828.0000;0.0570;-0.7855;
828.3000;0.0716;-0.7546;
828.6000;0.0716;-0.7546;
828.9000;0.0724;-0.7435;
829.2000;0.0724;-0.7457;
829.5000;0.0700;-0.7590;
829.8000;0.0708;-0.7546;
830.1000;0.0692;-0.7656;
830.4000;0.0700;-0.7590;
830.7000;0.0700;-0.7546;
831.0000;0.0684;-0.7524;
831.3000;0.0708;-0.7457;
831.6000;0.0716;-0.7457;
831.9000;0.0708;-0.7479;
832.2000;0.0708;-0.7524;
832.5000;0.0619;-0.7767;
832.8000;0.0716;-0.7568;
833.1000;0.0708;-0.7568;
833.4000;0.0741;-0.7457;
833.7000;0.0700;-0.7590;
834.0000;0.0724;-0.7501;
834.3000;0.0716;-0.7457;
834.6000;0.0619;-0.7656;
834.9000;0.0781;-0.7236;
835.2000;0.0708;-0.7479;
835.5000;0.0692;-0.7479;
835.8000;0.0798;-0.7236;
836.1000;0.0716;-0.7501;
836.4000;0.0724;-0.7479;
836.7000;0.0790;-0.7347;
837.0000;0.0700;-0.7501;
837.3000;0.0684;-0.7479;
837.6000;0.0716;-0.7457;
837.9000;0.0692;-0.7590;
838.2000;0.0716;-0.7612;
838.5000;0.0700;-0.7568;
838.8000;0.0773;-0.7369;
839.1000;0.0724;-0.7391;
839.4000;0.0700;-0.7457;
839.7000;0.0716;-0.7391;
840.0000;0.0708;-0.7457;
840.3000;0.0667;-0.7634;
840.6000;0.0667;-0.7612;
840.9000;0.0700;-0.7457;
841.2000;0.0692;-0.7369;
841.5000;0.0716;-0.7324;
841.8000;0.0838;-0.7037;
842.1000;0.0708;-0.7347;
842.4000;0.0724;-0.7369;
842.7000;0.0716;-0.7347;
843.0000;0.0692;-0.7501;
843.3000;0.0749;-0.7369;
843.6000;0.0716;-0.7435;
843.9000;0.0733;-0.7391;
844.2000;0.0724;-0.7391;
844.5000;0.0749;-0.7413;
844.8000;0.0700;-0.7546;
845.1000;0.0765;-0.7391;
845.4000;0.0765;-0.7501;
845.7000;0.0708;-0.7634;
846.0000;0.0594;-0.7900;
846.3000;0.0692;-0.7656;
846.6000;0.0724;-0.7524;
846.9000;0.0708;-0.7479;
847.2000;0.0708;-0.7391;
847.5000;0.0716;-0.7435;
847.8000;0.0716;-0.7524;
848.1000;0.0667;-0.7590;
848.4000;0.0757;-0.7347;
848.7000;0.0700;-0.7590;
849.0000;0.0814;-0.7347;
849.3000;0.0700;-0.7546;
849.6000;0.0708;-0.7546;
849.9000;0.0692;-0.7634;
850.2000;0.0708;-0.7590;
850.5000;0.0667;-0.7701;
850.8000;0.0708;-0.7701;
851.1000;0.0716;-0.7701;
851.4000;0.0733;-0.7723;
851.7000;0.0700;-0.7701;
852.0000;0.0700;-0.7745;
852.3000;0.0684;-0.7745;
852.6000;0.0700;-0.7634;
852.9000;0.0708;-0.7634;
853.2000;0.0716;-0.7590;
853.5000;0.0757;-0.7524;
853.8000;0.0798;-0.7413;
854.1000;0.0733;-0.7501;
854.4000;0.0781;-0.7391;
854.7000;0.0733;-0.7568;
855.0000;0.0700;-0.7634;
855.3000;0.0708;-0.7656;
855.6000;0.0724;-0.7634;
855.9000;0.0708;-0.7678;
856.2000;0.0724;-0.7612;
856.5000;0.0724;-0.7634;
856.8000;0.0724;-0.7634;
857.1000;0.0757;-0.7678;
857.4000;0.0700;-0.7833;
857.7000;0.0651;-0.7922;
858.0000;0.0781;-0.7590;
858.3000;0.0724;-0.7612;
858.6000;0.0659;-0.7678;
858.9000;0.0822;-0.7258;
859.2000;0.0692;-0.7678;
859.5000;0.0700;-0.7612;
859.8000;0.0724;-0.7546;
860.1000;0.0708;-0.7634;
860.4000;0.0790;-0.7413;
860.7000;0.0651;-0.7745;
861.0000;0.0708;-0.7701;
861.3000;0.0716;-0.7634;
861.6000;0.0700;-0.7656;
861.9000;0.0692;-0.7656;
862.2000;0.0708;-0.7678;
862.5000;0.0708;-0.7656;
862.8000;0.0700;-0.7723;
863.1000;0.0692;-0.7745;
863.4000;0.0733;-0.7634;
863.7000;0.0700;-0.7656;
864.0000;0.0733;-0.7590;
864.3000;0.0708;-0.7634;
864.6000;0.0667;-0.7789;
864.9000;0.0716;-0.7745;
865.2000;0.0733;-0.7590;
865.5000;0.0724;-0.7590;
865.8000;0.0708;-0.7612;
866.1000;0.0733;-0.7524;
866.4000;0.0724;-0.7501;
866.7000;0.0741;-0.7524;
867.0000;0.0716;-0.7501;
867.3000;0.0741;-0.7435;
867.6000;0.0716;-0.7568;
867.9000;0.0716;-0.7590;
868.2000;0.0724;-0.7656;
868.5000;0.0781;-0.7501;
868.8000;0.0741;-0.7612;
869.1000;0.0684;-0.7723;
869.4000;0.0724;-0.7590;
869.7000;0.0708;-0.7634;
870.0000;0.0757;-0.7501;
870.3000;0.0708;-0.7678;
870.6000;0.0708;-0.7590;
870.9000;0.0724;-0.7612;
871.2000;0.0635;-0.7789;
871.5000;0.0716;-0.7634;
871.8000;0.0716;-0.7590;
872.1000;0.0749;-0.7435;
872.4000;0.0708;-0.7435;
872.7000;0.0749;-0.7391;
873.0000;0.0708;-0.7457;
873.3000;0.0724;-0.7435;
873.6000;0.0757;-0.7324;
873.9000;0.0724;-0.7347;
874.2000;0.0724;-0.7280;
874.5000;0.0692;-0.7391;
874.8000;0.0741;-0.7413;
875.1000;0.0716;-0.7501;
875.4000;0.0733;-0.7568;
875.7000;0.0716;-0.7590;
876.0000;0.0724;-0.7656;
876.3000;0.0676;-0.7701;
876.6000;0.0733;-0.7524;
876.9000;0.0716;-0.7590;
877.2000;0.0708;-0.7678;
877.5000;0.0733;-0.7612;
877.8000;0.0716;-0.7612;
878.1000;0.0708;-0.7612;
878.4000;0.0708;-0.7546;
878.7000;0.0684;-0.7612;
879.0000;0.0700;-0.7524;
879.3000;0.0708;-0.7524;
879.6000;0.0724;-0.7590;
879.9000;0.0733;-0.7634;
880.2000;0.0692;-0.7701;
880.5000;0.0716;-0.7656;
880.8000;0.0708;-0.7678;
881.1000;0.0676;-0.7767;
881.4000;0.0708;-0.7634;
881.7000;0.0684;-0.7723;
882.0000;0.0733;-0.7457;
882.3000;0.0684;-0.7435;
882.6000;0.0716;-0.7369;
882.9000;0.0716;-0.7479;
883.2000;0.0716;-0.7435;
883.5000;0.0692;-0.7501;
883.8000;0.0790;-0.7236;
884.1000;0.0708;-0.7501;
884.4000;0.0700;-0.7590;
884.7000;0.0733;-0.7524;
885.0000;0.0692;-0.7612;
885.3000;0.0659;-0.7745;
885.6000;0.0830;-0.7369;
885.9000;0.0700;-0.7656;
886.2000;0.0716;-0.7656;
886.5000;0.0749;-0.7524;
886.8000;0.0708;-0.7678;
887.1000;0.0684;-0.7723;
887.4000;0.0716;-0.7590;
887.7000;0.0716;-0.7546;
888.0000;0.0602;-0.7789;
888.3000;0.0700;-0.7546;
888.6000;0.0741;-0.7479;
888.9000;0.0684;-0.7634;
889.2000;0.0724;-0.7568;
889.5000;0.0733;-0.7546;
889.8000;0.0724;-0.7479;
890.1000;0.0708;-0.7501;
890.4000;0.0708;-0.7546;
890.7000;0.0684;-0.7656;
891.0000;0.0659;-0.7678;
891.3000;0.0692;-0.7524;
891.6000;0.0724;-0.7546;
891.9000;0.0741;-0.7524;
892.2000;0.0716;-0.7612;
892.5000;0.0724;-0.7590;
892.8000;0.0700;-0.7590;
893.1000;0.0692;-0.7546;
893.4000;0.0716;-0.7501;
893.7000;0.0716;-0.7435;
894.0000;0.0700;-0.7501;
894.3000;0.0757;-0.7391;
894.6000;0.0716;-0.7435;
894.9000;0.0700;-0.7590;
895.2000;0.0635;-0.7789;
895.5000;0.0708;-0.7568;
895.8000;0.0635;-0.7701;
896.1000;0.0716;-0.7524;
896.4000;0.0716;-0.7457;
896.7000;0.0700;-0.7546;
897.0000;0.0708;-0.7524;
897.3000;0.0724;-0.7435;
897.6000;0.0724;-0.7413;
897.9000;0.0716;-0.7479;
898.2000;0.0676;-0.7678;
898.5000;0.0716;-0.7634;
898.8000;0.0733;-0.7590;
899.1000;0.0716;-0.7701;
899.4000;0.0708;-0.7568;
899.7000;0.0700;-0.7568;
900.0000;0.0676;-0.7568;
900.3000;0.0692;-0.7590;
900.6000;0.0700;-0.7590;
900.9000;0.0765;-0.7479;
901.2000;0.0708;-0.7590;
901.5000;0.0716;-0.7501;
901.8000;0.0708;-0.7612;
902.1000;0.0700;-0.7656;
902.4000;0.0790;-0.7479;
902.7000;0.0733;-0.7656;
903.0000;0.0708;-0.7634;
903.3000;0.0798;-0.7347;
903.6000;0.0716;-0.7568;
903.9000;0.0724;-0.7546;
904.2000;0.0708;-0.7524;
904.5000;0.0838;-0.7147;
904.8000;0.0692;-0.7479;
905.1000;0.0700;-0.7479;
905.4000;0.0700;-0.7524;
905.7000;0.0692;-0.7590;
906.0000;0.0708;-0.7568;
906.3000;0.0724;-0.7479;
906.6000;0.0741;-0.7347;
906.9000;0.0765;-0.7347;
907.2000;0.0724;-0.7479;
907.5000;0.0700;-0.7546;
907.8000;0.0838;-0.7192;
908.1000;0.0700;-0.7413;
908.4000;0.0724;-0.7302;
908.7000;0.0708;-0.7324;
909.0000;0.0749;-0.7170;
909.3000;0.0781;-0.7147;
909.6000;0.0716;-0.7302;
909.9000;0.0716;-0.7302;
910.2000;0.0708;-0.7324;
910.5000;0.0749;-0.7192;
910.8000;0.0733;-0.7258;
911.1000;0.0700;-0.7369;
911.4000;0.0692;-0.7369;
911.7000;0.0716;-0.7302;
912.0000;0.0700;-0.7347;
912.3000;0.0708;-0.7324;
912.6000;0.0790;-0.7258;
912.9000;0.0708;-0.7457;
913.2000;0.0733;-0.7369;
913.5000;0.0733;-0.7302;
913.8000;0.0765;-0.7302;
914.1000;0.0724;-0.7302;
914.4000;0.0716;-0.7258;
914.7000;0.0724;-0.7280;
915.0000;0.0659;-0.7546;
915.3000;0.0741;-0.7435;
915.6000;0.0724;-0.7413;
915.9000;0.0700;-0.7435;
916.2000;0.0708;-0.7435;
916.5000;0.0700;-0.7524;
916.8000;0.0708;-0.7590;
917.1000;0.0692;-0.7634;
917.4000;0.0667;-0.7701;
917.7000;0.0708;-0.7590;
918.0000;0.0733;-0.7501;
918.3000;0.0716;-0.7612;
918.6000;0.0733;-0.7590;
918.9000;0.0733;-0.7656;
919.2000;0.0692;-0.7678;
919.5000;0.0708;-0.7590;
919.8000;0.0708;-0.7568;
920.1000;0.0635;-0.7745;
920.4000;0.0733;-0.7568;
920.7000;0.0733;-0.7568;
921.0000;0.0619;-0.7811;
921.3000;0.0724;-0.7590;
921.6000;0.0692;-0.7590;
921.9000;0.0700;-0.7656;
922.2000;0.0700;-0.7701;
922.5000;0.0716;-0.7745;
922.8000;0.0700;-0.7723;
923.1000;0.0708;-0.7701;
923.4000;0.0814;-0.7457;
923.7000;0.0708;-0.7590;
924.0000;0.0733;-0.7612;
924.3000;0.0733;-0.7590;
924.6000;0.0716;-0.7590;
924.9000;0.0700;-0.7590;
925.2000;0.0692;-0.7546;
925.5000;0.0773;-0.7324;
925.8000;0.0708;-0.7524;
926.1000;0.0724;-0.7568;
926.4000;0.0741;-0.7524;
926.7000;0.0708;-0.7568;
927.0000;0.0708;-0.7634;
927.3000;0.0676;-0.7745;
927.6000;0.0708;-0.7656;
927.9000;0.0724;-0.7590;
928.2000;0.0708;-0.7634;
928.5000;0.0716;-0.7634;
928.8000;0.0692;-0.7656;
929.1000;0.0708;-0.7612;
929.4000;0.0716;-0.7457;
929.7000;0.0733;-0.7413;
930.0000;0.0659;-0.7546;
930.3000;0.0733;-0.7391;
930.6000;0.0700;-0.7457;
930.9000;0.0684;-0.7590;
931.2000;0.0700;-0.7568;
931.5000;0.0708;-0.7457;
931.8000;0.0716;-0.7391;
932.1000;0.0684;-0.7501;
932.4000;0.0708;-0.7546;
932.7000;0.0716;-0.7524;
933.0000;0.0716;-0.7479;
933.3000;0.0716;-0.7457;
933.6000;0.0733;-0.7435;
933.9000;0.0716;-0.7457;
934.2000;0.0700;-0.7435;
934.5000;0.0741;-0.7369;
934.8000;0.0700;-0.7479;
935.1000;0.0708;-0.7435;
935.4000;0.0700;-0.7524;
935.7000;0.0724;-0.7435;
936.0000;0.0700;-0.7479;
936.3000;0.0692;-0.7413;
936.6000;0.0716;-0.7324;
936.9000;0.0700;-0.7391;
937.2000;0.0692;-0.7391;
937.5000;0.0724;-0.7280;
937.8000;0.0692;-0.7347;
938.1000;0.0716;-0.7369;
938.4000;0.0733;-0.7347;
938.7000;0.0708;-0.7479;
939.0000;0.0692;-0.7501;
939.3000;0.0643;-0.7612;
939.6000;0.0708;-0.7435;
939.9000;0.0716;-0.7435;
940.2000;0.0733;-0.7391;
940.5000;0.0716;-0.7479;
940.8000;0.0700;-0.7568;
941.1000;0.0822;-0.7192;
941.4000;0.0619;-0.7701;
941.7000;0.0708;-0.7501;
942.0000;0.0733;-0.7435;
942.3000;0.0570;-0.7855;
942.6000;0.0716;-0.7524;
942.9000;0.0724;-0.7568;
943.2000;0.0790;-0.7413;
943.5000;0.0716;-0.7612;
943.8000;0.0716;-0.7590;
944.1000;0.0716;-0.7590;
944.4000;0.0733;-0.7501;
944.7000;0.0724;-0.7501;
945.0000;0.0724;-0.7501;
945.3000;0.0733;-0.7546;
945.6000;0.0708;-0.7568;
945.9000;0.0716;-0.7501;
946.2000;0.0684;-0.7612;
946.5000;0.0822;-0.7236;
946.8000;0.0708;-0.7546;
947.1000;0.0700;-0.7501;
947.4000;0.0724;-0.7479;
947.7000;0.0822;-0.7280;
948.0000;0.0700;-0.7501;
948.3000;0.0667;-0.7524;
948.6000;0.0651;-0.7546;
948.9000;0.0692;-0.7479;
949.2000;0.0700;-0.7501;
949.5000;0.0733;-0.7501;
949.8000;0.0708;-0.7590;
950.1000;0.0724;-0.7546;
950.4000;0.0684;-0.7590;
950.7000;0.0798;-0.7214;
951.0000;0.0708;-0.7391;
951.3000;0.0716;-0.7347;
951.6000;0.0700;-0.7501;
951.9000;0.0684;-0.7546;
952.2000;0.0700;-0.7546;
952.5000;0.0692;-0.7612;
952.8000;0.0741;-0.7546;
953.1000;0.0749;-0.7501;
953.4000;0.0749;-0.7501;
953.7000;0.0708;-0.7501;
954.0000;0.0749;-0.7479;
954.3000;0.0716;-0.7634;
954.6000;0.0733;-0.7612;
954.9000;0.0741;-0.7590;
955.2000;0.0724;-0.7678;
955.5000;0.0708;-0.7745;
955.8000;0.0724;-0.7745;
956.1000;0.0676;-0.7723;
956.4000;0.0838;-0.7280;
956.7000;0.0708;-0.7678;
957.0000;0.0724;-0.7656;
957.3000;0.0716;-0.7656;
957.6000;0.0708;-0.7656;
957.9000;0.0692;-0.7678;
958.2000;0.0716;-0.7590;
958.5000;0.0611;-0.7900;
958.8000;0.0708;-0.7546;
959.1000;0.0724;-0.7435;
959.4000;0.0708;-0.7435;
959.7000;0.0708;-0.7369;
960.0000;0.0708;-0.7324;
960.3000;0.0741;-0.7280;
960.6000;0.0708;-0.7413;
960.9000;0.0708;-0.7391;
961.2000;0.0716;-0.7324;
961.5000;0.0708;-0.7347;
961.8000;0.0700;-0.7302;
962.1000;0.0700;-0.7391;
962.4000;0.0741;-0.7413;
962.7000;0.0724;-0.7347;
963.0000;0.0716;-0.7457;
963.3000;0.0627;-0.7767;
963.6000;0.0708;-0.7501;
963.9000;0.0716;-0.7435;
964.2000;0.0822;-0.7170;
964.5000;0.0733;-0.7413;
964.8000;0.0741;-0.7479;
965.1000;0.0708;-0.7568;
965.4000;0.0676;-0.7634;
965.7000;0.0700;-0.7634;
966.0000;0.0692;-0.7590;
966.3000;0.0716;-0.7634;
966.6000;0.0716;-0.7656;
966.9000;0.0708;-0.7568;
967.2000;0.0676;-0.7678;
967.5000;0.0733;-0.7546;
967.8000;0.0716;-0.7590;
968.1000;0.0716;-0.7656;
968.4000;0.0757;-0.7479;
968.7000;0.0733;-0.7656;
969.0000;0.0724;-0.7634;
969.3000;0.0757;-0.7501;
969.6000;0.0708;-0.7590;
969.9000;0.0724;-0.7568;
970.2000;0.0724;-0.7546;
970.5000;0.0724;-0.7590;
970.8000;0.0708;-0.7524;
971.1000;0.0749;-0.7413;
971.4000;0.0838;-0.7170;
971.7000;0.0724;-0.7479;
972.0000;0.0602;-0.7767;
972.3000;0.0733;-0.7479;
972.6000;0.0806;-0.7192;
972.9000;0.0741;-0.7391;
973.2000;0.0724;-0.7479;
973.5000;0.0855;-0.7192;
973.8000;0.0749;-0.7546;
974.1000;0.0716;-0.7479;
974.4000;0.0708;-0.7524;
974.7000;0.0716;-0.7457;
975.0000;0.0692;-0.7435;
975.3000;0.0700;-0.7457;
975.6000;0.0724;-0.7413;
975.9000;0.0700;-0.7457;
976.2000;0.0700;-0.7369;
976.5000;0.0684;-0.7302;
976.8000;0.0708;-0.7258;
977.1000;0.0692;-0.7302;
977.4000;0.0716;-0.7324;
977.7000;0.0708;-0.7369;
978.0000;0.0733;-0.7413;
978.3000;0.0586;-0.7745;
978.6000;0.0855;-0.7037;
978.9000;0.0716;-0.7324;
979.2000;0.0749;-0.7258;
979.5000;0.0643;-0.7546;
979.8000;0.0716;-0.7435;
980.1000;0.0667;-0.7612;
980.4000;0.0716;-0.7501;
980.7000;0.0708;-0.7501;
981.0000;0.0708;-0.7568;
981.3000;0.0716;-0.7546;
981.6000;0.0692;-0.7546;
981.9000;0.0643;-0.7634;
982.2000;0.0692;-0.7435;
982.5000;0.0708;-0.7501;
982.8000;0.0716;-0.7435;
983.1000;0.0733;-0.7324;
983.4000;0.0684;-0.7413;
983.7000;0.0708;-0.7457;
984.0000;0.0692;-0.7524;
984.3000;0.0667;-0.7568;
984.6000;0.0708;-0.7435;
984.9000;0.0708;-0.7479;
985.2000;0.0667;-0.7479;
985.5000;0.0749;-0.7324;
985.8000;0.0684;-0.7501;
986.1000;0.0716;-0.7457;
986.4000;0.0724;-0.7479;
986.7000;0.0716;-0.7479;
987.0000;0.0741;-0.7457;
987.3000;0.0659;-0.7656;
987.6000;0.0708;-0.7546;
987.9000;0.0708;-0.7479;
988.2000;0.0700;-0.7568;
988.5000;0.0684;-0.7546;
988.8000;0.0708;-0.7590;
989.1000;0.0716;-0.7568;
989.4000;0.0733;-0.7501;
989.7000;0.0700;-0.7590;
990.0000;0.0716;-0.7457;
990.3000;0.0692;-0.7501;
990.6000;0.0692;-0.7479;
990.9000;0.0684;-0.7524;
991.2000;0.0570;-0.7767;
991.5000;0.0716;-0.7435;
991.8000;0.0716;-0.7524;
992.1000;0.0716;-0.7501;
992.4000;0.0724;-0.7546;
992.7000;0.0708;-0.7524;
993.0000;0.0692;-0.7656;
993.3000;0.0692;-0.7634;
993.6000;0.0700;-0.7612;
993.9000;0.0716;-0.7634;
994.2000;0.0716;-0.7612;
994.5000;0.0724;-0.7568;
994.8000;0.0716;-0.7568;
995.1000;0.0700;-0.7634;
995.4000;0.0733;-0.7546;
995.7000;0.0781;-0.7369;
996.0000;0.0708;-0.7501;
996.3000;0.0733;-0.7391;
996.6000;0.0692;-0.7612;
996.9000;0.0643;-0.7723;
997.2000;0.0692;-0.7568;
997.5000;0.0814;-0.7214;
997.8000;0.0676;-0.7546;
998.1000;0.0708;-0.7501;
998.4000;0.0684;-0.7590;
998.7000;0.0708;-0.7524;
999.0000;0.0708;-0.7568;
999.3000;0.0692;-0.7634;
999.6000;0.0708;-0.7634;
999.9000;0.0716;-0.7656;
1000.2000;0.0724;-0.7656;
1000.5000;0.0749;-0.7568;
1000.8000;0.0724;-0.7612;
1001.1000;0.0757;-0.7546;
1001.4000;0.0716;-0.7568;
1001.7000;0.0700;-0.7457;
1002.0000;0.0724;-0.7302;
1002.3000;0.0741;-0.7236;
1002.6000;0.0724;-0.7324;
1002.9000;0.0659;-0.7435;
1003.2000;0.0578;-0.7678;
1003.5000;0.0773;-0.7236;
1003.8000;0.0659;-0.7524;
1004.1000;0.0741;-0.7280;
1004.4000;0.0667;-0.7501;
1004.7000;0.0708;-0.7546;
1005.0000;0.0708;-0.7546;
1005.3000;0.0724;-0.7546;
1005.6000;0.0733;-0.7369;
1005.9000;0.0790;-0.7170;
1006.2000;0.0708;-0.7347;
1006.5000;0.0708;-0.7302;
1006.8000;0.0700;-0.7369;
1007.1000;0.0708;-0.7413;
1007.4000;0.0749;-0.7347;
1007.7000;0.0700;-0.7413;
1008.0000;0.0692;-0.7391;
1008.3000;0.0724;-0.7280;
1008.6000;0.0700;-0.7369;
1008.9000;0.0708;-0.7280;
1009.2000;0.0651;-0.7413;
1009.5000;0.0724;-0.7258;
1009.8000;0.0692;-0.7369;
1010.1000;0.0716;-0.7324;
1010.4000;0.0692;-0.7369;
1010.7000;0.0765;-0.7214;
1011.0000;0.0667;-0.7546;
1011.3000;0.0692;-0.7524;
1011.6000;0.0708;-0.7501;
1011.9000;0.0708;-0.7546;
1012.2000;0.0724;-0.7435;
1012.5000;0.0724;-0.7302;
1012.8000;0.0700;-0.7324;
1013.1000;0.0716;-0.7214;
1013.4000;0.0716;-0.7147;
1013.7000;0.0716;-0.7192;
1014.0000;0.0684;-0.7258;
1014.3000;0.0724;-0.7192;
1014.6000;0.0716;-0.7280;
1014.9000;0.0733;-0.7236;
1015.2000;0.0716;-0.7280;
1015.5000;0.0716;-0.7369;
1015.8000;0.0733;-0.7280;
1016.1000;0.0716;-0.7324;
1016.4000;0.0708;-0.7347;
1016.7000;0.0684;-0.7435;
1017.0000;0.0684;-0.7302;
1017.3000;0.0708;-0.7280;
1017.6000;0.0716;-0.7324;
1017.9000;0.0724;-0.7391;
1018.2000;0.0692;-0.7524;
1018.5000;0.0619;-0.7745;
1018.8000;0.0724;-0.7391;
1019.1000;0.0716;-0.7435;
1019.4000;0.0765;-0.7391;
1019.7000;0.0716;-0.7590;
1020.0000;0.0708;-0.7590;
1020.3000;0.0684;-0.7701;
1020.6000;0.0708;-0.7634;
1020.9000;0.0692;-0.7634;
1021.2000;0.0676;-0.7678;
1021.5000;0.0716;-0.7612;
1021.8000;0.0724;-0.7546;
1022.1000;0.0708;-0.7568;
1022.4000;0.0724;-0.7568;
1022.7000;0.0692;-0.7678;
1023.0000;0.0700;-0.7612;
1023.3000;0.0733;-0.7457;
1023.6000;0.0708;-0.7479;
1023.9000;0.0708;-0.7501;
1024.2000;0.0692;-0.7501;
1024.5000;0.0692;-0.7524;
1024.8000;0.0700;-0.7524;
1025.1000;0.0651;-0.7568;
1025.4000;0.0733;-0.7435;
1025.7000;0.0708;-0.7546;
1026.0000;0.0692;-0.7590;
1026.3000;0.0700;-0.7501;
1026.6000;0.0749;-0.7391;
1026.9000;0.0716;-0.7546;
1027.2000;0.0716;-0.7701;
1027.5000;0.0733;-0.7568;
1027.8000;0.0716;-0.7612;
1028.1000;0.0716;-0.7501;
1028.4000;0.0733;-0.7479;
1028.7000;0.0716;-0.7457;
1029.0000;0.0724;-0.7479;
1029.3000;0.0781;-0.7347;
1029.6000;0.0724;-0.7457;
1029.9000;0.0724;-0.7501;
1030.2000;0.0708;-0.7590;
1030.5000;0.0708;-0.7568;
1030.8000;0.0700;-0.7678;
1031.1000;0.0611;-0.7944;
1031.4000;0.0700;-0.7678;
1031.7000;0.0708;-0.7701;
1032.0000;0.0708;-0.7745;
1032.3000;0.0627;-0.7811;
1032.6000;0.0708;-0.7612;
1032.9000;0.0716;-0.7568;
1033.2000;0.0708;-0.7546;
1033.5000;0.0700;-0.7546;
1033.8000;0.0700;-0.7612;
1034.1000;0.0716;-0.7568;
1034.4000;0.0692;-0.7612;
1034.7000;0.0700;-0.7612;
1035.0000;0.0708;-0.7501;
1035.3000;0.0724;-0.7524;
1035.6000;0.0724;-0.7546;
1035.9000;0.0781;-0.7413;
1036.2000;0.0716;-0.7590;
1036.5000;0.0684;-0.7634;
1036.8000;0.0700;-0.7634;
1037.1000;0.0708;-0.7634;
1037.4000;0.0700;-0.7701;
1037.7000;0.0724;-0.7568;
1038.0000;0.0692;-0.7612;
1038.3000;0.0724;-0.7590;
1038.6000;0.0716;-0.7479;
1038.9000;0.0708;-0.7479;
1039.2000;0.0716;-0.7457;
1039.5000;0.0643;-0.7568;
1039.8000;0.0790;-0.7236;
1040.1000;0.0724;-0.7413;
1040.4000;0.0651;-0.7524;
1040.7000;0.0684;-0.7479;
1041.0000;0.0733;-0.7302;
1041.3000;0.0659;-0.7479;
1041.6000;0.0700;-0.7369;
1041.9000;0.0643;-0.7413;
1042.2000;0.0724;-0.7280;
1042.5000;0.0708;-0.7258;
1042.8000;0.0659;-0.7413;
1043.1000;0.0708;-0.7369;
1043.4000;0.0700;-0.7347;
1043.7000;0.0692;-0.7369;
1044.0000;0.0741;-0.7192;
1044.3000;0.0724;-0.7258;
1044.6000;0.0700;-0.7369;
1044.9000;0.0700;-0.7457;
1045.2000;0.0700;-0.7457;
1045.5000;0.0700;-0.7413;
1045.8000;0.0708;-0.7391;
1046.1000;0.0708;-0.7391;
1046.4000;0.0724;-0.7324;
1046.7000;0.0692;-0.7435;
1047.0000;0.0700;-0.7457;
1047.3000;0.0708;-0.7435;
1047.6000;0.0700;-0.7457;
1047.9000;0.0724;-0.7413;
1048.2000;0.0700;-0.7457;
1048.5000;0.0708;-0.7413;
1048.8000;0.0716;-0.7369;
1049.1000;0.0708;-0.7347;
1049.4000;0.0708;-0.7369;
1049.7000;0.0700;-0.7347;
1050.0000;0.0724;-0.7324;
1050.3000;0.0716;-0.7391;
1050.6000;0.0700;-0.7369;
1050.9000;0.0716;-0.7324;
1051.2000;0.0716;-0.7324;
1051.5000;0.0741;-0.7236;
1051.8000;0.0676;-0.7457;
1052.1000;0.0700;-0.7413;
1052.4000;0.0716;-0.7501;
1052.7000;0.0741;-0.7479;
1053.0000;0.0724;-0.7546;
1053.3000;0.0749;-0.7413;
1053.6000;0.0749;-0.7435;
1053.9000;0.0700;-0.7546;
1054.2000;0.0708;-0.7524;
1054.5000;0.0708;-0.7524;
1054.8000;0.0724;-0.7501;
1055.1000;0.0733;-0.7568;
1055.4000;0.0700;-0.7634;
1055.7000;0.0700;-0.7546;
1056.0000;0.0627;-0.7723;
1056.3000;0.0724;-0.7524;
1056.6000;0.0724;-0.7524;
1056.9000;0.0708;-0.7457;
1057.2000;0.0733;-0.7435;
1057.5000;0.0700;-0.7524;
1057.8000;0.0871;-0.7103;
1058.1000;0.0708;-0.7479;
1058.4000;0.0692;-0.7524;
1058.7000;0.0724;-0.7479;
1059.0000;0.0708;-0.7501;
1059.3000;0.0716;-0.7457;
1059.6000;0.0724;-0.7435;
1059.9000;0.0724;-0.7413;
1060.2000;0.0676;-0.7501;
1060.5000;0.0733;-0.7435;
1060.8000;0.0684;-0.7612;
1061.1000;0.0700;-0.7568;
1061.4000;0.0716;-0.7479;
1061.7000;0.0667;-0.7656;
1062.0000;0.0716;-0.7546;
1062.3000;0.0724;-0.7524;
1062.6000;0.0716;-0.7568;
1062.9000;0.0708;-0.7678;
1063.2000;0.0781;-0.7524;
1063.5000;0.0716;-0.7590;
1063.8000;0.0733;-0.7568;
1064.1000;0.0741;-0.7590;
1064.4000;0.0716;-0.7590;
1064.7000;0.0708;-0.7656;
1065.0000;0.0733;-0.7590;
1065.3000;0.0643;-0.7789;
1065.6000;0.0773;-0.7413;
1065.9000;0.0716;-0.7590;
1066.2000;0.0741;-0.7568;
1066.5000;0.0700;-0.7634;
1066.8000;0.0700;-0.7656;
1067.1000;0.0765;-0.7501;
1067.4000;0.0708;-0.7612;
1067.7000;0.0724;-0.7634;
1068.0000;0.0741;-0.7612;
1068.3000;0.0724;-0.7612;
1068.6000;0.0733;-0.7590;
1068.9000;0.0724;-0.7590;
1069.2000;0.0733;-0.7501;
1069.5000;0.0724;-0.7457;
1069.8000;0.0716;-0.7413;
1070.1000;0.0692;-0.7435;
1070.4000;0.0684;-0.7457;
1070.7000;0.0716;-0.7369;
1071.0000;0.0708;-0.7413;
1071.3000;0.0692;-0.7457;
1071.6000;0.0676;-0.7501;
1071.9000;0.0700;-0.7479;
1072.2000;0.0708;-0.7435;
1072.5000;0.0798;-0.7280;
1072.8000;0.0716;-0.7479;
1073.1000;0.0765;-0.7258;
1073.4000;0.0708;-0.7369;
1073.7000;0.0708;-0.7413;
1074.0000;0.0700;-0.7391;
1074.3000;0.0733;-0.7369;
1074.6000;0.0692;-0.7501;
1074.9000;0.0749;-0.7324;
1075.2000;0.0692;-0.7479;
1075.5000;0.0708;-0.7524;
1075.8000;0.0700;-0.7568;
1076.1000;0.0692;-0.7546;
1076.4000;0.0684;-0.7701;
1076.7000;0.0708;-0.7634;
1077.0000;0.0700;-0.7568;
1077.3000;0.0684;-0.7656;
1077.6000;0.0724;-0.7590;
1077.9000;0.0733;-0.7546;
1078.2000;0.0806;-0.7391;
1078.5000;0.0733;-0.7590;
1078.8000;0.0724;-0.7590;
1079.1000;0.0724;-0.7546;
1079.4000;0.0724;-0.7590;
1079.7000;0.0741;-0.7524;
1080.0000;0.0798;-0.7391;
1080.3000;0.0716;-0.7612;
1080.6000;0.0724;-0.7612;
1080.9000;0.0700;-0.7767;
1081.2000;0.0716;-0.7678;
1081.5000;0.0684;-0.7745;
1081.8000;0.0838;-0.7413;
1082.1000;0.0724;-0.7767;
1082.4000;0.0765;-0.7656;
1082.7000;0.0724;-0.7767;
1083.0000;0.0676;-0.7922;
1083.3000;0.0741;-0.7701;
1083.6000;0.0708;-0.7745;
1083.9000;0.0724;-0.7678;
1084.2000;0.0611;-0.7900;
1084.5000;0.0733;-0.7656;
1084.8000;0.0724;-0.7678;
1085.1000;0.0741;-0.7612;
1085.4000;0.0741;-0.7612;
1085.7000;0.0733;-0.7701;
1086.0000;0.0667;-0.7789;
1086.3000;0.0708;-0.7656;
1086.6000;0.0708;-0.7612;
1086.9000;0.0700;-0.7479;
1087.2000;0.0570;-0.7811;
1087.5000;0.0716;-0.7413;
1087.8000;0.0700;-0.7413;
1088.1000;0.0708;-0.7435;
1088.4000;0.0684;-0.7524;
1088.7000;0.0863;-0.7081;
1089.0000;0.0765;-0.7347;
1089.3000;0.0724;-0.7413;
1089.6000;0.0716;-0.7413;
1089.9000;0.0692;-0.7457;
1090.2000;0.0676;-0.7546;
1090.5000;0.0749;-0.7568;
1090.8000;0.0741;-0.7612;
1091.1000;0.0684;-0.7701;
1091.4000;0.0700;-0.7590;
1091.7000;0.0724;-0.7524;
1092.0000;0.0708;-0.7546;
1092.3000;0.0724;-0.7568;
1092.6000;0.0708;-0.7546;
1092.9000;0.0643;-0.7723;
1093.2000;0.0708;-0.7568;
1093.5000;0.0716;-0.7501;
1093.8000;0.0692;-0.7568;
1094.1000;0.0724;-0.7590;
1094.4000;0.0643;-0.7767;
1094.7000;0.0724;-0.7634;
1095.0000;0.0741;-0.7612;
1095.3000;0.0822;-0.7302;
1095.6000;0.0798;-0.7369;
1095.9000;0.0700;-0.7590;
1096.2000;0.0708;-0.7568;
1096.5000;0.0651;-0.7745;
1096.8000;0.0708;-0.7701;
1097.1000;0.0733;-0.7701;
1097.4000;0.0692;-0.7745;
1097.7000;0.0684;-0.7811;
1098.0000;0.0716;-0.7745;
1098.3000;0.0765;-0.7612;
1098.6000;0.0773;-0.7590;
1098.9000;0.0667;-0.7811;
1099.2000;0.0741;-0.7634;
1099.5000;0.0733;-0.7590;
1099.8000;0.0708;-0.7634;
1100.1000;0.0676;-0.7678;
1100.4000;0.0708;-0.7590;
1100.7000;0.0676;-0.7701;
1101.0000;0.0749;-0.7524;
1101.3000;0.0700;-0.7656;
1101.6000;0.0684;-0.7634;
1101.9000;0.0741;-0.7413;
1102.2000;0.0651;-0.7678;
1102.5000;0.0692;-0.7546;
1102.8000;0.0692;-0.7634;
1103.1000;0.0733;-0.7524;
1103.4000;0.0708;-0.7568;
1103.7000;0.0749;-0.7568;
1104.0000;0.0733;-0.7612;
1104.3000;0.0708;-0.7612;
1104.6000;0.0733;-0.7546;
1104.9000;0.0684;-0.7701;
1105.2000;0.0708;-0.7634;
1105.5000;0.0716;-0.7612;
1105.8000;0.0716;-0.7568;
1106.1000;0.0708;-0.7634;
1106.4000;0.0570;-0.7988;
1106.7000;0.0700;-0.7767;
1107.0000;0.0741;-0.7634;
1107.3000;0.0708;-0.7634;
1107.6000;0.0708;-0.7678;
1107.9000;0.0700;-0.7701;
1108.2000;0.0692;-0.7634;
1108.5000;0.0716;-0.7501;
1108.8000;0.0708;-0.7435;
1109.1000;0.0700;-0.7457;
1109.4000;0.0700;-0.7369;
1109.7000;0.0757;-0.7302;
1110.0000;0.0708;-0.7435;
1110.3000;0.0733;-0.7457;
1110.6000;0.0708;-0.7501;
1110.9000;0.0741;-0.7413;
1111.2000;0.0757;-0.7369;
1111.5000;0.0643;-0.7612;
1111.8000;0.0700;-0.7568;
1112.1000;0.0733;-0.7501;
1112.4000;0.0700;-0.7568;
1112.7000;0.0692;-0.7568;
1113.0000;0.0684;-0.7479;
1113.3000;0.0570;-0.7745;
1113.6000;0.0781;-0.7214;
1113.9000;0.0716;-0.7391;
1114.2000;0.0765;-0.7347;
1114.5000;0.0708;-0.7590;
1114.8000;0.0708;-0.7590;
1115.1000;0.0733;-0.7524;
1115.4000;0.0741;-0.7524;
1115.7000;0.0692;-0.7656;
1116.0000;0.0733;-0.7546;
1116.3000;0.0708;-0.7501;
1116.6000;0.0708;-0.7501;
1116.9000;0.0708;-0.7501;
1117.2000;0.0716;-0.7479;
1117.5000;0.0724;-0.7369;
1117.8000;0.0724;-0.7258;
1118.1000;0.0700;-0.7391;
1118.4000;0.0643;-0.7546;
1118.7000;0.0741;-0.7347;
1119.0000;0.0773;-0.7369;
1119.3000;0.0741;-0.7457;
1119.6000;0.0814;-0.7236;
1119.9000;0.0708;-0.7524;
1120.2000;0.0708;-0.7590;
1120.5000;0.0692;-0.7612;
1120.8000;0.0716;-0.7501;
1121.1000;0.0676;-0.7501;
1121.4000;0.0781;-0.7302;
1121.7000;0.0741;-0.7457;
1122.0000;0.0724;-0.7501;
1122.3000;0.0708;-0.7479;
1122.6000;0.0708;-0.7369;
1122.9000;0.0708;-0.7391;
1123.2000;0.0724;-0.7369;
1123.5000;0.0749;-0.7347;
1123.8000;0.0724;-0.7391;
1124.1000;0.0716;-0.7347;
1124.4000;0.0700;-0.7347;
1124.7000;0.0724;-0.7302;
1125.0000;0.0700;-0.7457;
1125.3000;0.0716;-0.7369;
1125.6000;0.0733;-0.7391;
1125.9000;0.0700;-0.7391;
1126.2000;0.0700;-0.7347;
1126.5000;0.0724;-0.7324;
1126.8000;0.0749;-0.7302;
1127.1000;0.0692;-0.7457;
1127.4000;0.0684;-0.7501;
1127.7000;0.0700;-0.7612;
1128.0000;0.0724;-0.7568;
1128.3000;0.0741;-0.7501;
1128.6000;0.0741;-0.7479;
1128.9000;0.0724;-0.7546;
1129.2000;0.0708;-0.7524;
1129.5000;0.0708;-0.7391;
1129.8000;0.0741;-0.7302;
1130.1000;0.0692;-0.7369;
1130.4000;0.0716;-0.7324;
1130.7000;0.0684;-0.7479;
1131.0000;0.0724;-0.7457;
1131.3000;0.0700;-0.7501;
1131.6000;0.0684;-0.7590;
1131.9000;0.0692;-0.7501;
1132.2000;0.0692;-0.7524;
1132.5000;0.0716;-0.7479;
1132.8000;0.0700;-0.7457;
1133.1000;0.0765;-0.7391;
1133.4000;0.0724;-0.7501;
1133.7000;0.0749;-0.7435;
1134.0000;0.0773;-0.7391;
1134.3000;0.0790;-0.7347;
1134.6000;0.0692;-0.7634;
1134.9000;0.0708;-0.7634;
1135.2000;0.0692;-0.7656;
1135.5000;0.0700;-0.7590;
1135.8000;0.0651;-0.7723;
1136.1000;0.0692;-0.7590;
1136.4000;0.0708;-0.7568;
1136.7000;0.0700;-0.7568;
1137.0000;0.0741;-0.7501;
1137.3000;0.0676;-0.7723;
1137.6000;0.0716;-0.7612;
1137.9000;0.0724;-0.7612;
1138.2000;0.0692;-0.7568;
1138.5000;0.0724;-0.7546;
1138.8000;0.0716;-0.7612;
1139.1000;0.0708;-0.7546;
1139.4000;0.0741;-0.7501;
1139.7000;0.0708;-0.7634;
1140.0000;0.0733;-0.7524;
1140.3000;0.0692;-0.7656;
1140.6000;0.0716;-0.7656;
1140.9000;0.0724;-0.7590;
1141.2000;0.0700;-0.7546;
1141.5000;0.0692;-0.7501;
1141.8000;0.0716;-0.7479;
1142.1000;0.0708;-0.7435;
1142.4000;0.0724;-0.7347;
1142.7000;0.0708;-0.7369;
1143.0000;0.0708;-0.7347;
1143.3000;0.0635;-0.7546;
1143.6000;0.0724;-0.7302;
1143.9000;0.0790;-0.7103;
1144.2000;0.0708;-0.7258;
1144.5000;0.0733;-0.7236;
1144.8000;0.0716;-0.7258;
1145.1000;0.0708;-0.7302;
1145.4000;0.0700;-0.7369;
1145.7000;0.0708;-0.7347;
1146.0000;0.0733;-0.7258;
1146.3000;0.0700;-0.7369;
1146.6000;0.0692;-0.7369;
1146.9000;0.0684;-0.7457;
1147.2000;0.0708;-0.7413;
1147.5000;0.0708;-0.7457;
1147.8000;0.0724;-0.7413;
1148.1000;0.0692;-0.7590;
1148.4000;0.0708;-0.7479;
1148.7000;0.0716;-0.7457;
1149.0000;0.0708;-0.7524;
1149.3000;0.0749;-0.7457;
1149.6000;0.0733;-0.7457;
1149.9000;0.0708;-0.7435;
1150.2000;0.0692;-0.7413;
1150.5000;0.0716;-0.7391;
1150.8000;0.0724;-0.7302;
1151.1000;0.0708;-0.7413;
1151.4000;0.0716;-0.7501;
1151.7000;0.0724;-0.7457;
1152.0000;0.0700;-0.7590;
1152.3000;0.0643;-0.7767;
1152.6000;0.0741;-0.7546;
1152.9000;0.0651;-0.7656;
1153.2000;0.0773;-0.7457;
1153.5000;0.0724;-0.7501;
1153.8000;0.0741;-0.7413;
1154.1000;0.0692;-0.7568;
1154.4000;0.0733;-0.7413;
1154.7000;0.0708;-0.7479;
1155.0000;0.0700;-0.7546;
1155.3000;0.0749;-0.7347;
1155.6000;0.0716;-0.7391;
1155.9000;0.0700;-0.7435;
1156.2000;0.0700;-0.7435;
1156.5000;0.0676;-0.7457;
1156.8000;0.0724;-0.7369;
1157.1000;0.0741;-0.7347;
1157.4000;0.0684;-0.7501;
1157.7000;0.0692;-0.7435;
1158.0000;0.0733;-0.7391;
1158.3000;0.0708;-0.7501;
1158.6000;0.0765;-0.7258;
1158.9000;0.0708;-0.7369;
1159.2000;0.0578;-0.7656;
1159.5000;0.0708;-0.7457;
1159.8000;0.0651;-0.7568;
1160.1000;0.0651;-0.7524;
1160.4000;0.0708;-0.7391;
1160.7000;0.0578;-0.7656;
1161.0000;0.0741;-0.7302;
1161.3000;0.0700;-0.7391;
1161.6000;0.0716;-0.7391;
1161.9000;0.0708;-0.7369;
1162.2000;0.0716;-0.7435;
1162.5000;0.0708;-0.7479;
1162.8000;0.0716;-0.7413;
1163.1000;0.0757;-0.7347;
1163.4000;0.0741;-0.7369;
1163.7000;0.0708;-0.7457;
1164.0000;0.0716;-0.7435;
1164.3000;0.0716;-0.7435;
1164.6000;0.0741;-0.7347;
1164.9000;0.0708;-0.7435;
1165.2000;0.0611;-0.7701;
1165.5000;0.0741;-0.7391;
1165.8000;0.0708;-0.7391;
1166.1000;0.0708;-0.7347;
1166.4000;0.0708;-0.7413;
1166.7000;0.0692;-0.7413;
1167.0000;0.0684;-0.7457;
1167.3000;0.0716;-0.7280;
1167.6000;0.0700;-0.7369;
1167.9000;0.0733;-0.7280;
1168.2000;0.0790;-0.7170;
1168.5000;0.0757;-0.7214;
1168.8000;0.0700;-0.7324;
1169.1000;0.0692;-0.7324;
1169.4000;0.0724;-0.7214;
1169.7000;0.0684;-0.7347;
1170.0000;0.0700;-0.7280;
1170.3000;0.0741;-0.7192;
1170.6000;0.0700;-0.7280;
1170.9000;0.0708;-0.7302;
1171.2000;0.0724;-0.7192;
1171.5000;0.0692;-0.7192;
1171.8000;0.0700;-0.7125;
1172.1000;0.0724;-0.7125;
1172.4000;0.0692;-0.7214;
1172.7000;0.0733;-0.7236;
1173.0000;0.0708;-0.7258;
1173.3000;0.0773;-0.7170;
1173.6000;0.0692;-0.7413;
1173.9000;0.0716;-0.7302;
1174.2000;0.0765;-0.7125;
1174.5000;0.0716;-0.7391;
1174.8000;0.0741;-0.7280;
1175.1000;0.0724;-0.7258;
1175.4000;0.0708;-0.7369;
1175.7000;0.0724;-0.7324;
1176.0000;0.0749;-0.7280;
1176.3000;0.0643;-0.7568;
1176.6000;0.0708;-0.7391;
1176.9000;0.0716;-0.7347;
1177.2000;0.0716;-0.7391;
1177.5000;0.0700;-0.7413;
1177.8000;0.0716;-0.7369;
1178.1000;0.0708;-0.7369;
1178.4000;0.0716;-0.7479;
1178.7000;0.0724;-0.7501;
1179.0000;0.0741;-0.7435;
1179.3000;0.0733;-0.7369;
1179.6000;0.0724;-0.7369;
1179.9000;0.0700;-0.7280;
1180.2000;0.0700;-0.7369;
1180.5000;0.0684;-0.7457;
1180.8000;0.0708;-0.7435;
1181.1000;0.0708;-0.7457;
1181.4000;0.0708;-0.7479;
1181.7000;0.0700;-0.7524;
1182.0000;0.0708;-0.7479;
1182.3000;0.0716;-0.7435;
1182.6000;0.0700;-0.7479;
1182.9000;0.0708;-0.7391;
1183.2000;0.0716;-0.7369;
1183.5000;0.0700;-0.7413;
1183.8000;0.0708;-0.7413;
1184.1000;0.0814;-0.7192;
1184.4000;0.0724;-0.7391;
1184.7000;0.0724;-0.7324;
1185.0000;0.0692;-0.7568;
1185.3000;0.0692;-0.7524;
1185.6000;0.0708;-0.7435;
1185.9000;0.0700;-0.7457;
1186.2000;0.0708;-0.7413;
1186.5000;0.0724;-0.7347;
1186.8000;0.0724;-0.7347;
1187.1000;0.0692;-0.7391;
1187.4000;0.0667;-0.7391;
1187.7000;0.0708;-0.7324;
1188.0000;0.0741;-0.7236;
1188.3000;0.0724;-0.7258;
1188.6000;0.0692;-0.7347;
1188.9000;0.0822;-0.6948;
1189.2000;0.0692;-0.7391;
1189.5000;0.0627;-0.7568;
1189.8000;0.0733;-0.7369;
1190.1000;0.0659;-0.7524;
1190.4000;0.0724;-0.7347;
1190.7000;0.0700;-0.7391;
1191.0000;0.0700;-0.7369;
1191.3000;0.0700;-0.7435;
1191.6000;0.0798;-0.7192;
1191.9000;0.0724;-0.7391;
1192.2000;0.0724;-0.7435;
1192.5000;0.0716;-0.7479;
1192.8000;0.0611;-0.7656;
1193.1000;0.0700;-0.7479;
1193.4000;0.0684;-0.7435;
1193.7000;0.0700;-0.7391;
1194.0000;0.0716;-0.7369;
1194.3000;0.0733;-0.7302;
1194.6000;0.0716;-0.7324;
1194.9000;0.0716;-0.7302;
1195.2000;0.0684;-0.7391;
1195.5000;0.0708;-0.7369;
1195.8000;0.0716;-0.7236;
1196.1000;0.0733;-0.7236;
1196.4000;0.0724;-0.7369;
1196.7000;0.0692;-0.7391;
1197.0000;0.0700;-0.7324;
1197.3000;0.0708;-0.7280;
1197.6000;0.0716;-0.7347;
1197.9000;0.0716;-0.7413;
1198.2000;0.0643;-0.7634;
1198.5000;0.0700;-0.7568;
1198.8000;0.0651;-0.7612;
1199.1000;0.0708;-0.7546;
1199.4000;0.0724;-0.7524;
1199.7000;0.0716;-0.7524;
1200.0000;0.0733;-0.7435;
1200.3000;0.0814;-0.7280;
1200.6000;0.0733;-0.7479;
1200.9000;0.0733;-0.7391;
1201.2000;0.0676;-0.7546;
1201.5000;0.0700;-0.7391;
1201.8000;0.0724;-0.7413;
1202.1000;0.0716;-0.7435;
1202.4000;0.0708;-0.7501;
1202.7000;0.0700;-0.7501;
1203.0000;0.0684;-0.7524;
1203.3000;0.0700;-0.7391;
1203.6000;0.0708;-0.7457;
1203.9000;0.0700;-0.7479;
1204.2000;0.0716;-0.7479;
1204.5000;0.0643;-0.7701;
1204.8000;0.0724;-0.7524;
1205.1000;0.0716;-0.7590;
1205.4000;0.0765;-0.7479;
1205.7000;0.0741;-0.7479;
1206.0000;0.0765;-0.7479;
1206.3000;0.0716;-0.7590;
1206.6000;0.0733;-0.7546;
1206.9000;0.0708;-0.7501;
1207.2000;0.0708;-0.7479;
1207.5000;0.0806;-0.7280;
1207.8000;0.0716;-0.7369;
1208.1000;0.0716;-0.7391;
1208.4000;0.0676;-0.7501;
1208.7000;0.0708;-0.7435;
1209.0000;0.0733;-0.7457;
1209.3000;0.0716;-0.7501;
1209.6000;0.0724;-0.7413;
1209.9000;0.0798;-0.7214;
1210.2000;0.0716;-0.7479;
1210.5000;0.0716;-0.7546;
1210.8000;0.0724;-0.7457;
1211.1000;0.0741;-0.7391;
1211.4000;0.0749;-0.7413;
1211.7000;0.0724;-0.7501;
1212.0000;0.0716;-0.7457;
1212.3000;0.0716;-0.7347;
1212.6000;0.0700;-0.7457;
1212.9000;0.0716;-0.7435;
1213.2000;0.0708;-0.7435;
1213.5000;0.0635;-0.7590;
1213.8000;0.0692;-0.7524;
1214.1000;0.0724;-0.7435;
1214.4000;0.0724;-0.7413;
1214.7000;0.0708;-0.7435;
1215.0000;0.0611;-0.7612;
1215.3000;0.0757;-0.7280;
1215.6000;0.0684;-0.7524;
1215.9000;0.0676;-0.7435;
1216.2000;0.0716;-0.7347;
1216.5000;0.0716;-0.7324;
1216.8000;0.0651;-0.7391;
1217.1000;0.0741;-0.7214;
1217.4000;0.0708;-0.7236;
1217.7000;0.0765;-0.7170;
1218.0000;0.0708;-0.7324;
1218.3000;0.0700;-0.7302;
1218.6000;0.0716;-0.7258;
1218.9000;0.0741;-0.7280;
1219.2000;0.0733;-0.7280;
1219.5000;0.0692;-0.7369;
1219.8000;0.0716;-0.7280;
1220.1000;0.0659;-0.7280;
1220.4000;0.0708;-0.7103;
1220.7000;0.0708;-0.7081;
1221.0000;0.0708;-0.7037;
1221.3000;0.0716;-0.7147;
1221.6000;0.0724;-0.7236;
1221.9000;0.0700;-0.7435;
1222.2000;0.0659;-0.7634;
1222.5000;0.0700;-0.7590;
1222.8000;0.0741;-0.7457;
1223.1000;0.0724;-0.7435;
1223.4000;0.0733;-0.7457;
1223.7000;0.0724;-0.7391;
1224.0000;0.0733;-0.7369;
1224.3000;0.0708;-0.7391;
1224.6000;0.0716;-0.7369;
1224.9000;0.0733;-0.7391;
1225.2000;0.0749;-0.7347;
1225.5000;0.0708;-0.7524;
1225.8000;0.0708;-0.7479;
1226.1000;0.0692;-0.7413;
1226.4000;0.0700;-0.7457;
1226.7000;0.0741;-0.7347;
1227.0000;0.0716;-0.7347;
1227.3000;0.0733;-0.7302;
1227.6000;0.0741;-0.7258;
1227.9000;0.0627;-0.7612;
1228.2000;0.0724;-0.7391;
1228.5000;0.0733;-0.7413;
1228.8000;0.0733;-0.7501;
1229.1000;0.0724;-0.7457;
1229.4000;0.0733;-0.7369;
1229.7000;0.0838;-0.7059;
1230.0000;0.0716;-0.7347;
1230.3000;0.0822;-0.7125;
1230.6000;0.0700;-0.7369;
1230.9000;0.0708;-0.7258;
1231.2000;0.0692;-0.7324;
1231.5000;0.0733;-0.7347;
1231.8000;0.0724;-0.7347;
1232.1000;0.0716;-0.7479;
1232.4000;0.0781;-0.7435;
1232.7000;0.0733;-0.7568;
1233.0000;0.0733;-0.7612;
1233.3000;0.0724;-0.7590;
1233.6000;0.0716;-0.7590;
1233.9000;0.0651;-0.7723;
1234.2000;0.0741;-0.7524;
1234.5000;0.0708;-0.7546;
1234.8000;0.0692;-0.7546;
1235.1000;0.0716;-0.7479;
1235.4000;0.0708;-0.7524;
1235.7000;0.0724;-0.7524;
1236.0000;0.0806;-0.7258;
1236.3000;0.0700;-0.7435;
1236.6000;0.0708;-0.7369;
1236.9000;0.0700;-0.7280;
1237.2000;0.0708;-0.7236;
1237.5000;0.0716;-0.7214;
1237.8000;0.0708;-0.7280;
1238.1000;0.0651;-0.7347;
1238.4000;0.0716;-0.7347;
1238.7000;0.0733;-0.7369;
1239.0000;0.0822;-0.7103;
1239.3000;0.0757;-0.7258;
1239.6000;0.0700;-0.7324;
1239.9000;0.0790;-0.7081;
1240.2000;0.0692;-0.7369;
1240.5000;0.0708;-0.7236;
1240.8000;0.0692;-0.7347;
1241.1000;0.0692;-0.7369;
1241.4000;0.0733;-0.7302;
1241.7000;0.0708;-0.7435;
1242.0000;0.0692;-0.7501;
1242.3000;0.0700;-0.7479;
1242.6000;0.0716;-0.7413;
1242.9000;0.0716;-0.7347;
1243.2000;0.0627;-0.7612;
1243.5000;0.0708;-0.7435;
1243.8000;0.0741;-0.7391;
1244.1000;0.0716;-0.7501;
1244.4000;0.0733;-0.7369;
1244.7000;0.0749;-0.7324;
1245.0000;0.0692;-0.7479;
1245.3000;0.0741;-0.7347;
1245.6000;0.0724;-0.7413;
1245.9000;0.0724;-0.7369;
1246.2000;0.0635;-0.7568;
1246.5000;0.0708;-0.7501;
1246.8000;0.0749;-0.7391;
1247.1000;0.0741;-0.7413;
1247.4000;0.0684;-0.7590;
1247.7000;0.0741;-0.7413;
1248.0000;0.0724;-0.7391;
1248.3000;0.0700;-0.7413;
1248.6000;0.0708;-0.7369;
1248.9000;0.0676;-0.7457;
1249.2000;0.0700;-0.7302;
1249.5000;0.0692;-0.7391;
1249.8000;0.0586;-0.7678;
1250.1000;0.0684;-0.7391;
1250.4000;0.0741;-0.7236;
1250.7000;0.0790;-0.7236;
1251.0000;0.0724;-0.7391;
1251.3000;0.0700;-0.7457;
1251.6000;0.0651;-0.7568;
1251.9000;0.0716;-0.7391;
1252.2000;0.0635;-0.7546;
1252.5000;0.0692;-0.7413;
1252.8000;0.0659;-0.7524;
1253.1000;0.0700;-0.7457;
1253.4000;0.0749;-0.7347;
1253.7000;0.0708;-0.7457;
1254.0000;0.0806;-0.7214;
1254.3000;0.0659;-0.7524;
1254.6000;0.0716;-0.7479;
1254.9000;0.0724;-0.7391;
1255.2000;0.0700;-0.7435;
1255.5000;0.0733;-0.7369;
1255.8000;0.0749;-0.7391;
1256.1000;0.0708;-0.7435;
1256.4000;0.0716;-0.7479;
1256.7000;0.0716;-0.7546;
1257.0000;0.0716;-0.7524;
1257.3000;0.0757;-0.7413;
1257.6000;0.0716;-0.7612;
1257.9000;0.0700;-0.7634;
1258.2000;0.0733;-0.7524;
1258.5000;0.0708;-0.7501;
1258.8000;0.0708;-0.7501;
1259.1000;0.0724;-0.7524;
1259.4000;0.0741;-0.7524;
1259.7000;0.0733;-0.7546;
1260.0000;0.0724;-0.7435;
1260.3000;0.0684;-0.7479;
1260.6000;0.0708;-0.7391;
1260.9000;0.0684;-0.7524;
1261.2000;0.0586;-0.7745;
1261.5000;0.0700;-0.7479;
1261.8000;0.0716;-0.7524;
1262.1000;0.0716;-0.7413;
1262.4000;0.0724;-0.7324;
1262.7000;0.0724;-0.7391;
1263.0000;0.0708;-0.7413;
1263.3000;0.0733;-0.7391;
1263.6000;0.0724;-0.7413;
1263.9000;0.0651;-0.7590;
1264.2000;0.0643;-0.7634;
1264.5000;0.0716;-0.7524;
1264.8000;0.0724;-0.7501;
1265.1000;0.0765;-0.7391;
1265.4000;0.0749;-0.7479;
1265.7000;0.0716;-0.7479;
1266.0000;0.0733;-0.7302;
1266.3000;0.0716;-0.7236;
1266.6000;0.0676;-0.7435;
1266.9000;0.0716;-0.7501;
1267.2000;0.0733;-0.7546;
1267.5000;0.0716;-0.7524;
1267.8000;0.0716;-0.7546;
1268.1000;0.0724;-0.7524;
1268.4000;0.0708;-0.7568;
1268.7000;0.0716;-0.7568;
1269.0000;0.0733;-0.7413;
1269.3000;0.0716;-0.7413;
1269.6000;0.0724;-0.7479;
1269.9000;0.0716;-0.7479;
1270.2000;0.0692;-0.7501;
1270.5000;0.0724;-0.7391;
1270.8000;0.0724;-0.7479;
1271.1000;0.0708;-0.7612;
1271.4000;0.0700;-0.7612;
1271.7000;0.0741;-0.7546;
1272.0000;0.0716;-0.7524;
1272.3000;0.0676;-0.7546;
1272.6000;0.0692;-0.7568;
1272.9000;0.0708;-0.7590;
1273.2000;0.0773;-0.7391;
1273.5000;0.0724;-0.7457;
1273.8000;0.0716;-0.7457;
1274.1000;0.0708;-0.7568;
1274.4000;0.0708;-0.7501;
1274.7000;0.0724;-0.7369;
1275.0000;0.0684;-0.7457;
1275.3000;0.0716;-0.7302;
1275.6000;0.0708;-0.7258;
1275.9000;0.0708;-0.7258;
1276.2000;0.0741;-0.7302;
1276.5000;0.0733;-0.7302;
1276.8000;0.0806;-0.7059;
1277.1000;0.0781;-0.7081;
1277.4000;0.0724;-0.7236;
1277.7000;0.0708;-0.7324;
1278.0000;0.0749;-0.7302;
1278.3000;0.0741;-0.7324;
1278.6000;0.0724;-0.7391;
1278.9000;0.0724;-0.7391;
1279.2000;0.0741;-0.7413;
1279.5000;0.0708;-0.7435;
1279.8000;0.0733;-0.7347;
1280.1000;0.0724;-0.7347;
1280.4000;0.0724;-0.7258;
1280.7000;0.0724;-0.7214;
1281.0000;0.0708;-0.7280;
1281.3000;0.0757;-0.7258;
1281.6000;0.0708;-0.7347;
1281.9000;0.0708;-0.7280;
1282.2000;0.0700;-0.7258;
1282.5000;0.0724;-0.7347;
1282.8000;0.0716;-0.7501;
1283.1000;0.0708;-0.7457;
1283.4000;0.0741;-0.7435;
1283.7000;0.0733;-0.7546;
1284.0000;0.0716;-0.7634;
1284.3000;0.0724;-0.7568;
1284.6000;0.0708;-0.7568;
1284.9000;0.0708;-0.7546;
1285.2000;0.0798;-0.7302;
1285.5000;0.0708;-0.7568;
1285.8000;0.0684;-0.7524;
1286.1000;0.0749;-0.7391;
1286.4000;0.0724;-0.7280;
1286.7000;0.0700;-0.7347;
1287.0000;0.0692;-0.7280;
1287.3000;0.0716;-0.7258;
1287.6000;0.0708;-0.7280;
1287.9000;0.0716;-0.7214;
1288.2000;0.0724;-0.7236;
1288.5000;0.0700;-0.7280;
1288.8000;0.0716;-0.7214;
1289.1000;0.0724;-0.7214;
1289.4000;0.0708;-0.7258;
1289.7000;0.0700;-0.7369;
1290.0000;0.0708;-0.7302;
1290.3000;0.0724;-0.7280;
1290.6000;0.0692;-0.7391;
1290.9000;0.0708;-0.7347;
1291.2000;0.0741;-0.7347;
1291.5000;0.0716;-0.7413;
1291.8000;0.0716;-0.7413;
1292.1000;0.0708;-0.7435;
1292.4000;0.0912;-0.6838;
1292.7000;0.0724;-0.7280;
1293.0000;0.0700;-0.7302;
1293.3000;0.0773;-0.7125;
1293.6000;0.0708;-0.7280;
1293.9000;0.0716;-0.7413;
1294.2000;0.0708;-0.7501;
1294.5000;0.0692;-0.7479;
1294.8000;0.0708;-0.7479;
1295.1000;0.0716;-0.7435;
1295.4000;0.0692;-0.7501;
1295.7000;0.0708;-0.7479;
1296.0000;0.0708;-0.7524;
1296.3000;0.0790;-0.7302;
1296.6000;0.0692;-0.7546;
1296.9000;0.0659;-0.7634;
1297.2000;0.0700;-0.7590;
1297.5000;0.0700;-0.7590;
1297.8000;0.0724;-0.7479;
1298.1000;0.0676;-0.7546;
1298.4000;0.0724;-0.7457;
1298.7000;0.0749;-0.7302;
1299.0000;0.0594;-0.7701;
1299.3000;0.0814;-0.7280;
1299.6000;0.0708;-0.7590;
1299.9000;0.0659;-0.7701;
1300.2000;0.0757;-0.7369;
1300.5000;0.0643;-0.7612;
1300.8000;0.0716;-0.7457;
1301.1000;0.0798;-0.7170;
1301.4000;0.0724;-0.7391;
1301.7000;0.0708;-0.7413;
1302.0000;0.0700;-0.7369;
1302.3000;0.0708;-0.7280;
1302.6000;0.0708;-0.7302;
1302.9000;0.0692;-0.7258;
1303.2000;0.0684;-0.7236;
1303.5000;0.0708;-0.7192;
1303.8000;0.0733;-0.7280;
1304.1000;0.0773;-0.7192;
1304.4000;0.0724;-0.7258;
1304.7000;0.0724;-0.7302;
1305.0000;0.0716;-0.7391;
1305.3000;0.0684;-0.7347;
1305.6000;0.0716;-0.7258;
1305.9000;0.0716;-0.7258;
1306.2000;0.0627;-0.7457;
1306.5000;0.0700;-0.7413;
1306.8000;0.0708;-0.7280;
1307.1000;0.0708;-0.7258;
1307.4000;0.0700;-0.7258;
1307.7000;0.0733;-0.7192;
1308.0000;0.0700;-0.7302;
1308.3000;0.0667;-0.7391;
1308.6000;0.0724;-0.7302;
1308.9000;0.0733;-0.7280;
1309.2000;0.0700;-0.7391;
1309.5000;0.0700;-0.7347;
1309.8000;0.0716;-0.7236;
1310.1000;0.0700;-0.7258;
1310.4000;0.0716;-0.7236;
1310.7000;0.0708;-0.7258;
1311.0000;0.0708;-0.7236;
1311.3000;0.0684;-0.7347;
1311.6000;0.0700;-0.7324;
1311.9000;0.0708;-0.7369;
1312.2000;0.0651;-0.7568;
1312.5000;0.0716;-0.7391;
1312.8000;0.0733;-0.7369;
1313.1000;0.0716;-0.7302;
1313.4000;0.0708;-0.7324;
1313.7000;0.0716;-0.7391;
1314.0000;0.0708;-0.7324;
1314.3000;0.0733;-0.7347;
1314.6000;0.0741;-0.7302;
1314.9000;0.0716;-0.7347;
1315.2000;0.0700;-0.7302;
1315.5000;0.0700;-0.7258;
1315.8000;0.0724;-0.7258;
1316.1000;0.0692;-0.7280;
1316.4000;0.0773;-0.7081;
1316.7000;0.0724;-0.7214;
1317.0000;0.0676;-0.7369;
1317.3000;0.0692;-0.7302;
1317.6000;0.0708;-0.7236;
1317.9000;0.0773;-0.7103;
1318.2000;0.0651;-0.7324;
1318.5000;0.0724;-0.7214;
1318.8000;0.0708;-0.7280;
1319.1000;0.0643;-0.7568;
1319.4000;0.0708;-0.7413;
1319.7000;0.0716;-0.7457;
1320.0000;0.0586;-0.7701;
1320.3000;0.0733;-0.7347;
1320.6000;0.0733;-0.7258;
1320.9000;0.0733;-0.7324;
1321.2000;0.0676;-0.7524;
1321.5000;0.0790;-0.7302;
1321.8000;0.0708;-0.7457;
1322.1000;0.0700;-0.7501;
1322.4000;0.0708;-0.7524;
1322.7000;0.0708;-0.7546;
1323.0000;0.0692;-0.7524;
1323.3000;0.0708;-0.7501;
1323.6000;0.0724;-0.7391;
1323.9000;0.0651;-0.7546;
1324.2000;0.0708;-0.7457;
1324.5000;0.0773;-0.7258;
1324.8000;0.0716;-0.7347;
1325.1000;0.0773;-0.7236;
1325.4000;0.0724;-0.7369;
1325.7000;0.0716;-0.7391;
1326.0000;0.0781;-0.7170;
1326.3000;0.0716;-0.7391;
1326.6000;0.0716;-0.7369;
1326.9000;0.0659;-0.7457;
1327.2000;0.0724;-0.7170;
1327.5000;0.0716;-0.7302;
1327.8000;0.0716;-0.7347;
1328.1000;0.0716;-0.7302;
1328.4000;0.0724;-0.7302;
1328.7000;0.0700;-0.7391;
1329.0000;0.0716;-0.7369;
1329.3000;0.0724;-0.7479;
1329.6000;0.0733;-0.7524;
1329.9000;0.0708;-0.7612;
1330.2000;0.0700;-0.7634;
1330.5000;0.0708;-0.7546;
1330.8000;0.0700;-0.7524;
1331.1000;0.0757;-0.7369;
1331.4000;0.0692;-0.7501;
1331.7000;0.0716;-0.7457;
1332.0000;0.0700;-0.7524;
1332.3000;0.0692;-0.7524;
1332.6000;0.0700;-0.7568;
1332.9000;0.0733;-0.7524;
1333.2000;0.0741;-0.7524;
1333.5000;0.0708;-0.7634;
1333.8000;0.0700;-0.7701;
1334.1000;0.0733;-0.7656;
1334.4000;0.0724;-0.7723;
1334.7000;0.0716;-0.7701;
1335.0000;0.0700;-0.7745;
1335.3000;0.0708;-0.7678;
1335.6000;0.0716;-0.7701;
1335.9000;0.0684;-0.7701;
1336.2000;0.0676;-0.7701;
1336.5000;0.0700;-0.7634;
1336.8000;0.0741;-0.7524;
1337.1000;0.0724;-0.7501;
1337.4000;0.0716;-0.7568;
1337.7000;0.0700;-0.7678;
1338.0000;0.0716;-0.7678;
1338.3000;0.0724;-0.7612;
1338.6000;0.0733;-0.7634;
1338.9000;0.0708;-0.7590;
1339.2000;0.0700;-0.7546;
1339.5000;0.0724;-0.7479;
1339.8000;0.0716;-0.7413;
1340.1000;0.0724;-0.7457;
1340.4000;0.0749;-0.7435;
1340.7000;0.0635;-0.7767;
1341.0000;0.0667;-0.7678;
1341.3000;0.0741;-0.7435;
1341.6000;0.0684;-0.7457;
1341.9000;0.0667;-0.7435;
1342.2000;0.0716;-0.7302;
1342.5000;0.0676;-0.7369;
1342.8000;0.0692;-0.7347;
1343.1000;0.0814;-0.6992;
1343.4000;0.0684;-0.7302;
1343.7000;0.0708;-0.7236;
1344.0000;0.0716;-0.7236;
1344.3000;0.0716;-0.7324;
1344.6000;0.0700;-0.7347;
1344.9000;0.0676;-0.7413;
1345.2000;0.0554;-0.7612;
1345.5000;0.0781;-0.7081;
1345.8000;0.0708;-0.7324;
1346.1000;0.0578;-0.7612;
1346.4000;0.0724;-0.7302;
1346.7000;0.0684;-0.7435;
1347.0000;0.0716;-0.7347;
1347.3000;0.0733;-0.7391;
1347.6000;0.0765;-0.7302;
1347.9000;0.0798;-0.7192;
1348.2000;0.0700;-0.7479;
1348.5000;0.0716;-0.7391;
1348.8000;0.0651;-0.7546;
1349.1000;0.0724;-0.7435;
1349.4000;0.0733;-0.7391;
1349.7000;0.0708;-0.7347;
1350.0000;0.0684;-0.7369;
1350.3000;0.0724;-0.7236;
1350.6000;0.0733;-0.7280;
1350.9000;0.0863;-0.6992;
1351.2000;0.0692;-0.7324;
1351.5000;0.0684;-0.7324;
1351.8000;0.0708;-0.7258;
1352.1000;0.0684;-0.7347;
1352.4000;0.0716;-0.7258;
1352.7000;0.0716;-0.7280;
1353.0000;0.0716;-0.7280;
1353.3000;0.0700;-0.7280;
1353.6000;0.0733;-0.7236;
1353.9000;0.0708;-0.7302;
1354.2000;0.0700;-0.7324;
1354.5000;0.0733;-0.7258;
1354.8000;0.0716;-0.7258;
1355.1000;0.0700;-0.7302;
1355.4000;0.0700;-0.7324;
1355.7000;0.0708;-0.7258;
1356.0000;0.0700;-0.7324;
1356.3000;0.0651;-0.7413;
1356.6000;0.0700;-0.7258;
1356.9000;0.0684;-0.7347;
1357.2000;0.0684;-0.7302;
1357.5000;0.0684;-0.7258;
1357.8000;0.0708;-0.7192;
1358.1000;0.0716;-0.7170;
1358.4000;0.0716;-0.7280;
1358.7000;0.0724;-0.7258;
1359.0000;0.0757;-0.7147;
1359.3000;0.0684;-0.7302;
1359.6000;0.0724;-0.7280;
1359.9000;0.0733;-0.7347;
1360.2000;0.0757;-0.7192;
1360.5000;0.0700;-0.7258;
1360.8000;0.0692;-0.7347;
1361.1000;0.0692;-0.7413;
1361.4000;0.0724;-0.7280;
1361.7000;0.0773;-0.7214;
1362.0000;0.0708;-0.7236;
1362.3000;0.0757;-0.7125;
1362.6000;0.0684;-0.7280;
1362.9000;0.0716;-0.7125;
1363.2000;0.0733;-0.7147;
1363.5000;0.0798;-0.7037;
1363.8000;0.0716;-0.7147;
1364.1000;0.0757;-0.7059;
1364.4000;0.0651;-0.7302;
1364.7000;0.0741;-0.7170;
1365.0000;0.0733;-0.7236;
1365.3000;0.0708;-0.7302;
1365.6000;0.0708;-0.7324;
1365.9000;0.0765;-0.7147;
1366.2000;0.0684;-0.7413;
1366.5000;0.0684;-0.7435;
1366.8000;0.0700;-0.7391;
1367.1000;0.0741;-0.7236;
1367.4000;0.0773;-0.7147;
1367.7000;0.0765;-0.7258;
1368.0000;0.0676;-0.7524;
1368.3000;0.0684;-0.7590;
1368.6000;0.0708;-0.7479;
1368.9000;0.0724;-0.7479;
1369.2000;0.0708;-0.7501;
1369.5000;0.0724;-0.7479;
1369.8000;0.0692;-0.7546;
1370.1000;0.0741;-0.7457;
1370.4000;0.0741;-0.7324;
1370.7000;0.0830;-0.7147;
1371.0000;0.0757;-0.7236;
1371.3000;0.0724;-0.7214;
1371.6000;0.0724;-0.7214;
1371.9000;0.0798;-0.7103;
1372.2000;0.0708;-0.7302;
1372.5000;0.0651;-0.7413;
1372.8000;0.0741;-0.7192;
1373.1000;0.0700;-0.7258;
1373.4000;0.0700;-0.7324;
1373.7000;0.0724;-0.7280;
1374.0000;0.0708;-0.7302;
1374.3000;0.0676;-0.7391;
1374.6000;0.0700;-0.7369;
1374.9000;0.0724;-0.7258;
1375.2000;0.0724;-0.7192;
1375.5000;0.0724;-0.7192;
1375.8000;0.0708;-0.7214;
1376.1000;0.0716;-0.7125;
1376.4000;0.0757;-0.7192;
1376.7000;0.0733;-0.7214;
1377.0000;0.0700;-0.7192;
1377.3000;0.0692;-0.7236;
1377.6000;0.0716;-0.7192;
1377.9000;0.0659;-0.7324;
1378.2000;0.0724;-0.7192;
1378.5000;0.0692;-0.7214;
1378.8000;0.0716;-0.7236;
1379.1000;0.0733;-0.7147;
1379.4000;0.0708;-0.7214;
1379.7000;0.0708;-0.7170;
1380.0000;0.0741;-0.7081;
1380.3000;0.0708;-0.7125;
1380.6000;0.0708;-0.7103;
1380.9000;0.0700;-0.7081;
1381.2000;0.0700;-0.7081;
1381.5000;0.0716;-0.7059;
1381.8000;0.0708;-0.7147;
1382.1000;0.0716;-0.7280;
1382.4000;0.0724;-0.7280;
1382.7000;0.0716;-0.7302;
1383.0000;0.0708;-0.7347;
1383.3000;0.0757;-0.7236;
1383.6000;0.0554;-0.7546;
1383.9000;0.0667;-0.7302;
1384.2000;0.0716;-0.7192;
1384.5000;0.0684;-0.7280;
1384.8000;0.0716;-0.7170;
1385.1000;0.0700;-0.7147;
1385.4000;0.0586;-0.7457;
1385.7000;0.0676;-0.7347;
1386.0000;0.0692;-0.7280;
1386.3000;0.0667;-0.7413;
1386.6000;0.0716;-0.7258;
1386.9000;0.0741;-0.7170;
1387.2000;0.0708;-0.7258;
1387.5000;0.0692;-0.7347;
1387.8000;0.0700;-0.7369;
1388.1000;0.0716;-0.7258;
1388.4000;0.0741;-0.7236;
1388.7000;0.0708;-0.7302;
1389.0000;0.0700;-0.7369;
1389.3000;0.0733;-0.7236;
1389.6000;0.0708;-0.7280;
1389.9000;0.0724;-0.7214;
1390.2000;0.0692;-0.7324;
1390.5000;0.0708;-0.7324;
1390.8000;0.0716;-0.7258;
1391.1000;0.0708;-0.7302;
1391.4000;0.0716;-0.7302;
1391.7000;0.0602;-0.7479;
1392.0000;0.0692;-0.7369;
1392.3000;0.0676;-0.7457;
1392.6000;0.0716;-0.7369;
1392.9000;0.0733;-0.7302;
1393.2000;0.0757;-0.7258;
1393.5000;0.0700;-0.7369;
1393.8000;0.0692;-0.7347;
1394.1000;0.0708;-0.7347;
1394.4000;0.0667;-0.7347;
1394.7000;0.0708;-0.7214;
1395.0000;0.0724;-0.7170;
1395.3000;0.0692;-0.7214;
1395.6000;0.0700;-0.7147;
1395.9000;0.0773;-0.6926;
1396.2000;0.0716;-0.7081;
1396.5000;0.0651;-0.7347;
1396.8000;0.0773;-0.7081;
1397.1000;0.0708;-0.7324;
1397.4000;0.0684;-0.7413;
1397.7000;0.0716;-0.7258;
1398.0000;0.0741;-0.7214;
1398.3000;0.0684;-0.7258;
1398.6000;0.0716;-0.7236;
1398.9000;0.0692;-0.7214;
1399.2000;0.0757;-0.7037;
1399.5000;0.0716;-0.7125;
1399.8000;0.0724;-0.7103;
