time/ms;Fluo/V;P700 deltaI/I x10³;
-199.8000;0.0781;-0.7678;
-199.5000;0.0806;-0.7701;
-199.2000;0.0781;-0.7678;
-198.9000;0.0895;-0.7435;
-198.6000;0.0798;-0.7767;
-198.3000;0.0806;-0.7789;
-198.0000;0.0798;-0.7723;
-197.7000;0.0798;-0.7789;
-197.4000;0.0814;-0.7701;
-197.1000;0.0814;-0.7745;
-196.8000;0.0830;-0.7701;
-196.5000;0.0879;-0.7568;
-196.2000;0.0781;-0.7767;
-195.9000;0.0781;-0.7701;
-195.6000;0.0790;-0.7612;
-195.3000;0.0822;-0.7568;
-195.0000;0.0806;-0.7612;
-194.7000;0.0806;-0.7634;
-194.4000;0.0741;-0.7767;
-194.1000;0.0790;-0.7634;
-193.8000;0.0830;-0.7546;
-193.5000;0.0830;-0.7524;
-193.2000;0.0855;-0.7457;
-192.9000;0.0790;-0.7612;
-192.6000;0.0806;-0.7612;
-192.3000;0.0830;-0.7479;
-192.0000;0.0830;-0.7524;
-191.7000;0.0822;-0.7546;
-191.4000;0.0806;-0.7546;
-191.1000;0.0806;-0.7501;
-190.8000;0.0806;-0.7457;
-190.5000;0.0798;-0.7501;
-190.2000;0.0781;-0.7479;
-189.9000;0.0798;-0.7435;
-189.6000;0.0830;-0.7479;
-189.3000;0.0838;-0.7590;
-189.0000;0.0806;-0.7634;
-188.7000;0.0798;-0.7701;
-188.4000;0.0708;-0.7922;
-188.1000;0.0806;-0.7634;
-187.8000;0.0814;-0.7590;
-187.5000;0.0781;-0.7590;
-187.2000;0.0781;-0.7501;
-186.9000;0.0765;-0.7524;
-186.6000;0.0781;-0.7524;
-186.3000;0.0814;-0.7369;
-186.0000;0.0798;-0.7457;
-185.7000;0.0806;-0.7369;
-185.4000;0.0806;-0.7347;
-185.1000;0.0781;-0.7612;
-184.8000;0.0814;-0.7612;
-184.5000;0.0814;-0.7634;
-184.2000;0.0855;-0.7568;
-183.9000;0.0773;-0.7723;
-183.6000;0.0822;-0.7634;
-183.3000;0.0798;-0.7634;
-183.0000;0.0830;-0.7590;
-182.7000;0.0781;-0.7745;
-182.4000;0.0798;-0.7745;
-182.1000;0.0822;-0.7723;
-181.8000;0.0798;-0.7767;
-181.5000;0.0814;-0.7656;
-181.2000;0.0781;-0.7745;
-180.9000;0.0806;-0.7745;
-180.6000;0.0814;-0.7723;
-180.3000;0.0773;-0.7789;
-180.0000;0.0741;-0.7966;
-179.7000;0.0773;-0.7900;
-179.4000;0.0822;-0.7855;
-179.1000;0.0814;-0.7833;
-178.8000;0.0790;-0.7944;
-178.5000;0.0814;-0.8010;
-178.2000;0.0790;-0.7988;
-177.9000;0.0814;-0.7988;
-177.6000;0.0806;-0.7878;
-177.3000;0.0741;-0.7833;
-177.0000;0.0863;-0.7568;
-176.7000;0.0838;-0.7590;
-176.4000;0.0790;-0.7656;
-176.1000;0.0790;-0.7723;
-175.8000;0.0798;-0.7745;
-175.5000;0.0749;-0.7855;
-175.2000;0.0814;-0.7789;
-174.9000;0.0757;-0.7922;
-174.6000;0.0781;-0.7833;
-174.3000;0.0716;-0.8010;
-174.0000;0.0822;-0.7745;
-173.7000;0.0806;-0.7767;
-173.4000;0.0773;-0.7833;
-173.1000;0.0814;-0.7678;
-172.8000;0.0830;-0.7634;
-172.5000;0.0733;-0.7878;
-172.2000;0.0830;-0.7612;
-171.9000;0.0790;-0.7701;
-171.6000;0.0749;-0.7723;
-171.3000;0.0798;-0.7701;
-171.0000;0.0790;-0.7833;
-170.7000;0.0586;-0.8409;
-170.4000;0.0806;-0.7878;
-170.1000;0.0814;-0.7767;
-169.8000;0.0781;-0.7855;
-169.5000;0.0773;-0.7878;
-169.2000;0.0749;-0.7855;
-168.9000;0.0806;-0.7701;
-168.6000;0.0790;-0.7701;
-168.3000;0.0806;-0.7678;
-168.0000;0.0790;-0.7745;
-167.7000;0.0895;-0.7634;
-167.4000;0.0790;-0.7833;
-167.1000;0.0757;-0.7900;
-166.8000;0.0855;-0.7701;
-166.5000;0.0838;-0.7723;
-166.2000;0.0773;-0.7811;
-165.9000;0.0798;-0.7789;
-165.6000;0.0806;-0.7701;
-165.3000;0.0822;-0.7678;
-165.0000;0.0798;-0.7767;
-164.7000;0.0830;-0.7767;
-164.4000;0.0798;-0.7878;
-164.1000;0.0781;-0.7944;
-163.8000;0.0814;-0.7789;
-163.5000;0.0790;-0.7789;
-163.2000;0.0790;-0.7789;
-162.9000;0.0814;-0.7789;
-162.6000;0.0814;-0.7767;
-162.3000;0.0798;-0.7789;
-162.0000;0.0781;-0.7767;
-161.7000;0.0798;-0.7723;
-161.4000;0.0716;-0.7944;
-161.1000;0.0790;-0.7811;
-160.8000;0.0806;-0.7767;
-160.5000;0.0757;-0.7878;
-160.2000;0.0790;-0.7789;
-159.9000;0.0798;-0.7855;
-159.6000;0.0790;-0.7878;
-159.3000;0.0814;-0.7811;
-159.0000;0.0847;-0.7745;
-158.7000;0.0814;-0.7878;
-158.4000;0.0830;-0.7833;
-158.1000;0.0822;-0.7855;
-157.8000;0.0806;-0.7878;
-157.5000;0.0798;-0.7811;
-157.2000;0.0798;-0.7878;
-156.9000;0.0806;-0.7855;
-156.6000;0.0716;-0.8055;
-156.3000;0.0798;-0.7855;
-156.0000;0.0790;-0.7944;
-155.7000;0.0871;-0.7745;
-155.4000;0.0790;-0.7878;
-155.1000;0.0838;-0.7767;
-154.8000;0.0887;-0.7678;
-154.5000;0.0781;-0.7833;
-154.2000;0.0814;-0.7811;
-153.9000;0.0838;-0.7701;
-153.6000;0.0790;-0.7767;
-153.3000;0.0733;-0.7944;
-153.0000;0.0806;-0.7723;
-152.7000;0.0773;-0.7811;
-152.4000;0.0830;-0.7701;
-152.1000;0.0724;-0.7966;
-151.8000;0.0790;-0.7745;
-151.5000;0.0790;-0.7833;
-151.2000;0.0806;-0.7789;
-150.9000;0.0781;-0.7878;
-150.6000;0.0773;-0.7878;
-150.3000;0.0879;-0.7612;
-150.0000;0.0781;-0.7811;
-149.7000;0.0790;-0.7767;
-149.4000;0.0773;-0.7767;
-149.1000;0.0798;-0.7701;
-148.8000;0.0944;-0.7391;
-148.5000;0.0847;-0.7656;
-148.2000;0.0806;-0.7833;
-147.9000;0.0822;-0.7789;
-147.6000;0.0741;-0.7922;
-147.3000;0.0806;-0.7767;
-147.0000;0.0790;-0.7789;
-146.7000;0.0790;-0.7789;
-146.4000;0.0781;-0.7745;
-146.1000;0.0871;-0.7457;
-145.8000;0.0822;-0.7590;
-145.5000;0.0781;-0.7701;
-145.2000;0.0798;-0.7678;
-144.9000;0.0814;-0.7678;
-144.6000;0.0790;-0.7701;
-144.3000;0.0798;-0.7656;
-144.0000;0.0749;-0.7745;
-143.7000;0.0806;-0.7634;
-143.4000;0.0806;-0.7678;
-143.1000;0.0765;-0.7678;
-142.8000;0.0749;-0.7656;
-142.5000;0.0790;-0.7612;
-142.2000;0.0847;-0.7612;
-141.9000;0.0806;-0.7723;
-141.6000;0.0790;-0.7701;
-141.3000;0.0838;-0.7634;
-141.0000;0.0790;-0.7634;
-140.7000;0.0798;-0.7568;
-140.4000;0.0773;-0.7656;
-140.1000;0.0773;-0.7656;
-139.8000;0.0798;-0.7568;
-139.5000;0.0781;-0.7590;
-139.2000;0.0806;-0.7678;
-138.9000;0.0871;-0.7546;
-138.6000;0.0822;-0.7590;
-138.3000;0.0806;-0.7590;
-138.0000;0.0798;-0.7524;
-137.7000;0.0798;-0.7590;
-137.4000;0.0814;-0.7656;
-137.1000;0.0838;-0.7678;
-136.8000;0.0790;-0.7811;
-136.5000;0.0838;-0.7701;
-136.2000;0.0822;-0.7656;
-135.9000;0.0830;-0.7590;
-135.6000;0.0814;-0.7701;
-135.3000;0.0806;-0.7745;
-135.0000;0.0806;-0.7678;
-134.7000;0.0781;-0.7678;
-134.4000;0.0790;-0.7701;
-134.1000;0.0798;-0.7723;
-133.8000;0.0822;-0.7678;
-133.5000;0.0830;-0.7701;
-133.2000;0.0830;-0.7745;
-132.9000;0.0814;-0.7745;
-132.6000;0.0790;-0.7723;
-132.3000;0.0790;-0.7701;
-132.0000;0.0838;-0.7634;
-131.7000;0.0765;-0.7878;
-131.4000;0.0749;-0.7922;
-131.1000;0.0790;-0.7811;
-130.8000;0.0798;-0.7723;
-130.5000;0.0887;-0.7524;
-130.2000;0.0806;-0.7634;
-129.9000;0.0798;-0.7634;
-129.6000;0.0781;-0.7612;
-129.3000;0.0798;-0.7612;
-129.0000;0.0798;-0.7612;
-128.7000;0.0798;-0.7678;
-128.4000;0.0814;-0.7723;
-128.1000;0.0822;-0.7745;
-127.8000;0.0798;-0.7833;
-127.5000;0.0830;-0.7745;
-127.2000;0.0814;-0.7723;
-126.9000;0.0806;-0.7745;
-126.6000;0.0790;-0.7789;
-126.3000;0.0814;-0.7723;
-126.0000;0.0773;-0.7789;
-125.7000;0.0798;-0.7723;
-125.4000;0.0798;-0.7767;
-125.1000;0.0781;-0.7811;
-124.8000;0.0830;-0.7833;
-124.5000;0.0838;-0.7855;
-124.2000;0.0798;-0.7966;
-123.9000;0.0798;-0.7966;
-123.6000;0.0830;-0.7878;
-123.3000;0.0830;-0.7855;
-123.0000;0.0806;-0.7789;
-122.7000;0.0904;-0.7568;
-122.4000;0.0830;-0.7678;
-122.1000;0.0814;-0.7701;
-121.8000;0.0814;-0.7723;
-121.5000;0.0790;-0.7678;
-121.2000;0.0798;-0.7723;
-120.9000;0.0798;-0.7678;
-120.6000;0.0798;-0.7634;
-120.3000;0.0781;-0.7634;
-120.0000;0.0798;-0.7612;
-119.7000;0.0814;-0.7590;
-119.4000;0.0806;-0.7678;
-119.1000;0.0806;-0.7701;
-118.8000;0.0790;-0.7656;
-118.5000;0.0798;-0.7701;
-118.2000;0.0708;-0.7966;
-117.9000;0.0830;-0.7590;
-117.6000;0.0773;-0.7612;
-117.3000;0.0757;-0.7678;
-117.0000;0.0806;-0.7568;
-116.7000;0.0790;-0.7656;
-116.4000;0.0847;-0.7612;
-116.1000;0.0830;-0.7634;
-115.8000;0.0790;-0.7723;
-115.5000;0.0798;-0.7723;
-115.2000;0.0798;-0.7833;
-114.9000;0.0773;-0.7855;
-114.6000;0.0806;-0.7767;
-114.3000;0.0773;-0.7811;
-114.0000;0.0814;-0.7745;
-113.7000;0.0806;-0.7723;
-113.4000;0.0871;-0.7634;
-113.1000;0.0781;-0.7767;
-112.8000;0.0838;-0.7568;
-112.5000;0.0806;-0.7723;
-112.2000;0.0814;-0.7612;
-111.9000;0.0814;-0.7612;
-111.6000;0.0863;-0.7524;
-111.3000;0.0814;-0.7723;
-111.0000;0.0790;-0.7789;
-110.7000;0.0814;-0.7789;
-110.4000;0.0724;-0.7922;
-110.1000;0.0798;-0.7789;
-109.8000;0.0684;-0.8077;
-109.5000;0.0814;-0.7745;
-109.2000;0.0806;-0.7811;
-108.9000;0.0781;-0.7855;
-108.6000;0.0806;-0.7811;
-108.3000;0.0806;-0.7789;
-108.0000;0.0814;-0.7789;
-107.7000;0.0895;-0.7546;
-107.4000;0.0806;-0.7701;
-107.1000;0.0814;-0.7656;
-106.8000;0.0879;-0.7501;
-106.5000;0.0806;-0.7701;
-106.2000;0.0773;-0.7789;
-105.9000;0.0781;-0.7678;
-105.6000;0.0806;-0.7656;
-105.3000;0.0822;-0.7634;
-105.0000;0.0806;-0.7634;
-104.7000;0.0806;-0.7590;
-104.4000;0.0806;-0.7568;
-104.1000;0.0781;-0.7568;
-103.8000;0.0781;-0.7524;
-103.5000;0.0757;-0.7568;
-103.2000;0.0781;-0.7501;
-102.9000;0.0814;-0.7457;
-102.6000;0.0863;-0.7280;
-102.3000;0.0790;-0.7413;
-102.0000;0.0838;-0.7280;
-101.7000;0.0822;-0.7413;
-101.4000;0.0814;-0.7413;
-101.1000;0.0790;-0.7590;
-100.8000;0.0790;-0.7590;
-100.5000;0.0822;-0.7524;
-100.2000;0.0806;-0.7590;
-99.9000;0.0806;-0.7634;
-99.6000;0.0814;-0.7656;
-99.3000;0.0806;-0.7612;
-99.0000;0.0814;-0.7524;
-98.7000;0.0806;-0.7678;
-98.4000;0.0806;-0.7612;
-98.1000;0.0806;-0.7634;
-97.8000;0.0814;-0.7678;
-97.5000;0.0798;-0.7745;
-97.2000;0.0781;-0.7811;
-96.9000;0.0790;-0.7767;
-96.6000;0.0847;-0.7590;
-96.3000;0.0814;-0.7656;
-96.0000;0.0814;-0.7590;
-95.7000;0.0798;-0.7678;
-95.4000;0.0822;-0.7546;
-95.1000;0.0806;-0.7590;
-94.8000;0.0806;-0.7656;
-94.5000;0.0790;-0.7678;
-94.2000;0.0733;-0.7811;
-93.9000;0.0806;-0.7656;
-93.6000;0.0806;-0.7634;
-93.3000;0.0863;-0.7524;
-93.0000;0.0790;-0.7612;
-92.7000;0.0830;-0.7501;
-92.4000;0.0863;-0.7435;
-92.1000;0.0798;-0.7634;
-91.8000;0.0806;-0.7568;
-91.5000;0.0814;-0.7590;
-91.2000;0.0798;-0.7634;
-90.9000;0.0781;-0.7656;
-90.6000;0.0838;-0.7568;
-90.3000;0.0814;-0.7634;
-90.0000;0.0814;-0.7634;
-89.7000;0.0757;-0.7678;
-89.4000;0.0806;-0.7501;
-89.1000;0.0814;-0.7479;
-88.8000;0.0806;-0.7568;
-88.5000;0.0733;-0.7678;
-88.2000;0.0798;-0.7568;
-87.9000;0.0806;-0.7479;
-87.6000;0.0814;-0.7369;
-87.3000;0.0822;-0.7369;
-87.0000;0.0814;-0.7457;
-86.7000;0.0790;-0.7501;
-86.4000;0.0838;-0.7413;
-86.1000;0.0790;-0.7590;
-85.8000;0.0781;-0.7612;
-85.5000;0.0887;-0.7347;
-85.2000;0.0822;-0.7546;
-84.9000;0.0733;-0.7701;
-84.6000;0.0895;-0.7391;
-84.3000;0.0814;-0.7568;
-84.0000;0.0798;-0.7634;
-83.7000;0.0798;-0.7612;
-83.4000;0.0806;-0.7546;
-83.1000;0.0757;-0.7678;
-82.8000;0.0749;-0.7656;
-82.5000;0.0822;-0.7546;
-82.2000;0.0733;-0.7789;
-81.9000;0.0781;-0.7546;
-81.6000;0.0806;-0.7479;
-81.3000;0.0904;-0.7280;
-81.0000;0.0806;-0.7590;
-80.7000;0.0765;-0.7656;
-80.4000;0.0806;-0.7678;
-80.1000;0.0944;-0.7391;
-79.8000;0.0806;-0.7723;
-79.5000;0.0952;-0.7391;
-79.2000;0.0790;-0.7833;
-78.9000;0.0749;-0.7900;
-78.6000;0.0806;-0.7833;
-78.3000;0.0798;-0.7855;
-78.0000;0.0667;-0.8055;
-77.7000;0.0887;-0.7546;
-77.4000;0.0830;-0.7634;
-77.1000;0.0855;-0.7590;
-76.8000;0.0814;-0.7678;
-76.5000;0.0830;-0.7745;
-76.2000;0.0822;-0.7723;
-75.9000;0.0806;-0.7789;
-75.6000;0.0871;-0.7612;
-75.3000;0.0790;-0.7723;
-75.0000;0.0863;-0.7501;
-74.7000;0.0838;-0.7501;
-74.4000;0.0798;-0.7656;
-74.1000;0.0814;-0.7590;
-73.8000;0.0822;-0.7479;
-73.5000;0.0814;-0.7524;
-73.2000;0.0822;-0.7546;
-72.9000;0.0798;-0.7546;
-72.6000;0.0814;-0.7524;
-72.3000;0.0814;-0.7501;
-72.0000;0.0814;-0.7546;
-71.7000;0.0790;-0.7568;
-71.4000;0.0952;-0.7059;
-71.1000;0.0790;-0.7479;
-70.8000;0.0814;-0.7391;
-70.5000;0.0798;-0.7435;
-70.2000;0.0871;-0.7280;
-69.9000;0.0790;-0.7457;
-69.6000;0.0798;-0.7457;
-69.3000;0.0806;-0.7391;
-69.0000;0.0806;-0.7413;
-68.7000;0.0765;-0.7546;
-68.4000;0.0798;-0.7524;
-68.1000;0.0806;-0.7479;
-67.8000;0.0814;-0.7479;
-67.5000;0.0814;-0.7501;
-67.2000;0.0895;-0.7324;
-66.9000;0.0822;-0.7524;
-66.6000;0.0838;-0.7501;
-66.3000;0.0798;-0.7568;
-66.0000;0.0814;-0.7590;
-65.7000;0.0757;-0.7767;
-65.4000;0.0749;-0.7745;
-65.1000;0.0806;-0.7524;
-64.8000;0.0733;-0.7656;
-64.5000;0.0790;-0.7479;
-64.2000;0.0790;-0.7501;
-63.9000;0.0790;-0.7568;
-63.6000;0.0806;-0.7501;
-63.3000;0.0798;-0.7568;
-63.0000;0.0798;-0.7568;
-62.7000;0.0822;-0.7479;
-62.4000;0.0806;-0.7568;
-62.1000;0.0790;-0.7656;
-61.8000;0.0895;-0.7413;
-61.5000;0.0806;-0.7590;
-61.2000;0.0773;-0.7634;
-60.9000;0.0814;-0.7634;
-60.6000;0.0773;-0.7656;
-60.3000;0.0757;-0.7723;
-60.0000;0.0781;-0.7656;
-59.7000;0.0814;-0.7568;
-59.4000;0.0790;-0.7568;
-59.1000;0.0814;-0.7546;
-58.8000;0.0814;-0.7479;
-58.5000;0.0798;-0.7590;
-58.2000;0.0814;-0.7568;
-57.9000;0.0814;-0.7501;
-57.6000;0.0838;-0.7457;
-57.3000;0.0781;-0.7524;
-57.0000;0.0847;-0.7258;
-56.7000;0.0790;-0.7435;
-56.4000;0.0822;-0.7347;
-56.1000;0.0895;-0.7214;
-55.8000;0.0822;-0.7347;
-55.5000;0.0781;-0.7413;
-55.2000;0.0765;-0.7590;
-54.9000;0.0798;-0.7634;
-54.6000;0.0822;-0.7524;
-54.3000;0.0798;-0.7656;
-54.0000;0.0806;-0.7723;
-53.7000;0.0798;-0.7701;
-53.4000;0.0798;-0.7678;
-53.1000;0.0790;-0.7701;
-52.8000;0.0781;-0.7767;
-52.5000;0.0798;-0.7811;
-52.2000;0.0806;-0.7767;
-51.9000;0.0847;-0.7723;
-51.6000;0.0724;-0.8055;
-51.3000;0.0790;-0.7878;
-51.0000;0.0798;-0.7811;
-50.7000;0.0765;-0.7833;
-50.4000;0.0814;-0.7701;
-50.1000;0.0798;-0.7678;
-49.8000;0.0798;-0.7656;
-49.5000;0.0814;-0.7656;
-49.2000;0.0806;-0.7678;
-48.9000;0.0790;-0.7678;
-48.6000;0.0806;-0.7723;
-48.3000;0.0838;-0.7656;
-48.0000;0.0806;-0.7656;
-47.7000;0.0790;-0.7656;
-47.4000;0.0798;-0.7612;
-47.1000;0.0830;-0.7546;
-46.8000;0.0838;-0.7612;
-46.5000;0.0830;-0.7546;
-46.2000;0.0667;-0.7878;
-45.9000;0.0781;-0.7678;
-45.6000;0.0830;-0.7524;
-45.3000;0.0798;-0.7634;
-45.0000;0.0814;-0.7568;
-44.7000;0.0773;-0.7656;
-44.4000;0.0838;-0.7457;
-44.1000;0.0830;-0.7413;
-43.8000;0.0806;-0.7413;
-43.5000;0.0781;-0.7479;
-43.2000;0.0790;-0.7457;
-42.9000;0.0790;-0.7590;
-42.6000;0.0822;-0.7590;
-42.3000;0.0830;-0.7457;
-42.0000;0.0773;-0.7590;
-41.7000;0.0904;-0.7302;
-41.4000;0.0790;-0.7634;
-41.1000;0.0830;-0.7479;
-40.8000;0.0676;-0.7811;
-40.5000;0.0716;-0.7590;
-40.2000;0.0830;-0.7369;
-39.9000;0.0790;-0.7501;
-39.6000;0.0822;-0.7369;
-39.3000;0.0790;-0.7413;
-39.0000;0.0757;-0.7501;
-38.7000;0.0814;-0.7457;
-38.4000;0.0830;-0.7457;
-38.1000;0.0814;-0.7479;
-37.8000;0.0814;-0.7479;
-37.5000;0.0806;-0.7457;
-37.2000;0.0822;-0.7524;
-36.9000;0.0798;-0.7656;
-36.6000;0.0806;-0.7568;
-36.3000;0.0798;-0.7524;
-36.0000;0.0741;-0.7701;
-35.7000;0.0773;-0.7612;
-35.4000;0.0822;-0.7546;
-35.1000;0.0863;-0.7413;
-34.8000;0.0798;-0.7479;
-34.5000;0.0814;-0.7413;
-34.2000;0.0871;-0.7347;
-33.9000;0.0798;-0.7568;
-33.6000;0.0798;-0.7524;
-33.3000;0.0814;-0.7524;
-33.0000;0.0814;-0.7479;
-32.7000;0.0798;-0.7546;
-32.4000;0.0781;-0.7590;
-32.1000;0.0814;-0.7457;
-31.8000;0.0790;-0.7524;
-31.5000;0.0814;-0.7435;
-31.2000;0.0806;-0.7479;
-30.9000;0.0798;-0.7457;
-30.6000;0.0830;-0.7391;
-30.3000;0.0830;-0.7524;
-30.0000;0.0700;-0.7833;
-29.7000;0.0765;-0.7656;
-29.4000;0.0790;-0.7546;
-29.1000;0.0798;-0.7501;
-28.8000;0.0790;-0.7568;
-28.5000;0.0806;-0.7568;
-28.2000;0.0822;-0.7568;
-27.9000;0.0814;-0.7546;
-27.6000;0.0790;-0.7568;
-27.3000;0.0773;-0.7656;
-27.0000;0.0806;-0.7678;
-26.7000;0.0830;-0.7678;
-26.4000;0.0806;-0.7701;
-26.1000;0.0798;-0.7701;
-25.8000;0.0814;-0.7678;
-25.5000;0.0798;-0.7678;
-25.2000;0.0765;-0.7612;
-24.9000;0.0822;-0.7457;
-24.6000;0.0781;-0.7524;
-24.3000;0.0749;-0.7612;
-24.0000;0.0814;-0.7413;
-23.7000;0.0757;-0.7590;
-23.4000;0.0798;-0.7546;
-23.1000;0.0822;-0.7391;
-22.8000;0.0838;-0.7391;
-22.5000;0.0814;-0.7391;
-22.2000;0.0757;-0.7524;
-21.9000;0.0895;-0.7192;
-21.6000;0.0806;-0.7435;
-21.3000;0.0798;-0.7457;
-21.0000;0.0781;-0.7546;
-20.7000;0.0822;-0.7369;
-20.4000;0.0733;-0.7524;
-20.1000;0.0806;-0.7435;
-19.8000;0.0733;-0.7634;
-19.5000;0.0773;-0.7479;
-19.2000;0.0806;-0.7369;
-18.9000;0.0798;-0.7391;
-18.6000;0.0773;-0.7413;
-18.3000;0.0806;-0.7369;
-18.0000;0.0814;-0.7435;
-17.7000;0.0798;-0.7479;
-17.4000;0.0806;-0.7457;
-17.1000;0.0806;-0.7457;
-16.8000;0.0798;-0.7413;
-16.5000;0.0806;-0.7501;
-16.2000;0.0814;-0.7457;
-15.9000;0.0822;-0.7435;
-15.6000;0.0814;-0.7457;
-15.3000;0.0741;-0.7656;
-15.0000;0.0806;-0.7457;
-14.7000;0.0790;-0.7457;
-14.4000;0.0757;-0.7568;
-14.1000;0.0822;-0.7413;
-13.8000;0.0781;-0.7479;
-13.5000;0.0814;-0.7347;
-13.2000;0.0798;-0.7391;
-12.9000;0.0806;-0.7391;
-12.6000;0.0806;-0.7479;
-12.3000;0.0806;-0.7435;
-12.0000;0.0806;-0.7324;
-11.7000;0.0822;-0.7413;
-11.4000;0.0798;-0.7435;
-11.1000;0.0912;-0.7170;
-10.8000;0.0790;-0.7457;
-10.5000;0.0798;-0.7501;
-10.2000;0.0855;-0.7302;
-9.9000;0.0619;-0.7878;
-9.6000;0.0790;-0.7435;
-9.3000;0.0798;-0.7546;
-9.0000;0.0806;-0.7612;
-8.7000;0.0814;-0.7634;
-8.4000;0.0822;-0.7568;
-8.1000;0.0806;-0.7479;
-7.8000;0.0806;-0.7501;
-7.5000;0.0830;-0.7546;
-7.2000;0.0847;-0.7546;
-6.9000;0.0790;-0.7612;
-6.6000;0.0765;-0.7701;
-6.3000;0.0806;-0.7678;
-6.0000;0.0806;-0.7723;
-5.7000;0.0781;-0.7723;
-5.4000;0.0822;-0.7634;
-5.1000;0.0814;-0.7590;
-4.8000;0.0806;-0.7590;
-4.5000;0.0806;-0.7634;
-4.2000;0.0781;-0.7745;
-3.9000;0.0806;-0.7678;
-3.6000;0.0814;-0.7634;
-3.3000;0.0790;-0.7612;
-3.0000;0.0855;-0.7524;
-2.7000;0.0798;-0.7656;
-2.4000;0.0830;-0.7501;
-2.1000;0.0741;-0.7723;
-1.8000;0.0806;-0.7546;
-1.5000;0.0814;-0.7546;
-1.2000;0.0814;-0.7524;
-0.9000;0.0773;-0.7501;
-0.6000;0.0806;-0.7479;
-0.3000;0.0806;-0.7501;
0.0000;0.0806;-0.7501;
0.3000;0.0838;-0.7612;
0.6000;0.0806;-0.7546;
0.9000;0.0814;-0.7457;
1.2000;0.0838;-0.7236;
1.5000;0.0838;-0.7192;
1.8000;0.0765;-0.7324;
2.1000;0.0838;-0.7103;
2.4000;0.0871;-0.6970;
2.7000;0.0814;-0.7170;
3.0000;0.0871;-0.6948;
3.3000;0.0855;-0.6970;
3.6000;0.0830;-0.6926;
3.9000;0.0855;-0.6749;
4.2000;0.0830;-0.6661;
4.5000;0.0863;-0.6616;
4.8000;0.0871;-0.6506;
5.1000;0.0838;-0.6683;
5.4000;0.0871;-0.6594;
5.7000;0.0855;-0.6572;
6.0000;0.0814;-0.6771;
6.3000;0.0928;-0.6528;
6.6000;0.0847;-0.6749;
6.9000;0.0904;-0.6506;
7.2000;0.0879;-0.6484;
7.5000;0.0863;-0.6506;
7.8000;0.0847;-0.6439;
8.1000;0.0838;-0.6528;
8.4000;0.0871;-0.6395;
8.7000;0.0912;-0.6395;
9.0000;0.0887;-0.6373;
9.3000;0.0895;-0.6351;
9.6000;0.0863;-0.6373;
9.9000;0.0847;-0.6417;
10.2000;0.0855;-0.6550;
10.5000;0.0871;-0.6528;
10.8000;0.0871;-0.6616;
11.1000;0.0879;-0.6616;
11.4000;0.0887;-0.6616;
11.7000;0.0887;-0.6661;
12.0000;0.0871;-0.6705;
12.3000;0.0847;-0.6771;
12.6000;0.0879;-0.6749;
12.9000;0.0847;-0.6727;
13.2000;0.0855;-0.6749;
13.5000;0.0863;-0.6661;
13.8000;0.0920;-0.6528;
14.1000;0.0855;-0.6683;
14.4000;0.0895;-0.6594;
14.7000;0.0863;-0.6683;
15.0000;0.0871;-0.6616;
15.3000;0.0757;-0.6749;
15.6000;0.0887;-0.6439;
15.9000;0.0879;-0.6351;
16.2000;0.0830;-0.6484;
16.5000;0.0757;-0.6638;
16.8000;0.0920;-0.6262;
17.1000;0.0863;-0.6439;
17.4000;0.0952;-0.6218;
17.7000;0.0879;-0.6373;
18.0000;0.0838;-0.6417;
18.3000;0.0838;-0.6550;
18.6000;0.0871;-0.6506;
18.9000;0.0871;-0.6461;
19.2000;0.0887;-0.6439;
19.5000;0.0895;-0.6484;
19.8000;0.0838;-0.6616;
20.1000;0.0879;-0.6528;
20.4000;0.0855;-0.6528;
20.7000;0.0847;-0.6484;
21.0000;0.0790;-0.6594;
21.3000;0.0887;-0.6395;
21.6000;0.0879;-0.6439;
21.9000;0.0871;-0.6417;
22.2000;0.0838;-0.6395;
22.5000;0.0879;-0.6307;
22.8000;0.0798;-0.6550;
23.1000;0.0871;-0.6395;
23.4000;0.0879;-0.6373;
23.7000;0.0879;-0.6351;
24.0000;0.0879;-0.6351;
24.3000;0.0904;-0.6307;
24.6000;0.0838;-0.6484;
24.9000;0.0863;-0.6461;
25.2000;0.0855;-0.6439;
25.5000;0.0871;-0.6439;
25.8000;0.0871;-0.6461;
26.1000;0.0871;-0.6461;
26.4000;0.0871;-0.6461;
26.7000;0.0879;-0.6373;
27.0000;0.0822;-0.6439;
27.3000;0.0895;-0.6262;
27.6000;0.0814;-0.6417;
27.9000;0.0863;-0.6329;
28.2000;0.0879;-0.6218;
28.5000;0.0847;-0.6395;
28.8000;0.0887;-0.6307;
29.1000;0.0879;-0.6329;
29.4000;0.0830;-0.6395;
29.7000;0.0855;-0.6307;
30.0000;0.0847;-0.6395;
30.3000;0.0871;-0.6417;
30.6000;0.0879;-0.6461;
30.9000;0.0871;-0.6550;
31.2000;0.0855;-0.6572;
31.5000;0.0798;-0.6705;
31.8000;0.0895;-0.6528;
32.1000;0.0895;-0.6683;
32.4000;0.0871;-0.6815;
32.7000;0.0887;-0.6727;
33.0000;0.0977;-0.6484;
33.3000;0.0912;-0.6506;
33.6000;0.0806;-0.6683;
33.9000;0.0928;-0.6329;
34.2000;0.0871;-0.6329;
34.5000;0.0871;-0.6329;
34.8000;0.0912;-0.6284;
35.1000;0.0838;-0.6461;
35.4000;0.0855;-0.6484;
35.7000;0.0871;-0.6395;
36.0000;0.0895;-0.6351;
36.3000;0.0895;-0.6373;
36.6000;0.0879;-0.6395;
36.9000;0.0895;-0.6417;
37.2000;0.0887;-0.6417;
37.5000;0.0847;-0.6528;
37.8000;0.0928;-0.6284;
38.1000;0.0887;-0.6506;
38.4000;0.0912;-0.6417;
38.7000;0.0871;-0.6572;
39.0000;0.1001;-0.6262;
39.3000;0.0863;-0.6638;
39.6000;0.0879;-0.6594;
39.9000;0.0847;-0.6661;
40.2000;0.0863;-0.6638;
40.5000;0.0871;-0.6572;
40.8000;0.0879;-0.6616;
41.1000;0.0887;-0.6528;
41.4000;0.0855;-0.6572;
41.7000;0.0895;-0.6528;
42.0000;0.0863;-0.6616;
42.3000;0.0863;-0.6616;
42.6000;0.0855;-0.6506;
42.9000;0.0895;-0.6351;
43.2000;0.0855;-0.6439;
43.5000;0.0871;-0.6484;
43.8000;0.0871;-0.6439;
44.1000;0.0879;-0.6351;
44.4000;0.0863;-0.6439;
44.7000;0.0830;-0.6484;
45.0000;0.0822;-0.6528;
45.3000;0.0863;-0.6461;
45.6000;0.0871;-0.6417;
45.9000;0.0847;-0.6461;
46.2000;0.0879;-0.6506;
46.5000;0.0887;-0.6550;
46.8000;0.0887;-0.6661;
47.1000;0.0871;-0.6705;
47.4000;0.0887;-0.6771;
47.7000;0.0871;-0.6882;
48.0000;0.0871;-0.6860;
48.3000;0.0879;-0.6838;
48.6000;0.0822;-0.6904;
48.9000;0.0887;-0.6661;
49.2000;0.0895;-0.6638;
49.5000;0.0912;-0.6638;
49.8000;0.0879;-0.6616;
50.1000;0.0855;-0.6572;
50.4000;0.0879;-0.6461;
50.7000;0.0920;-0.6329;
51.0000;0.0871;-0.6439;
51.3000;0.0879;-0.6417;
51.6000;0.0863;-0.6395;
51.9000;0.0855;-0.6439;
52.2000;0.0961;-0.6262;
52.5000;0.0871;-0.6461;
52.8000;0.0863;-0.6439;
53.1000;0.0904;-0.6329;
53.4000;0.0871;-0.6373;
53.7000;0.0863;-0.6461;
54.0000;0.0855;-0.6484;
54.3000;0.0977;-0.6262;
54.6000;0.0977;-0.6284;
54.9000;0.0904;-0.6484;
55.2000;0.0912;-0.6461;
55.5000;0.0879;-0.6572;
55.8000;0.0879;-0.6528;
56.1000;0.0879;-0.6484;
56.4000;0.0944;-0.6329;
56.7000;0.0879;-0.6550;
57.0000;0.0895;-0.6550;
57.3000;0.0936;-0.6395;
57.6000;0.0871;-0.6594;
57.9000;0.0757;-0.6860;
58.2000;0.0879;-0.6528;
58.5000;0.0895;-0.6417;
58.8000;0.0863;-0.6616;
59.1000;0.0863;-0.6616;
59.4000;0.0847;-0.6572;
59.7000;0.0887;-0.6528;
60.0000;0.0855;-0.6683;
60.3000;0.0879;-0.6616;
60.6000;0.0855;-0.6683;
60.9000;0.0879;-0.6638;
61.2000;0.0920;-0.6528;
61.5000;0.0863;-0.6661;
61.8000;0.0863;-0.6727;
62.1000;0.0879;-0.6638;
62.4000;0.0871;-0.6638;
62.7000;0.0871;-0.6727;
63.0000;0.0855;-0.6793;
63.3000;0.0887;-0.6705;
63.6000;0.0863;-0.6638;
63.9000;0.0895;-0.6616;
64.2000;0.0871;-0.6616;
64.5000;0.0863;-0.6528;
64.8000;0.0895;-0.6395;
65.1000;0.0895;-0.6461;
65.4000;0.0855;-0.6616;
65.7000;0.0879;-0.6506;
66.0000;0.0920;-0.6461;
66.3000;0.0895;-0.6506;
66.6000;0.0863;-0.6550;
66.9000;0.0838;-0.6572;
67.2000;0.0871;-0.6484;
67.5000;0.0863;-0.6461;
67.8000;0.0928;-0.6307;
68.1000;0.0887;-0.6528;
68.4000;0.0887;-0.6616;
68.7000;0.0863;-0.6594;
69.0000;0.0887;-0.6594;
69.3000;0.0879;-0.6683;
69.6000;0.1018;-0.6351;
69.9000;0.0871;-0.6683;
70.2000;0.0847;-0.6705;
70.5000;0.0847;-0.6771;
70.8000;0.0855;-0.6771;
71.1000;0.0969;-0.6528;
71.4000;0.0871;-0.6771;
71.7000;0.0855;-0.6771;
72.0000;0.0920;-0.6528;
72.3000;0.0887;-0.6572;
72.6000;0.0887;-0.6661;
72.9000;0.0879;-0.6638;
73.2000;0.0895;-0.6528;
73.5000;0.0855;-0.6506;
73.8000;0.0863;-0.6461;
74.1000;0.0871;-0.6417;
74.4000;0.0912;-0.6395;
74.7000;0.0879;-0.6506;
75.0000;0.0879;-0.6484;
75.3000;0.0822;-0.6550;
75.6000;0.0790;-0.6661;
75.9000;0.1058;-0.6041;
76.2000;0.0863;-0.6417;
76.5000;0.0879;-0.6417;
76.8000;0.0879;-0.6417;
77.1000;0.0871;-0.6461;
77.4000;0.0871;-0.6506;
77.7000;0.0871;-0.6638;
78.0000;0.0855;-0.6705;
78.3000;0.0855;-0.6705;
78.6000;0.0871;-0.6749;
78.9000;0.0904;-0.6705;
79.2000;0.0855;-0.6771;
79.5000;0.0863;-0.6705;
79.8000;0.0871;-0.6616;
80.1000;0.0863;-0.6638;
80.4000;0.0895;-0.6594;
80.7000;0.0863;-0.6661;
81.0000;0.0871;-0.6638;
81.3000;0.0879;-0.6506;
81.6000;0.0879;-0.6506;
81.9000;0.0887;-0.6484;
82.2000;0.0871;-0.6550;
82.5000;0.0863;-0.6638;
82.8000;0.0863;-0.6749;
83.1000;0.0749;-0.7015;
83.4000;0.0863;-0.6793;
83.7000;0.0879;-0.6771;
84.0000;0.0871;-0.6838;
84.3000;0.0863;-0.6926;
84.6000;0.0879;-0.6860;
84.9000;0.0879;-0.6860;
85.2000;0.0895;-0.6771;
85.5000;0.0879;-0.6727;
85.8000;0.0879;-0.6727;
86.1000;0.0895;-0.6771;
86.4000;0.0863;-0.6926;
86.7000;0.0887;-0.6948;
87.0000;0.0895;-0.6904;
87.3000;0.0887;-0.6749;
87.6000;0.0879;-0.6705;
87.9000;0.0879;-0.6683;
88.2000;0.0887;-0.6727;
88.5000;0.0871;-0.6882;
88.8000;0.0887;-0.6882;
89.1000;0.0969;-0.6727;
89.4000;0.0887;-0.6882;
89.7000;0.0895;-0.6904;
90.0000;0.0871;-0.6970;
90.3000;0.0871;-0.6970;
90.6000;0.0895;-0.6926;
90.9000;0.0895;-0.6904;
91.2000;0.0855;-0.6970;
91.5000;0.0887;-0.6815;
91.8000;0.0895;-0.6793;
92.1000;0.0887;-0.6793;
92.4000;0.0887;-0.6771;
92.7000;0.0895;-0.6749;
93.0000;0.0871;-0.6683;
93.3000;0.0806;-0.6860;
93.6000;0.0847;-0.6727;
93.9000;0.0863;-0.6705;
94.2000;0.0920;-0.6572;
94.5000;0.0855;-0.6661;
94.8000;0.0887;-0.6594;
95.1000;0.0757;-0.6860;
95.4000;0.0871;-0.6550;
95.7000;0.0904;-0.6550;
96.0000;0.0871;-0.6638;
96.3000;0.0838;-0.6727;
96.6000;0.0871;-0.6616;
96.9000;0.0879;-0.6638;
97.2000;0.0904;-0.6594;
97.5000;0.0887;-0.6771;
97.8000;0.0887;-0.6815;
98.1000;0.0871;-0.6882;
98.4000;0.0928;-0.6749;
98.7000;0.0879;-0.6860;
99.0000;0.0879;-0.6882;
99.3000;0.0912;-0.6793;
99.6000;0.0806;-0.7059;
99.9000;0.0887;-0.6838;
100.2000;0.0871;-0.6882;
100.5000;0.0871;-0.6860;
100.8000;0.0871;-0.6904;
101.1000;0.0879;-0.6771;
101.4000;0.0871;-0.6815;
101.7000;0.0879;-0.6749;
102.0000;0.0887;-0.6683;
102.3000;0.0887;-0.6727;
102.6000;0.0887;-0.6705;
102.9000;0.0863;-0.6749;
103.2000;0.0855;-0.6771;
103.5000;0.0855;-0.6793;
103.8000;0.0904;-0.6815;
104.1000;0.0904;-0.6793;
104.4000;0.0879;-0.6838;
104.7000;0.0871;-0.6838;
105.0000;0.0724;-0.7236;
105.3000;0.0871;-0.6860;
105.6000;0.0871;-0.6793;
105.9000;0.0863;-0.6815;
106.2000;0.0871;-0.6683;
106.5000;0.0879;-0.6638;
106.8000;0.0855;-0.6771;
107.1000;0.0838;-0.6793;
107.4000;0.0879;-0.6860;
107.7000;0.0863;-0.6882;
108.0000;0.1026;-0.6506;
108.3000;0.0879;-0.6860;
108.6000;0.0871;-0.6904;
108.9000;0.0904;-0.6926;
109.2000;0.0887;-0.6926;
109.5000;0.0887;-0.6992;
109.8000;0.0863;-0.7081;
110.1000;0.0879;-0.6948;
110.4000;0.0871;-0.6815;
110.7000;0.0904;-0.6749;
111.0000;0.0871;-0.6793;
111.3000;0.0887;-0.6771;
111.6000;0.0887;-0.6749;
111.9000;0.0887;-0.6727;
112.2000;0.0855;-0.6727;
112.5000;0.0855;-0.6705;
112.8000;0.0879;-0.6661;
113.1000;0.0887;-0.6594;
113.4000;0.0879;-0.6616;
113.7000;0.0871;-0.6661;
114.0000;0.0838;-0.6683;
114.3000;0.0879;-0.6550;
114.6000;0.0863;-0.6683;
114.9000;0.0879;-0.6661;
115.2000;0.0879;-0.6572;
115.5000;0.0871;-0.6550;
115.8000;0.0879;-0.6572;
116.1000;0.0936;-0.6506;
116.4000;0.0871;-0.6727;
116.7000;0.0887;-0.6727;
117.0000;0.0863;-0.6771;
117.3000;0.0879;-0.6727;
117.6000;0.0863;-0.6727;
117.9000;0.0887;-0.6661;
118.2000;0.0912;-0.6616;
118.5000;0.0879;-0.6683;
118.8000;0.0887;-0.6661;
119.1000;0.0871;-0.6727;
119.4000;0.0847;-0.6838;
119.7000;0.0912;-0.6705;
120.0000;0.0904;-0.6661;
120.3000;0.0847;-0.6838;
120.6000;0.0912;-0.6594;
120.9000;0.0879;-0.6594;
121.2000;0.0871;-0.6616;
121.5000;0.0855;-0.6616;
121.8000;0.0904;-0.6506;
122.1000;0.0871;-0.6594;
122.4000;0.0830;-0.6749;
122.7000;0.0879;-0.6638;
123.0000;0.0879;-0.6616;
123.3000;0.0887;-0.6616;
123.6000;0.0871;-0.6572;
123.9000;0.0887;-0.6572;
124.2000;0.0822;-0.6727;
124.5000;0.0871;-0.6638;
124.8000;0.0847;-0.6661;
125.1000;0.0741;-0.6815;
125.4000;0.0928;-0.6417;
125.7000;0.0879;-0.6550;
126.0000;0.0928;-0.6417;
126.3000;0.0895;-0.6550;
126.6000;0.0847;-0.6616;
126.9000;0.0798;-0.6661;
127.2000;0.0961;-0.6262;
127.5000;0.0879;-0.6461;
127.8000;0.0863;-0.6572;
128.1000;0.0871;-0.6461;
128.4000;0.0895;-0.6373;
128.7000;0.0879;-0.6417;
129.0000;0.0847;-0.6550;
129.3000;0.0871;-0.6572;
129.6000;0.0863;-0.6528;
129.9000;0.0855;-0.6506;
130.2000;0.0855;-0.6528;
130.5000;0.0871;-0.6572;
130.8000;0.0855;-0.6661;
131.1000;0.0847;-0.6616;
131.4000;0.0887;-0.6461;
131.7000;0.0936;-0.6329;
132.0000;0.0879;-0.6484;
132.3000;0.0871;-0.6528;
132.6000;0.0871;-0.6528;
132.9000;0.0871;-0.6506;
133.2000;0.0871;-0.6550;
133.5000;0.0895;-0.6528;
133.8000;0.0895;-0.6572;
134.1000;0.0904;-0.6506;
134.4000;0.0855;-0.6594;
134.7000;0.0887;-0.6550;
135.0000;0.0871;-0.6572;
135.3000;0.0895;-0.6550;
135.6000;0.0871;-0.6572;
135.9000;0.0887;-0.6638;
136.2000;0.0887;-0.6705;
136.5000;0.0887;-0.6727;
136.8000;0.0838;-0.6815;
137.1000;0.0871;-0.6727;
137.4000;0.0863;-0.6749;
137.7000;0.0887;-0.6815;
138.0000;0.0887;-0.6815;
138.3000;0.0887;-0.6793;
138.6000;0.0871;-0.6882;
138.9000;0.0887;-0.6793;
139.2000;0.0806;-0.6838;
139.5000;0.0879;-0.6705;
139.8000;0.0879;-0.6705;
140.1000;0.0863;-0.6771;
140.4000;0.0944;-0.6594;
140.7000;0.0855;-0.6749;
141.0000;0.0871;-0.6705;
141.3000;0.0887;-0.6771;
141.6000;0.0887;-0.6705;
141.9000;0.0887;-0.6749;
142.2000;0.0887;-0.6616;
142.5000;0.0871;-0.6528;
142.8000;0.0855;-0.6528;
143.1000;0.0879;-0.6439;
143.4000;0.0871;-0.6550;
143.7000;0.0887;-0.6616;
144.0000;0.0871;-0.6661;
144.3000;0.0830;-0.6661;
144.6000;0.0879;-0.6484;
144.9000;0.0863;-0.6417;
145.2000;0.0863;-0.6417;
145.5000;0.0830;-0.6572;
145.8000;0.0887;-0.6484;
146.1000;0.0863;-0.6550;
146.4000;0.0814;-0.6661;
146.7000;0.0855;-0.6550;
147.0000;0.0879;-0.6461;
147.3000;0.0855;-0.6528;
147.6000;0.0798;-0.6661;
147.9000;0.0879;-0.6484;
148.2000;0.0847;-0.6550;
148.5000;0.0895;-0.6461;
148.8000;0.0920;-0.6395;
149.1000;0.0879;-0.6572;
149.4000;0.0904;-0.6528;
149.7000;0.0814;-0.6771;
150.0000;0.0895;-0.6594;
150.3000;0.0879;-0.6594;
150.6000;0.0887;-0.6572;
150.9000;0.0879;-0.6616;
151.2000;0.0830;-0.6771;
151.5000;0.0879;-0.6661;
151.8000;0.0912;-0.6506;
152.1000;0.0895;-0.6572;
152.4000;0.0912;-0.6506;
152.7000;0.0879;-0.6528;
153.0000;0.0904;-0.6439;
153.3000;0.0879;-0.6417;
153.6000;0.0912;-0.6329;
153.9000;0.0863;-0.6439;
154.2000;0.0863;-0.6461;
154.5000;0.0879;-0.6506;
154.8000;0.0887;-0.6439;
155.1000;0.0871;-0.6572;
155.4000;0.0855;-0.6661;
155.7000;0.0887;-0.6572;
156.0000;0.0863;-0.6572;
156.3000;0.0871;-0.6572;
156.6000;0.0879;-0.6506;
156.9000;0.0863;-0.6572;
157.2000;0.0887;-0.6572;
157.5000;0.0871;-0.6616;
157.8000;0.0838;-0.6638;
158.1000;0.0879;-0.6528;
158.4000;0.0887;-0.6461;
158.7000;0.0887;-0.6439;
159.0000;0.0879;-0.6373;
159.3000;0.0863;-0.6439;
159.6000;0.0871;-0.6439;
159.9000;0.0879;-0.6417;
160.2000;0.0806;-0.6661;
160.5000;0.0863;-0.6528;
160.8000;0.0863;-0.6572;
161.1000;0.0904;-0.6528;
161.4000;0.0887;-0.6594;
161.7000;0.0830;-0.6815;
162.0000;0.0863;-0.6749;
162.3000;0.0944;-0.6528;
162.6000;0.0887;-0.6572;
162.9000;0.0887;-0.6506;
163.2000;0.0838;-0.6616;
163.5000;0.0855;-0.6661;
163.8000;0.0887;-0.6638;
164.1000;0.0871;-0.6705;
164.4000;0.0871;-0.6638;
164.7000;0.0847;-0.6616;
165.0000;0.0879;-0.6550;
165.3000;0.0895;-0.6439;
165.6000;0.0969;-0.6240;
165.9000;0.0879;-0.6439;
166.2000;0.0871;-0.6484;
166.5000;0.0887;-0.6550;
166.8000;0.0895;-0.6594;
167.1000;0.0879;-0.6616;
167.4000;0.0895;-0.6661;
167.7000;0.0904;-0.6638;
168.0000;0.0879;-0.6749;
168.3000;0.0863;-0.6838;
168.6000;0.0838;-0.6815;
168.9000;0.0993;-0.6351;
169.2000;0.0863;-0.6572;
169.5000;0.0822;-0.6705;
169.8000;0.0895;-0.6594;
170.1000;0.0887;-0.6594;
170.4000;0.0895;-0.6528;
170.7000;0.0887;-0.6616;
171.0000;0.0977;-0.6284;
171.3000;0.0952;-0.6284;
171.6000;0.0871;-0.6439;
171.9000;0.0928;-0.6373;
172.2000;0.0887;-0.6395;
172.5000;0.0871;-0.6506;
172.8000;0.0936;-0.6439;
173.1000;0.0855;-0.6484;
173.4000;0.0855;-0.6572;
173.7000;0.0879;-0.6572;
174.0000;0.0871;-0.6594;
174.3000;0.0904;-0.6484;
174.6000;0.0855;-0.6616;
174.9000;0.0847;-0.6616;
175.2000;0.0887;-0.6506;
175.5000;0.0887;-0.6484;
175.8000;0.0879;-0.6572;
176.1000;0.0871;-0.6616;
176.4000;0.0879;-0.6594;
176.7000;0.0830;-0.6638;
177.0000;0.0871;-0.6661;
177.3000;0.0847;-0.6749;
177.6000;0.0863;-0.6793;
177.9000;0.0879;-0.6749;
178.2000;0.0855;-0.6749;
178.5000;0.0879;-0.6638;
178.8000;0.0863;-0.6683;
179.1000;0.0887;-0.6594;
179.4000;0.0879;-0.6572;
179.7000;0.0863;-0.6661;
180.0000;0.0904;-0.6550;
180.3000;0.0871;-0.6638;
180.6000;0.0895;-0.6616;
180.9000;0.0847;-0.6727;
181.2000;0.0871;-0.6749;
181.5000;0.0895;-0.6661;
181.8000;0.0871;-0.6705;
182.1000;0.0871;-0.6705;
182.4000;0.0895;-0.6616;
182.7000;0.0879;-0.6572;
183.0000;0.0879;-0.6594;
183.3000;0.0847;-0.6683;
183.6000;0.0895;-0.6616;
183.9000;0.0879;-0.6638;
184.2000;0.0855;-0.6616;
184.5000;0.0879;-0.6550;
184.8000;0.0822;-0.6661;
185.1000;0.0855;-0.6616;
185.4000;0.0895;-0.6484;
185.7000;0.0863;-0.6528;
186.0000;0.0887;-0.6417;
186.3000;0.0822;-0.6550;
186.6000;0.0895;-0.6439;
186.9000;0.0920;-0.6395;
187.2000;0.0895;-0.6528;
187.5000;0.0969;-0.6395;
187.8000;0.0879;-0.6616;
188.1000;0.0855;-0.6616;
188.4000;0.0879;-0.6572;
188.7000;0.0863;-0.6594;
189.0000;0.0871;-0.6550;
189.3000;0.0879;-0.6506;
189.6000;0.0863;-0.6528;
189.9000;0.0790;-0.6727;
190.2000;0.0871;-0.6572;
190.5000;0.0871;-0.6528;
190.8000;0.0879;-0.6550;
191.1000;0.0863;-0.6594;
191.4000;0.0822;-0.6727;
191.7000;0.0871;-0.6661;
192.0000;0.0887;-0.6683;
192.3000;0.0855;-0.6749;
192.6000;0.0855;-0.6771;
192.9000;0.0871;-0.6638;
193.2000;0.0871;-0.6594;
193.5000;0.0838;-0.6727;
193.8000;0.0887;-0.6616;
194.1000;0.0895;-0.6572;
194.4000;0.0757;-0.6904;
194.7000;0.0879;-0.6572;
195.0000;0.0887;-0.6594;
195.3000;0.0895;-0.6550;
195.6000;0.0749;-0.6838;
195.9000;0.0887;-0.6528;
196.2000;0.0855;-0.6594;
196.5000;0.0887;-0.6572;
196.8000;0.0879;-0.6550;
197.1000;0.0871;-0.6528;
197.4000;0.0887;-0.6506;
197.7000;0.0871;-0.6528;
198.0000;0.0879;-0.6594;
198.3000;0.0887;-0.6572;
198.6000;0.0887;-0.6572;
198.9000;0.0887;-0.6638;
199.2000;0.0879;-0.6638;
199.5000;0.0871;-0.6705;
199.8000;0.0871;-0.6705;
200.1000;0.0871;-0.6771;
200.4000;0.0871;-0.6749;
200.7000;0.0871;-0.6749;
201.0000;0.0871;-0.6815;
201.3000;0.0838;-0.6838;
201.6000;0.0887;-0.6793;
201.9000;0.0887;-0.6683;
202.2000;0.0871;-0.6683;
202.5000;0.0871;-0.6661;
202.8000;0.0838;-0.6727;
203.1000;0.0879;-0.6638;
203.4000;0.0904;-0.6550;
203.7000;0.0887;-0.6572;
204.0000;0.0879;-0.6528;
204.3000;0.0887;-0.6616;
204.6000;0.0879;-0.6705;
204.9000;0.0912;-0.6594;
205.2000;0.0855;-0.6727;
205.5000;0.0879;-0.6727;
205.8000;0.0887;-0.6793;
206.1000;0.0863;-0.6904;
206.4000;0.0904;-0.6771;
206.7000;0.0879;-0.6838;
207.0000;0.0879;-0.6815;
207.3000;0.0855;-0.6838;
207.6000;0.0887;-0.6749;
207.9000;0.0879;-0.6771;
208.2000;0.0806;-0.7015;
208.5000;0.0879;-0.6749;
208.8000;0.0912;-0.6683;
209.1000;0.0847;-0.6838;
209.4000;0.0912;-0.6683;
209.7000;0.0944;-0.6594;
210.0000;0.0863;-0.6815;
210.3000;0.0790;-0.6904;
210.6000;0.0871;-0.6815;
210.9000;0.0871;-0.6815;
211.2000;0.0798;-0.6992;
211.5000;0.0855;-0.6860;
211.8000;0.0757;-0.7037;
212.1000;0.0863;-0.6904;
212.4000;0.0969;-0.6683;
212.7000;0.0879;-0.6882;
213.0000;0.0871;-0.6948;
213.3000;0.0961;-0.6616;
213.6000;0.0887;-0.6793;
213.9000;0.0879;-0.6815;
214.2000;0.0871;-0.6838;
214.5000;0.0838;-0.6838;
214.8000;0.0871;-0.6661;
215.1000;0.0830;-0.6705;
215.4000;0.0847;-0.6727;
215.7000;0.0904;-0.6594;
216.0000;0.0920;-0.6528;
216.3000;0.0863;-0.6638;
216.6000;0.0822;-0.6727;
216.9000;0.0871;-0.6572;
217.2000;0.0871;-0.6638;
217.5000;0.0944;-0.6550;
217.8000;0.0879;-0.6638;
218.1000;0.0879;-0.6705;
218.4000;0.0887;-0.6638;
218.7000;0.0879;-0.6616;
219.0000;0.0879;-0.6661;
219.3000;0.0928;-0.6550;
219.6000;0.0871;-0.6727;
219.9000;0.0855;-0.6793;
220.2000;0.0904;-0.6661;
220.5000;0.0863;-0.6727;
220.8000;0.0912;-0.6638;
221.1000;0.0887;-0.6661;
221.4000;0.0887;-0.6683;
221.7000;0.0806;-0.6838;
222.0000;0.0863;-0.6638;
222.3000;0.0879;-0.6572;
222.6000;0.0871;-0.6661;
222.9000;0.0887;-0.6616;
223.2000;0.0871;-0.6638;
223.5000;0.0879;-0.6594;
223.8000;0.0798;-0.6727;
224.1000;0.0871;-0.6484;
224.4000;0.0863;-0.6439;
224.7000;0.0863;-0.6506;
225.0000;0.0879;-0.6594;
225.3000;0.0847;-0.6661;
225.6000;0.0855;-0.6661;
225.9000;0.0871;-0.6661;
226.2000;0.0871;-0.6638;
226.5000;0.0871;-0.6506;
226.8000;0.0863;-0.6550;
227.1000;0.0887;-0.6616;
227.4000;0.0887;-0.6616;
227.7000;0.0871;-0.6683;
228.0000;0.0887;-0.6683;
228.3000;0.0895;-0.6638;
228.6000;0.0887;-0.6594;
228.9000;0.0887;-0.6594;
229.2000;0.0855;-0.6572;
229.5000;0.0855;-0.6506;
229.8000;0.0855;-0.6484;
230.1000;0.0879;-0.6461;
230.4000;0.0838;-0.6528;
230.7000;0.0871;-0.6572;
231.0000;0.0904;-0.6506;
231.3000;0.0847;-0.6616;
231.6000;0.0879;-0.6594;
231.9000;0.0887;-0.6550;
232.2000;0.0928;-0.6351;
232.5000;0.0863;-0.6506;
232.8000;0.0887;-0.6461;
233.1000;0.0871;-0.6461;
233.4000;0.0887;-0.6439;
233.7000;0.0887;-0.6461;
234.0000;0.0847;-0.6484;
234.3000;0.0790;-0.6683;
234.6000;0.0863;-0.6616;
234.9000;0.0863;-0.6638;
235.2000;0.0847;-0.6705;
235.5000;0.0863;-0.6661;
235.8000;0.0863;-0.6616;
236.1000;0.0912;-0.6506;
236.4000;0.0822;-0.6683;
236.7000;0.0879;-0.6616;
237.0000;0.0879;-0.6594;
237.3000;0.0904;-0.6572;
237.6000;0.0904;-0.6594;
237.9000;0.0969;-0.6373;
238.2000;0.0822;-0.6705;
238.5000;0.0871;-0.6616;
238.8000;0.0855;-0.6683;
239.1000;0.0847;-0.6727;
239.4000;0.0871;-0.6594;
239.7000;0.0855;-0.6683;
240.0000;0.0855;-0.6705;
240.3000;0.0855;-0.6705;
240.6000;0.0969;-0.6417;
240.9000;0.0936;-0.6506;
241.2000;0.0879;-0.6661;
241.5000;0.0806;-0.6771;
241.8000;0.0895;-0.6439;
242.1000;0.0895;-0.6528;
242.4000;0.0936;-0.6417;
242.7000;0.0830;-0.6638;
243.0000;0.0855;-0.6616;
243.3000;0.0879;-0.6638;
243.6000;0.0887;-0.6705;
243.9000;0.0847;-0.6793;
244.2000;0.0904;-0.6683;
244.5000;0.0887;-0.6727;
244.8000;0.0887;-0.6727;
245.1000;0.0879;-0.6749;
245.4000;0.0977;-0.6484;
245.7000;0.0928;-0.6594;
246.0000;0.0838;-0.6661;
246.3000;0.0863;-0.6572;
246.6000;0.0863;-0.6506;
246.9000;0.0708;-0.6749;
247.2000;0.0904;-0.6307;
247.5000;0.0895;-0.6351;
247.8000;0.0895;-0.6373;
248.1000;0.0879;-0.6395;
248.4000;0.0847;-0.6572;
248.7000;0.0895;-0.6484;
249.0000;0.0830;-0.6638;
249.3000;0.0863;-0.6528;
249.6000;0.0863;-0.6461;
249.9000;0.0928;-0.6351;
250.2000;0.0944;-0.6329;
250.5000;0.0871;-0.6461;
250.8000;0.0871;-0.6461;
251.1000;0.0904;-0.6351;
251.4000;0.0871;-0.6528;
251.7000;0.0879;-0.6484;
252.0000;0.0895;-0.6484;
252.3000;0.0871;-0.6572;
252.6000;0.0871;-0.6550;
252.9000;0.0912;-0.6506;
253.2000;0.0952;-0.6373;
253.5000;0.0895;-0.6506;
253.8000;0.0871;-0.6528;
254.1000;0.0863;-0.6616;
254.4000;0.0879;-0.6705;
254.7000;0.0895;-0.6727;
255.0000;0.0863;-0.6793;
255.3000;0.0806;-0.6970;
255.6000;0.0879;-0.6860;
255.9000;0.0863;-0.6882;
256.2000;0.0863;-0.6882;
256.5000;0.0936;-0.6727;
256.8000;0.0887;-0.6815;
257.1000;0.0863;-0.6904;
257.4000;0.0863;-0.6926;
257.7000;0.0863;-0.6815;
258.0000;0.0855;-0.6815;
258.3000;0.0912;-0.6683;
258.6000;0.0969;-0.6528;
258.9000;0.0855;-0.6860;
259.2000;0.0863;-0.6926;
259.5000;0.0863;-0.6838;
259.8000;0.0822;-0.6838;
260.1000;0.0904;-0.6616;
260.4000;0.0863;-0.6572;
260.7000;0.0904;-0.6528;
261.0000;0.0879;-0.6484;
261.3000;0.0904;-0.6395;
261.6000;0.0887;-0.6461;
261.9000;0.0879;-0.6506;
262.2000;0.0944;-0.6373;
262.5000;0.0871;-0.6484;
262.8000;0.0871;-0.6461;
263.1000;0.0969;-0.6351;
263.4000;0.1009;-0.6284;
263.7000;0.0871;-0.6683;
264.0000;0.0904;-0.6616;
264.3000;0.0838;-0.6838;
264.6000;0.0879;-0.6683;
264.9000;0.0887;-0.6616;
265.2000;0.0847;-0.6638;
265.5000;0.0879;-0.6638;
265.8000;0.0855;-0.6727;
266.1000;0.0847;-0.6793;
266.4000;0.0928;-0.6594;
266.7000;0.0887;-0.6661;
267.0000;0.0879;-0.6771;
267.3000;0.0887;-0.6815;
267.6000;0.0871;-0.6838;
267.9000;0.0887;-0.6749;
268.2000;0.0895;-0.6727;
268.5000;0.0879;-0.6594;
268.8000;0.0904;-0.6506;
269.1000;0.0887;-0.6484;
269.4000;0.0871;-0.6484;
269.7000;0.0871;-0.6395;
270.0000;0.0838;-0.6439;
270.3000;0.0863;-0.6461;
270.6000;0.0871;-0.6550;
270.9000;0.0920;-0.6417;
271.2000;0.0879;-0.6550;
271.5000;0.0904;-0.6550;
271.8000;0.0871;-0.6572;
272.1000;0.0887;-0.6461;
272.4000;0.0895;-0.6439;
272.7000;0.0912;-0.6417;
273.0000;0.0952;-0.6307;
273.3000;0.0904;-0.6373;
273.6000;0.0871;-0.6550;
273.9000;0.0879;-0.6616;
274.2000;0.0847;-0.6638;
274.5000;0.0855;-0.6793;
274.8000;0.0871;-0.6771;
275.1000;0.0806;-0.6992;
275.4000;0.0847;-0.6882;
275.7000;0.0863;-0.6860;
276.0000;0.0871;-0.6771;
276.3000;0.0871;-0.6683;
276.6000;0.0879;-0.6638;
276.9000;0.0871;-0.6616;
277.2000;0.0904;-0.6550;
277.5000;0.0879;-0.6638;
277.8000;0.0757;-0.6948;
278.1000;0.0863;-0.6727;
278.4000;0.0879;-0.6727;
278.7000;0.0895;-0.6661;
279.0000;0.0895;-0.6572;
279.3000;0.0920;-0.6395;
279.6000;0.0814;-0.6661;
279.9000;0.0871;-0.6594;
280.2000;0.0871;-0.6594;
280.5000;0.0887;-0.6572;
280.8000;0.0879;-0.6616;
281.1000;0.0757;-0.6882;
281.4000;0.0879;-0.6616;
281.7000;0.0887;-0.6616;
282.0000;0.0879;-0.6572;
282.3000;0.0912;-0.6528;
282.6000;0.0904;-0.6461;
282.9000;0.0847;-0.6528;
283.2000;0.0887;-0.6461;
283.5000;0.0879;-0.6461;
283.8000;0.0887;-0.6417;
284.1000;0.0863;-0.6461;
284.4000;0.0871;-0.6506;
284.7000;0.0895;-0.6395;
285.0000;0.0871;-0.6506;
285.3000;0.0863;-0.6528;
285.6000;0.0847;-0.6661;
285.9000;0.0863;-0.6661;
286.2000;0.0855;-0.6771;
286.5000;0.0920;-0.6506;
286.8000;0.0895;-0.6594;
287.1000;0.0912;-0.6594;
287.4000;0.0887;-0.6572;
287.7000;0.0879;-0.6683;
288.0000;0.0952;-0.6528;
288.3000;0.0904;-0.6572;
288.6000;0.0952;-0.6484;
288.9000;0.0944;-0.6439;
289.2000;0.0887;-0.6594;
289.5000;0.0879;-0.6550;
289.8000;0.0920;-0.6417;
290.1000;0.0847;-0.6572;
290.4000;0.0863;-0.6572;
290.7000;0.0895;-0.6528;
291.0000;0.0879;-0.6572;
291.3000;0.0855;-0.6616;
291.6000;0.0879;-0.6683;
291.9000;0.0895;-0.6638;
292.2000;0.0887;-0.6638;
292.5000;0.0855;-0.6705;
292.8000;0.0887;-0.6550;
293.1000;0.0879;-0.6594;
293.4000;0.0895;-0.6572;
293.7000;0.0936;-0.6484;
294.0000;0.0895;-0.6616;
294.3000;0.0887;-0.6616;
294.6000;0.0871;-0.6661;
294.9000;0.0879;-0.6683;
295.2000;0.0847;-0.6749;
295.5000;0.0871;-0.6594;
295.8000;0.0920;-0.6528;
296.1000;0.0895;-0.6572;
296.4000;0.0863;-0.6683;
296.7000;0.0879;-0.6638;
297.0000;0.0904;-0.6528;
297.3000;0.0838;-0.6616;
297.6000;0.0887;-0.6417;
297.9000;0.0904;-0.6395;
298.2000;0.0912;-0.6395;
298.5000;0.0871;-0.6484;
298.8000;0.0895;-0.6461;
299.1000;0.0838;-0.6616;
299.4000;0.0814;-0.6638;
299.7000;0.0863;-0.6594;
300.0000;0.0863;-0.6528;
300.3000;0.0863;-0.6638;
300.6000;0.0855;-0.6638;
300.9000;0.0904;-0.6484;
301.2000;0.0879;-0.6572;
301.5000;0.0895;-0.6616;
301.8000;0.0904;-0.6683;
302.1000;0.0895;-0.6594;
302.4000;0.0895;-0.6616;
302.7000;0.0928;-0.6616;
303.0000;0.0863;-0.6771;
303.3000;0.0993;-0.6395;
303.6000;0.0830;-0.6705;
303.9000;0.0847;-0.6727;
304.2000;0.0838;-0.6727;
304.5000;0.0879;-0.6616;
304.8000;0.0879;-0.6572;
305.1000;0.0871;-0.6572;
305.4000;0.0879;-0.6572;
305.7000;0.0912;-0.6528;
306.0000;0.0879;-0.6638;
306.3000;0.0912;-0.6506;
306.6000;0.0749;-0.6882;
306.9000;0.0871;-0.6683;
307.2000;0.0920;-0.6594;
307.5000;0.0912;-0.6550;
307.8000;0.0871;-0.6616;
308.1000;0.0838;-0.6616;
308.4000;0.0912;-0.6373;
308.7000;0.0847;-0.6550;
309.0000;0.0871;-0.6484;
309.3000;0.0863;-0.6528;
309.6000;0.0904;-0.6461;
309.9000;0.0879;-0.6528;
310.2000;0.0863;-0.6528;
310.5000;0.0863;-0.6572;
310.8000;0.0863;-0.6506;
311.1000;0.0855;-0.6461;
311.4000;0.0847;-0.6506;
311.7000;0.0879;-0.6461;
312.0000;0.0806;-0.6683;
312.3000;0.0920;-0.6439;
312.6000;0.0904;-0.6461;
312.9000;0.0798;-0.6771;
313.2000;0.0887;-0.6572;
313.5000;0.0863;-0.6638;
313.8000;0.0895;-0.6572;
314.1000;0.0871;-0.6594;
314.4000;0.0863;-0.6661;
314.7000;0.0871;-0.6661;
315.0000;0.0912;-0.6528;
315.3000;0.0904;-0.6506;
315.6000;0.0887;-0.6550;
315.9000;0.0887;-0.6550;
316.2000;0.0863;-0.6528;
316.5000;0.0863;-0.6550;
316.8000;0.0887;-0.6594;
317.1000;0.0838;-0.6705;
317.4000;0.0895;-0.6705;
317.7000;0.0879;-0.6749;
318.0000;0.0912;-0.6683;
318.3000;0.0879;-0.6683;
318.6000;0.0887;-0.6616;
318.9000;0.0879;-0.6594;
319.2000;0.0879;-0.6616;
319.5000;0.0912;-0.6550;
319.8000;0.0879;-0.6572;
320.1000;0.0692;-0.7037;
320.4000;0.0855;-0.6616;
320.7000;0.0863;-0.6661;
321.0000;0.0863;-0.6705;
321.3000;0.0895;-0.6572;
321.6000;0.0855;-0.6749;
321.9000;0.0830;-0.6771;
322.2000;0.0895;-0.6661;
322.5000;0.0895;-0.6616;
322.8000;0.0887;-0.6638;
323.1000;0.0847;-0.6661;
323.4000;0.0879;-0.6638;
323.7000;0.0879;-0.6572;
324.0000;0.0912;-0.6484;
324.3000;0.0855;-0.6638;
324.6000;0.0879;-0.6594;
324.9000;0.0879;-0.6616;
325.2000;0.0879;-0.6661;
325.5000;0.0879;-0.6683;
325.8000;0.0871;-0.6771;
326.1000;0.0847;-0.6749;
326.4000;0.0749;-0.6992;
326.7000;0.0822;-0.6683;
327.0000;0.0871;-0.6705;
327.3000;0.0830;-0.6793;
327.6000;0.0871;-0.6727;
327.9000;0.0871;-0.6749;
328.2000;0.0879;-0.6749;
328.5000;0.0912;-0.6616;
328.8000;0.0855;-0.6727;
329.1000;0.0887;-0.6594;
329.4000;0.0798;-0.6771;
329.7000;0.0977;-0.6262;
330.0000;0.0847;-0.6528;
330.3000;0.0879;-0.6417;
330.6000;0.0871;-0.6484;
330.9000;0.0871;-0.6528;
331.2000;0.0879;-0.6572;
331.5000;0.0887;-0.6550;
331.8000;0.0863;-0.6638;
332.1000;0.0871;-0.6616;
332.4000;0.0961;-0.6395;
332.7000;0.0838;-0.6638;
333.0000;0.0871;-0.6550;
333.3000;0.0871;-0.6616;
333.6000;0.0855;-0.6705;
333.9000;0.0871;-0.6683;
334.2000;0.0887;-0.6705;
334.5000;0.0879;-0.6705;
334.8000;0.0871;-0.6661;
335.1000;0.0855;-0.6661;
335.4000;0.0847;-0.6550;
335.7000;0.0863;-0.6417;
336.0000;0.0855;-0.6417;
336.3000;0.0847;-0.6439;
336.6000;0.0887;-0.6506;
336.9000;0.0830;-0.6661;
337.2000;0.0773;-0.6771;
337.5000;0.0871;-0.6506;
337.8000;0.0969;-0.6262;
338.1000;0.0887;-0.6439;
338.4000;0.0871;-0.6506;
338.7000;0.0895;-0.6461;
339.0000;0.0847;-0.6616;
339.3000;0.0887;-0.6594;
339.6000;0.0863;-0.6550;
339.9000;0.0676;-0.6970;
340.2000;0.0855;-0.6484;
340.5000;0.0928;-0.6240;
340.8000;0.0855;-0.6417;
341.1000;0.0855;-0.6439;
341.4000;0.0838;-0.6594;
341.7000;0.0887;-0.6572;
342.0000;0.0969;-0.6461;
342.3000;0.0895;-0.6661;
342.6000;0.0920;-0.6550;
342.9000;0.0879;-0.6661;
343.2000;0.0904;-0.6616;
343.5000;0.0879;-0.6661;
343.8000;0.0887;-0.6594;
344.1000;0.0879;-0.6616;
344.4000;0.0871;-0.6528;
344.7000;0.0822;-0.6572;
345.0000;0.0887;-0.6417;
345.3000;0.0863;-0.6439;
345.6000;0.0847;-0.6461;
345.9000;0.0879;-0.6395;
346.2000;0.0838;-0.6484;
346.5000;0.0871;-0.6484;
346.8000;0.0904;-0.6461;
347.1000;0.0847;-0.6572;
347.4000;0.0871;-0.6528;
347.7000;0.0887;-0.6550;
348.0000;0.0904;-0.6484;
348.3000;0.0855;-0.6550;
348.6000;0.0887;-0.6461;
348.9000;0.0863;-0.6461;
349.2000;0.0887;-0.6484;
349.5000;0.0863;-0.6417;
349.8000;0.0879;-0.6351;
350.1000;0.0716;-0.6771;
350.4000;0.0822;-0.6638;
350.7000;0.0887;-0.6506;
351.0000;0.0879;-0.6528;
351.3000;0.0871;-0.6550;
351.6000;0.0871;-0.6461;
351.9000;0.0887;-0.6461;
352.2000;0.0863;-0.6528;
352.5000;0.0871;-0.6572;
352.8000;0.0871;-0.6550;
353.1000;0.0952;-0.6351;
353.4000;0.0944;-0.6395;
353.7000;0.0952;-0.6373;
354.0000;0.0822;-0.6661;
354.3000;0.0863;-0.6638;
354.6000;0.0822;-0.6749;
354.9000;0.0895;-0.6506;
355.2000;0.0838;-0.6661;
355.5000;0.0871;-0.6528;
355.8000;0.0741;-0.6683;
356.1000;0.0887;-0.6417;
356.4000;0.0985;-0.6196;
356.7000;0.0912;-0.6329;
357.0000;0.0895;-0.6373;
357.3000;0.0863;-0.6417;
357.6000;0.0920;-0.6351;
357.9000;0.0863;-0.6550;
358.2000;0.0781;-0.6705;
358.5000;0.0871;-0.6461;
358.8000;0.0847;-0.6528;
359.1000;0.0895;-0.6594;
359.4000;0.0977;-0.6461;
359.7000;0.0855;-0.6793;
360.0000;0.0863;-0.6727;
360.3000;0.0838;-0.6727;
360.6000;0.0904;-0.6594;
360.9000;0.0838;-0.6661;
361.2000;0.0936;-0.6439;
361.5000;0.0895;-0.6484;
361.8000;0.0814;-0.6616;
362.1000;0.0887;-0.6417;
362.4000;0.0904;-0.6439;
362.7000;0.0806;-0.6594;
363.0000;0.0904;-0.6307;
363.3000;0.0879;-0.6439;
363.6000;0.0830;-0.6528;
363.9000;0.0920;-0.6284;
364.2000;0.0879;-0.6395;
364.5000;0.0904;-0.6307;
364.8000;0.0871;-0.6417;
365.1000;0.1034;-0.5997;
365.4000;0.0847;-0.6528;
365.7000;0.0871;-0.6506;
366.0000;0.0887;-0.6439;
366.3000;0.0887;-0.6395;
366.6000;0.0847;-0.6461;
366.9000;0.0887;-0.6329;
367.2000;0.0879;-0.6351;
367.5000;0.0887;-0.6329;
367.8000;0.0871;-0.6484;
368.1000;0.0952;-0.6439;
368.4000;0.0887;-0.6506;
368.7000;0.0871;-0.6572;
369.0000;0.0847;-0.6594;
369.3000;0.0887;-0.6506;
369.6000;0.0904;-0.6506;
369.9000;0.0863;-0.6550;
370.2000;0.0920;-0.6395;
370.5000;0.0838;-0.6616;
370.8000;0.0871;-0.6572;
371.1000;0.0855;-0.6484;
371.4000;0.0863;-0.6439;
371.7000;0.0838;-0.6484;
372.0000;0.0895;-0.6461;
372.3000;0.1018;-0.6085;
372.6000;0.0871;-0.6484;
372.9000;0.0847;-0.6550;
373.2000;0.0871;-0.6616;
373.5000;0.0912;-0.6528;
373.8000;0.0847;-0.6705;
374.1000;0.0790;-0.6882;
374.4000;0.0879;-0.6727;
374.7000;0.0944;-0.6572;
375.0000;0.0847;-0.6793;
375.3000;0.0847;-0.6705;
375.6000;0.0781;-0.6860;
375.9000;0.0879;-0.6638;
376.2000;0.0936;-0.6351;
376.5000;0.0814;-0.6616;
376.8000;0.0871;-0.6506;
377.1000;0.0977;-0.6329;
377.4000;0.0806;-0.6793;
377.7000;0.0887;-0.6705;
378.0000;0.0838;-0.6771;
378.3000;0.0855;-0.6705;
378.6000;0.0904;-0.6550;
378.9000;0.0871;-0.6638;
379.2000;0.0920;-0.6506;
379.5000;0.0847;-0.6661;
379.8000;0.0879;-0.6550;
380.1000;0.0863;-0.6638;
380.4000;0.0806;-0.6838;
380.7000;0.0879;-0.6683;
381.0000;0.0904;-0.6550;
381.3000;0.0871;-0.6550;
381.6000;0.0781;-0.6771;
381.9000;0.0855;-0.6506;
382.2000;0.0863;-0.6484;
382.5000;0.0895;-0.6461;
382.8000;0.0895;-0.6506;
383.1000;0.0855;-0.6572;
383.4000;0.0887;-0.6572;
383.7000;0.0887;-0.6528;
384.0000;0.0781;-0.6793;
384.3000;0.0863;-0.6616;
384.6000;0.0895;-0.6550;
384.9000;0.0814;-0.6683;
385.2000;0.0855;-0.6616;
385.5000;0.0871;-0.6594;
385.8000;0.0871;-0.6528;
386.1000;0.0863;-0.6417;
386.4000;0.0830;-0.6484;
386.7000;0.0838;-0.6594;
387.0000;0.0871;-0.6528;
387.3000;0.0895;-0.6506;
387.6000;0.0887;-0.6506;
387.9000;0.0879;-0.6550;
388.2000;0.0912;-0.6638;
388.5000;0.0871;-0.6771;
388.8000;0.0871;-0.6638;
389.1000;0.0838;-0.6705;
389.4000;0.0871;-0.6661;
389.7000;0.0879;-0.6594;
390.0000;0.0838;-0.6727;
390.3000;0.0863;-0.6705;
390.6000;0.0879;-0.6616;
390.9000;0.0863;-0.6727;
391.2000;0.0855;-0.6638;
391.5000;0.0863;-0.6661;
391.8000;0.0863;-0.6638;
392.1000;0.0879;-0.6528;
392.4000;0.0879;-0.6528;
392.7000;0.0879;-0.6528;
393.0000;0.0920;-0.6506;
393.3000;0.0887;-0.6484;
393.6000;0.0887;-0.6506;
393.9000;0.0855;-0.6638;
394.2000;0.0830;-0.6638;
394.5000;0.0863;-0.6572;
394.8000;0.0887;-0.6616;
395.1000;0.0871;-0.6594;
395.4000;0.0912;-0.6506;
395.7000;0.0952;-0.6461;
396.0000;0.0879;-0.6638;
396.3000;0.0969;-0.6307;
396.6000;0.0863;-0.6616;
396.9000;0.0855;-0.6638;
397.2000;0.0855;-0.6749;
397.5000;0.0912;-0.6550;
397.8000;0.0961;-0.6461;
398.1000;0.0847;-0.6683;
398.4000;0.0895;-0.6661;
398.7000;0.0838;-0.6705;
399.0000;0.0855;-0.6638;
399.3000;0.0855;-0.6616;
399.6000;0.0773;-0.6793;
399.9000;0.0871;-0.6550;
400.2000;0.0863;-0.6550;
400.5000;0.0830;-0.6638;
400.8000;0.0863;-0.6594;
401.1000;0.0887;-0.6572;
401.4000;0.0855;-0.6550;
401.7000;0.0879;-0.6550;
402.0000;0.0904;-0.6594;
402.3000;0.0863;-0.6616;
402.6000;0.1034;-0.6129;
402.9000;0.0912;-0.6484;
403.2000;0.0895;-0.6417;
403.5000;0.0952;-0.6218;
403.8000;0.0887;-0.6329;
404.1000;0.0879;-0.6307;
404.4000;0.0887;-0.6373;
404.7000;0.0855;-0.6484;
405.0000;0.0863;-0.6417;
405.3000;0.0895;-0.6351;
405.6000;0.0895;-0.6461;
405.9000;0.0871;-0.6638;
406.2000;0.0879;-0.6616;
406.5000;0.0863;-0.6683;
406.8000;0.0855;-0.6638;
407.1000;0.0912;-0.6506;
407.4000;0.0871;-0.6506;
407.7000;0.0904;-0.6439;
408.0000;0.0879;-0.6550;
408.3000;0.0895;-0.6439;
408.6000;0.0871;-0.6484;
408.9000;0.0863;-0.6528;
409.2000;0.0879;-0.6506;
409.5000;0.0855;-0.6439;
409.8000;0.0863;-0.6439;
410.1000;0.0798;-0.6638;
410.4000;0.0871;-0.6484;
410.7000;0.0863;-0.6506;
411.0000;0.0847;-0.6638;
411.3000;0.0912;-0.6439;
411.6000;0.0879;-0.6484;
411.9000;0.0863;-0.6484;
412.2000;0.0879;-0.6439;
412.5000;0.0863;-0.6528;
412.8000;0.0912;-0.6395;
413.1000;0.0887;-0.6373;
413.4000;0.0863;-0.6461;
413.7000;0.0855;-0.6461;
414.0000;0.0879;-0.6439;
414.3000;0.0879;-0.6461;
414.6000;0.0871;-0.6484;
414.9000;0.0871;-0.6506;
415.2000;0.0871;-0.6550;
415.5000;0.0895;-0.6461;
415.8000;0.0855;-0.6506;
416.1000;0.0871;-0.6461;
416.4000;0.0912;-0.6417;
416.7000;0.0895;-0.6439;
417.0000;0.0887;-0.6506;
417.3000;0.0871;-0.6528;
417.6000;0.0855;-0.6528;
417.9000;0.0871;-0.6528;
418.2000;0.0904;-0.6461;
418.5000;0.0822;-0.6638;
418.8000;0.0871;-0.6528;
419.1000;0.0863;-0.6572;
419.4000;0.0887;-0.6506;
419.7000;0.0879;-0.6572;
420.0000;0.0863;-0.6638;
420.3000;0.0765;-0.6838;
420.6000;0.0871;-0.6616;
420.9000;0.0871;-0.6506;
421.2000;0.0904;-0.6439;
421.5000;0.0871;-0.6417;
421.8000;0.0863;-0.6461;
422.1000;0.0944;-0.6218;
422.4000;0.0871;-0.6284;
422.7000;0.0952;-0.6129;
423.0000;0.0879;-0.6373;
423.3000;0.0871;-0.6417;
423.6000;0.0912;-0.6395;
423.9000;0.0871;-0.6417;
424.2000;0.0887;-0.6329;
424.5000;0.0895;-0.6284;
424.8000;0.0879;-0.6351;
425.1000;0.0887;-0.6417;
425.4000;0.0904;-0.6373;
425.7000;0.0871;-0.6373;
426.0000;0.0871;-0.6329;
426.3000;0.0871;-0.6417;
426.6000;0.0879;-0.6417;
426.9000;0.0887;-0.6395;
427.2000;0.0879;-0.6373;
427.5000;0.0863;-0.6461;
427.8000;0.0912;-0.6417;
428.1000;0.0887;-0.6439;
428.4000;0.0838;-0.6594;
428.7000;0.0871;-0.6506;
429.0000;0.0887;-0.6506;
429.3000;0.0879;-0.6506;
429.6000;0.0838;-0.6616;
429.9000;0.0871;-0.6528;
430.2000;0.0895;-0.6484;
430.5000;0.0879;-0.6439;
430.8000;0.0847;-0.6461;
431.1000;0.0814;-0.6506;
431.4000;0.0952;-0.6107;
431.7000;0.0871;-0.6307;
432.0000;0.0887;-0.6196;
432.3000;0.0887;-0.6196;
432.6000;0.0887;-0.6307;
432.9000;0.0895;-0.6329;
433.2000;0.0863;-0.6417;
433.5000;0.0847;-0.6528;
433.8000;0.0871;-0.6506;
434.1000;0.0879;-0.6528;
434.4000;0.0871;-0.6506;
434.7000;0.0847;-0.6638;
435.0000;0.0904;-0.6528;
435.3000;0.0879;-0.6550;
435.6000;0.0912;-0.6506;
435.9000;0.0879;-0.6528;
436.2000;0.0871;-0.6616;
436.5000;0.0863;-0.6616;
436.8000;0.0895;-0.6572;
437.1000;0.0879;-0.6528;
437.4000;0.0904;-0.6439;
437.7000;0.0912;-0.6395;
438.0000;0.0871;-0.6506;
438.3000;0.0879;-0.6506;
438.6000;0.0863;-0.6550;
438.9000;0.0887;-0.6550;
439.2000;0.0904;-0.6461;
439.5000;0.0895;-0.6528;
439.8000;0.0863;-0.6572;
440.1000;0.0830;-0.6616;
440.4000;0.0863;-0.6572;
440.7000;0.0879;-0.6594;
441.0000;0.0871;-0.6638;
441.3000;0.0879;-0.6594;
441.6000;0.0879;-0.6550;
441.9000;0.0887;-0.6528;
442.2000;0.0887;-0.6594;
442.5000;0.0871;-0.6638;
442.8000;0.0871;-0.6727;
443.1000;0.0920;-0.6616;
443.4000;0.0904;-0.6572;
443.7000;0.0822;-0.6661;
444.0000;0.0806;-0.6771;
444.3000;0.0855;-0.6550;
444.6000;0.0806;-0.6661;
444.9000;0.0887;-0.6461;
445.2000;0.0855;-0.6550;
445.5000;0.0879;-0.6484;
445.8000;0.0895;-0.6461;
446.1000;0.0871;-0.6616;
446.4000;0.0855;-0.6616;
446.7000;0.0798;-0.6793;
447.0000;0.0912;-0.6506;
447.3000;0.0887;-0.6528;
447.6000;0.0920;-0.6373;
447.9000;0.0855;-0.6638;
448.2000;0.0879;-0.6572;
448.5000;0.0781;-0.6860;
448.8000;0.0887;-0.6616;
449.1000;0.0887;-0.6616;
449.4000;0.0814;-0.6793;
449.7000;0.0879;-0.6594;
450.0000;0.0871;-0.6594;
450.3000;0.0871;-0.6594;
450.6000;0.0879;-0.6638;
450.9000;0.0887;-0.6727;
451.2000;0.0887;-0.6661;
451.5000;0.0863;-0.6638;
451.8000;0.0871;-0.6572;
452.1000;0.0879;-0.6439;
452.4000;0.0993;-0.6218;
452.7000;0.0871;-0.6506;
453.0000;0.0887;-0.6461;
453.3000;0.0871;-0.6506;
453.6000;0.1009;-0.6174;
453.9000;0.0871;-0.6528;
454.2000;0.0879;-0.6484;
454.5000;0.0895;-0.6528;
454.8000;0.0879;-0.6528;
455.1000;0.0871;-0.6528;
455.4000;0.0887;-0.6484;
455.7000;0.0904;-0.6439;
456.0000;0.0838;-0.6550;
456.3000;0.0863;-0.6484;
456.6000;0.0847;-0.6616;
456.9000;0.0871;-0.6594;
457.2000;0.0879;-0.6594;
457.5000;0.0887;-0.6594;
457.8000;0.0887;-0.6616;
458.1000;0.0928;-0.6528;
458.4000;0.0928;-0.6373;
458.7000;0.0895;-0.6506;
459.0000;0.0928;-0.6395;
459.3000;0.0863;-0.6550;
459.6000;0.0879;-0.6506;
459.9000;0.0895;-0.6461;
460.2000;0.0879;-0.6484;
460.5000;0.0887;-0.6417;
460.8000;0.0887;-0.6417;
461.1000;0.0879;-0.6528;
461.4000;0.0847;-0.6638;
461.7000;0.0855;-0.6638;
462.0000;0.0993;-0.6284;
462.3000;0.0887;-0.6506;
462.6000;0.0895;-0.6528;
462.9000;0.0879;-0.6594;
463.2000;0.0863;-0.6661;
463.5000;0.0895;-0.6572;
463.8000;0.0887;-0.6572;
464.1000;0.0871;-0.6484;
464.4000;0.0847;-0.6594;
464.7000;0.0895;-0.6528;
465.0000;0.0871;-0.6683;
465.3000;0.0847;-0.6860;
465.6000;0.0879;-0.6815;
465.9000;0.0879;-0.6860;
466.2000;0.0863;-0.6860;
466.5000;0.0863;-0.6793;
466.8000;0.0879;-0.6683;
467.1000;0.0944;-0.6506;
467.4000;0.0887;-0.6616;
467.7000;0.0895;-0.6616;
468.0000;0.0847;-0.6683;
468.3000;0.0879;-0.6616;
468.6000;0.0855;-0.6683;
468.9000;0.0855;-0.6749;
469.2000;0.0822;-0.6838;
469.5000;0.0912;-0.6528;
469.8000;0.0887;-0.6638;
470.1000;0.0830;-0.6771;
470.4000;0.0904;-0.6616;
470.7000;0.0838;-0.6705;
471.0000;0.0879;-0.6616;
471.3000;0.0879;-0.6727;
471.6000;0.0838;-0.6793;
471.9000;0.0863;-0.6749;
472.2000;0.0863;-0.6661;
472.5000;0.0863;-0.6661;
472.8000;0.0863;-0.6661;
473.1000;0.0855;-0.6683;
473.4000;0.0798;-0.6838;
473.7000;0.0879;-0.6683;
474.0000;0.0887;-0.6683;
474.3000;0.0879;-0.6705;
474.6000;0.0814;-0.6727;
474.9000;0.0871;-0.6550;
475.2000;0.0887;-0.6484;
475.5000;0.0912;-0.6395;
475.8000;0.0879;-0.6484;
476.1000;0.0871;-0.6506;
476.4000;0.0838;-0.6550;
476.7000;0.0838;-0.6506;
477.0000;0.0952;-0.6218;
477.3000;0.0871;-0.6373;
477.6000;0.0879;-0.6329;
477.9000;0.0871;-0.6351;
478.2000;0.0928;-0.6284;
478.5000;0.0895;-0.6329;
478.8000;0.0863;-0.6329;
479.1000;0.0879;-0.6174;
479.4000;0.0887;-0.6240;
479.7000;0.0879;-0.6284;
480.0000;0.0822;-0.6550;
480.3000;0.0895;-0.6395;
480.6000;0.0887;-0.6395;
480.9000;0.0887;-0.6417;
481.2000;0.0863;-0.6439;
481.5000;0.0879;-0.6439;
481.8000;0.0879;-0.6550;
482.1000;0.0863;-0.6661;
482.4000;0.0887;-0.6594;
482.7000;0.0879;-0.6572;
483.0000;0.0847;-0.6594;
483.3000;0.0724;-0.6948;
483.6000;0.0920;-0.6506;
483.9000;0.0912;-0.6528;
484.2000;0.0887;-0.6616;
484.5000;0.0871;-0.6683;
484.8000;0.0879;-0.6727;
485.1000;0.0879;-0.6683;
485.4000;0.0871;-0.6661;
485.7000;0.0822;-0.6683;
486.0000;0.0863;-0.6638;
486.3000;0.0904;-0.6572;
486.6000;0.0887;-0.6661;
486.9000;0.0871;-0.6705;
487.2000;0.0847;-0.6838;
487.5000;0.0879;-0.6683;
487.8000;0.0879;-0.6749;
488.1000;0.0920;-0.6638;
488.4000;0.0863;-0.6705;
488.7000;0.0879;-0.6683;
489.0000;0.0887;-0.6594;
489.3000;0.0871;-0.6616;
489.6000;0.0863;-0.6616;
489.9000;0.0790;-0.6771;
490.2000;0.0920;-0.6461;
490.5000;0.0838;-0.6638;
490.8000;0.0806;-0.6749;
491.1000;0.0977;-0.6395;
491.4000;0.0855;-0.6683;
491.7000;0.0806;-0.6727;
492.0000;0.0895;-0.6484;
492.3000;0.0814;-0.6683;
492.6000;0.0863;-0.6506;
492.9000;0.0879;-0.6484;
493.2000;0.0928;-0.6461;
493.5000;0.0847;-0.6705;
493.8000;0.0887;-0.6572;
494.1000;0.0912;-0.6572;
494.4000;0.0887;-0.6616;
494.7000;0.0879;-0.6616;
495.0000;0.0863;-0.6661;
495.3000;0.0871;-0.6594;
495.6000;0.0887;-0.6550;
495.9000;0.0838;-0.6572;
496.2000;0.0847;-0.6638;
496.5000;0.0969;-0.6417;
496.8000;0.0904;-0.6506;
497.1000;0.0855;-0.6594;
497.4000;0.0855;-0.6550;
497.7000;0.0863;-0.6594;
498.0000;0.0879;-0.6550;
498.3000;0.0887;-0.6661;
498.6000;0.0887;-0.6616;
498.9000;0.0887;-0.6594;
499.2000;0.0912;-0.6550;
499.5000;0.0855;-0.6572;
499.8000;0.0895;-0.6417;
500.1000;0.0895;-0.6373;
500.4000;0.0904;-0.6417;
500.7000;0.0847;-0.6594;
501.0000;0.0871;-0.6528;
501.3000;0.0879;-0.6550;
501.6000;0.0879;-0.6506;
501.9000;0.0944;-0.6329;
502.2000;0.0887;-0.6484;
502.5000;0.0871;-0.6528;
502.8000;0.0879;-0.6550;
503.1000;0.0879;-0.6616;
503.4000;0.0863;-0.6528;
503.7000;0.0847;-0.6572;
504.0000;0.0871;-0.6572;
504.3000;0.0838;-0.6638;
504.6000;0.0871;-0.6572;
504.9000;0.0838;-0.6616;
505.2000;0.0887;-0.6528;
505.5000;0.0871;-0.6572;
505.8000;0.0879;-0.6594;
506.1000;0.0855;-0.6616;
506.4000;0.0790;-0.6771;
506.7000;0.0895;-0.6572;
507.0000;0.0879;-0.6550;
507.3000;0.0879;-0.6594;
507.6000;0.0887;-0.6528;
507.9000;0.0887;-0.6484;
508.2000;0.0830;-0.6616;
508.5000;0.0904;-0.6262;
508.8000;0.0879;-0.6307;
509.1000;0.0814;-0.6461;
509.4000;0.0806;-0.6461;
509.7000;0.0887;-0.6395;
510.0000;0.0830;-0.6417;
510.3000;0.0904;-0.6218;
510.6000;0.0855;-0.6439;
510.9000;0.0904;-0.6373;
511.2000;0.0830;-0.6616;
511.5000;0.0847;-0.6616;
511.8000;0.0936;-0.6417;
512.1000;0.0920;-0.6395;
512.4000;0.0790;-0.6727;
512.7000;0.0887;-0.6616;
513.0000;0.0838;-0.6638;
513.3000;0.0855;-0.6506;
513.6000;0.0928;-0.6240;
513.9000;0.0871;-0.6351;
514.2000;0.0838;-0.6506;
514.5000;0.0822;-0.6461;
514.8000;0.0920;-0.6307;
515.1000;0.0928;-0.6351;
515.4000;0.0879;-0.6506;
515.7000;0.0887;-0.6528;
516.0000;0.0863;-0.6439;
516.3000;0.0887;-0.6395;
516.6000;0.0838;-0.6550;
516.9000;0.0985;-0.6240;
517.2000;0.0879;-0.6550;
517.5000;0.0936;-0.6461;
517.8000;0.0855;-0.6638;
518.1000;0.0863;-0.6550;
518.4000;0.0895;-0.6461;
518.7000;0.0838;-0.6705;
519.0000;0.0887;-0.6638;
519.3000;0.0863;-0.6683;
519.6000;0.0895;-0.6572;
519.9000;0.0855;-0.6705;
520.2000;0.0879;-0.6683;
520.5000;0.0961;-0.6373;
520.8000;0.0895;-0.6484;
521.1000;0.0887;-0.6550;
521.4000;0.0855;-0.6661;
521.7000;0.0969;-0.6439;
522.0000;0.0904;-0.6550;
522.3000;0.0855;-0.6638;
522.6000;0.0855;-0.6683;
522.9000;0.0895;-0.6506;
523.2000;0.0871;-0.6572;
523.5000;0.0863;-0.6594;
523.8000;0.0887;-0.6461;
524.1000;0.0887;-0.6417;
524.4000;0.0847;-0.6528;
524.7000;0.0904;-0.6417;
525.0000;0.0887;-0.6439;
525.3000;0.0855;-0.6550;
525.6000;0.0895;-0.6461;
525.9000;0.0887;-0.6506;
526.2000;0.0904;-0.6506;
526.5000;0.0847;-0.6616;
526.8000;0.0847;-0.6572;
527.1000;0.0961;-0.6307;
527.4000;0.0863;-0.6484;
527.7000;0.0863;-0.6528;
528.0000;0.0936;-0.6373;
528.3000;0.0798;-0.6705;
528.6000;0.0806;-0.6572;
528.9000;0.0887;-0.6329;
529.2000;0.0871;-0.6417;
529.5000;0.0855;-0.6506;
529.8000;0.0887;-0.6461;
530.1000;0.0944;-0.6329;
530.4000;0.0895;-0.6484;
530.7000;0.0895;-0.6395;
531.0000;0.0863;-0.6528;
531.3000;0.0895;-0.6461;
531.6000;0.0855;-0.6484;
531.9000;0.0879;-0.6461;
532.2000;0.0895;-0.6439;
532.5000;0.0879;-0.6461;
532.8000;0.0855;-0.6572;
533.1000;0.0790;-0.6727;
533.4000;0.0993;-0.6174;
533.7000;0.0895;-0.6461;
534.0000;0.0879;-0.6528;
534.3000;0.0912;-0.6373;
534.6000;0.0847;-0.6528;
534.9000;0.0895;-0.6439;
535.2000;0.0928;-0.6439;
535.5000;0.0895;-0.6506;
535.8000;0.0847;-0.6594;
536.1000;0.0879;-0.6550;
536.4000;0.0855;-0.6594;
536.7000;0.0879;-0.6506;
537.0000;0.0912;-0.6351;
537.3000;0.0920;-0.6351;
537.6000;0.0871;-0.6329;
537.9000;0.0822;-0.6506;
538.2000;0.0961;-0.6196;
538.5000;0.0961;-0.6129;
538.8000;0.0847;-0.6417;
539.1000;0.0904;-0.6395;
539.4000;0.0855;-0.6506;
539.7000;0.0830;-0.6550;
540.0000;0.0871;-0.6439;
540.3000;0.0904;-0.6284;
540.6000;0.0871;-0.6461;
540.9000;0.0830;-0.6528;
541.2000;0.0887;-0.6284;
541.5000;0.0912;-0.6196;
541.8000;0.0855;-0.6439;
542.1000;0.0855;-0.6417;
542.4000;0.0847;-0.6484;
542.7000;0.0887;-0.6417;
543.0000;0.0887;-0.6484;
543.3000;0.0887;-0.6528;
543.6000;0.0871;-0.6550;
543.9000;0.0806;-0.6661;
544.2000;0.0871;-0.6506;
544.5000;0.0863;-0.6572;
544.8000;0.0871;-0.6616;
545.1000;0.0879;-0.6616;
545.4000;0.0847;-0.6705;
545.7000;0.0855;-0.6683;
546.0000;0.0855;-0.6661;
546.3000;0.0863;-0.6705;
546.6000;0.0863;-0.6683;
546.9000;0.0790;-0.6793;
547.2000;0.0879;-0.6616;
547.5000;0.0871;-0.6550;
547.8000;0.0855;-0.6572;
548.1000;0.0895;-0.6395;
548.4000;0.0895;-0.6284;
548.7000;0.0863;-0.6351;
549.0000;0.0863;-0.6373;
549.3000;0.0871;-0.6329;
549.6000;0.0838;-0.6373;
549.9000;0.1026;-0.5908;
550.2000;0.0790;-0.6572;
550.5000;0.0855;-0.6439;
550.8000;0.0904;-0.6351;
551.1000;0.0847;-0.6506;
551.4000;0.0838;-0.6528;
551.7000;0.0855;-0.6417;
552.0000;0.0871;-0.6439;
552.3000;0.0895;-0.6395;
552.6000;0.0961;-0.6107;
552.9000;0.0863;-0.6373;
553.2000;0.0920;-0.6218;
553.5000;0.0912;-0.6307;
553.8000;0.0847;-0.6506;
554.1000;0.0879;-0.6417;
554.4000;0.0863;-0.6439;
554.7000;0.0871;-0.6439;
555.0000;0.0887;-0.6461;
555.3000;0.0871;-0.6484;
555.6000;0.0920;-0.6395;
555.9000;0.0887;-0.6439;
556.2000;0.0879;-0.6417;
556.5000;0.0904;-0.6506;
556.8000;0.0773;-0.6838;
557.1000;0.0887;-0.6528;
557.4000;0.0904;-0.6484;
557.7000;0.0887;-0.6506;
558.0000;0.0863;-0.6484;
558.3000;0.0871;-0.6461;
558.6000;0.0887;-0.6417;
558.9000;0.0887;-0.6484;
559.2000;0.0871;-0.6484;
559.5000;0.0977;-0.6196;
559.8000;0.0749;-0.6771;
560.1000;0.0895;-0.6395;
560.4000;0.0871;-0.6351;
560.7000;0.0847;-0.6373;
561.0000;0.0781;-0.6616;
561.3000;0.0798;-0.6616;
561.6000;0.0879;-0.6506;
561.9000;0.0871;-0.6550;
562.2000;0.0871;-0.6572;
562.5000;0.0904;-0.6528;
562.8000;0.0920;-0.6351;
563.1000;0.0887;-0.6373;
563.4000;0.0838;-0.6439;
563.7000;0.0887;-0.6284;
564.0000;0.0895;-0.6262;
564.3000;0.0871;-0.6373;
564.6000;0.0863;-0.6417;
564.9000;0.0863;-0.6417;
565.2000;0.0871;-0.6373;
565.5000;0.0936;-0.6218;
565.8000;0.0871;-0.6373;
566.1000;0.0847;-0.6373;
566.4000;0.0871;-0.6395;
566.7000;0.0814;-0.6550;
567.0000;0.0879;-0.6351;
567.3000;0.0871;-0.6461;
567.6000;0.0847;-0.6528;
567.9000;0.0879;-0.6506;
568.2000;0.0887;-0.6594;
568.5000;0.0871;-0.6638;
568.8000;0.0904;-0.6528;
569.1000;0.0863;-0.6638;
569.4000;0.0920;-0.6528;
569.7000;0.0895;-0.6572;
570.0000;0.0863;-0.6550;
570.3000;0.0879;-0.6484;
570.6000;0.0952;-0.6373;
570.9000;0.0904;-0.6439;
571.2000;0.0871;-0.6484;
571.5000;0.0863;-0.6594;
571.8000;0.0871;-0.6550;
572.1000;0.0895;-0.6550;
572.4000;0.0822;-0.6727;
572.7000;0.0798;-0.6705;
573.0000;0.0879;-0.6506;
573.3000;0.0879;-0.6528;
573.6000;0.0871;-0.6550;
573.9000;0.0855;-0.6528;
574.2000;0.0895;-0.6484;
574.5000;0.0838;-0.6594;
574.8000;0.0863;-0.6506;
575.1000;0.0944;-0.6395;
575.4000;0.0879;-0.6506;
575.7000;0.0838;-0.6506;
576.0000;0.0879;-0.6461;
576.3000;0.0879;-0.6417;
576.6000;0.0895;-0.6439;
576.9000;0.0887;-0.6484;
577.2000;0.0863;-0.6528;
577.5000;0.0855;-0.6528;
577.8000;0.0871;-0.6351;
578.1000;0.0904;-0.6307;
578.4000;0.0879;-0.6439;
578.7000;0.0847;-0.6572;
579.0000;0.0847;-0.6550;
579.3000;0.0863;-0.6550;
579.6000;0.0879;-0.6417;
579.9000;0.0838;-0.6395;
580.2000;0.0887;-0.6329;
580.5000;0.0871;-0.6395;
580.8000;0.0855;-0.6484;
581.1000;0.0863;-0.6417;
581.4000;0.0904;-0.6395;
581.7000;0.0863;-0.6484;
582.0000;0.0887;-0.6329;
582.3000;0.0895;-0.6262;
582.6000;0.0887;-0.6351;
582.9000;0.0961;-0.6129;
583.2000;0.0822;-0.6506;
583.5000;0.0879;-0.6373;
583.8000;0.0806;-0.6594;
584.1000;0.0781;-0.6594;
584.4000;0.0904;-0.6262;
584.7000;0.0838;-0.6506;
585.0000;0.0838;-0.6572;
585.3000;0.0969;-0.6284;
585.6000;0.0863;-0.6506;
585.9000;0.0871;-0.6395;
586.2000;0.0879;-0.6417;
586.5000;0.0871;-0.6506;
586.8000;0.0879;-0.6461;
587.1000;0.0879;-0.6395;
587.4000;0.0822;-0.6528;
587.7000;0.0887;-0.6373;
588.0000;0.0847;-0.6461;
588.3000;0.0887;-0.6351;
588.6000;0.0895;-0.6329;
588.9000;0.0863;-0.6461;
589.2000;0.0961;-0.6240;
589.5000;0.0847;-0.6506;
589.8000;0.0952;-0.6373;
590.1000;0.0871;-0.6638;
590.4000;0.0871;-0.6594;
590.7000;0.0879;-0.6528;
591.0000;0.0863;-0.6572;
591.3000;0.0838;-0.6616;
591.6000;0.0895;-0.6417;
591.9000;0.0830;-0.6594;
592.2000;0.0879;-0.6461;
592.5000;0.0887;-0.6395;
592.8000;0.0871;-0.6395;
593.1000;0.0887;-0.6417;
593.4000;0.0838;-0.6572;
593.7000;0.0871;-0.6528;
594.0000;0.0887;-0.6528;
594.3000;0.0879;-0.6638;
594.6000;0.0879;-0.6572;
594.9000;0.0863;-0.6528;
595.2000;0.0847;-0.6528;
595.5000;0.0887;-0.6417;
595.8000;0.0904;-0.6439;
596.1000;0.0855;-0.6572;
596.4000;0.0904;-0.6461;
596.7000;0.0887;-0.6395;
597.0000;0.0887;-0.6373;
597.3000;0.0863;-0.6461;
597.6000;0.0895;-0.6461;
597.9000;0.0887;-0.6484;
598.2000;0.0814;-0.6727;
598.5000;0.0887;-0.6572;
598.8000;0.0912;-0.6528;
599.1000;0.0863;-0.6572;
599.4000;0.0863;-0.6506;
599.7000;0.0895;-0.6395;
600.0000;0.0895;-0.6373;
600.3000;0.0855;-0.6550;
600.6000;0.0838;-0.6550;
600.9000;0.0814;-0.6705;
601.2000;0.0863;-0.6683;
601.5000;0.0830;-0.6771;
601.8000;0.0855;-0.6771;
602.1000;0.0838;-0.6838;
602.4000;0.0847;-0.6970;
602.7000;0.0790;-0.7103;
603.0000;0.0814;-0.7125;
603.3000;0.0830;-0.7170;
603.6000;0.0904;-0.7103;
603.9000;0.0830;-0.7324;
604.2000;0.0781;-0.7501;
604.5000;0.0781;-0.7590;
604.8000;0.0830;-0.7590;
605.1000;0.0806;-0.7568;
605.4000;0.0822;-0.7590;
605.7000;0.0847;-0.7678;
606.0000;0.0855;-0.7745;
606.3000;0.0887;-0.7678;
606.6000;0.0635;-0.8187;
606.9000;0.0838;-0.7789;
607.2000;0.0757;-0.7966;
607.5000;0.0781;-0.7811;
607.8000;0.0676;-0.8077;
608.1000;0.0700;-0.7900;
608.4000;0.0920;-0.7479;
608.7000;0.0773;-0.7767;
609.0000;0.0879;-0.7479;
609.3000;0.0651;-0.7944;
609.6000;0.0781;-0.7701;
609.9000;0.0790;-0.7789;
610.2000;0.0781;-0.7878;
610.5000;0.0765;-0.7944;
610.8000;0.0773;-0.7988;
611.1000;0.0765;-0.8010;
611.4000;0.0773;-0.7878;
611.7000;0.0749;-0.7966;
612.0000;0.0798;-0.7789;
612.3000;0.0814;-0.7855;
612.6000;0.0814;-0.7922;
612.9000;0.0765;-0.7944;
613.2000;0.0781;-0.7878;
613.5000;0.0692;-0.8055;
613.8000;0.0733;-0.7900;
614.1000;0.0773;-0.7789;
614.4000;0.0798;-0.7745;
614.7000;0.0757;-0.7966;
615.0000;0.0684;-0.8143;
615.3000;0.0765;-0.7988;
615.6000;0.0765;-0.8010;
615.9000;0.0798;-0.7944;
616.2000;0.0773;-0.8010;
616.5000;0.0790;-0.7944;
616.8000;0.0830;-0.7811;
617.1000;0.0692;-0.8077;
617.4000;0.0757;-0.7833;
617.7000;0.0798;-0.7745;
618.0000;0.0749;-0.7811;
618.3000;0.0757;-0.7745;
618.6000;0.0749;-0.7900;
618.9000;0.0773;-0.7922;
619.2000;0.0765;-0.7878;
619.5000;0.0757;-0.7745;
619.8000;0.0798;-0.7723;
620.1000;0.0757;-0.7767;
620.4000;0.0741;-0.7767;
620.7000;0.0716;-0.7878;
621.0000;0.0749;-0.7767;
621.3000;0.0757;-0.7789;
621.6000;0.0757;-0.7723;
621.9000;0.0749;-0.7701;
622.2000;0.0741;-0.7745;
622.5000;0.0733;-0.7789;
622.8000;0.0749;-0.7723;
623.1000;0.0602;-0.8099;
623.4000;0.0733;-0.7855;
623.7000;0.0749;-0.7944;
624.0000;0.0765;-0.7811;
624.3000;0.0741;-0.7878;
624.6000;0.0781;-0.7900;
624.9000;0.0741;-0.7944;
625.2000;0.0659;-0.8254;
625.5000;0.0757;-0.8099;
625.8000;0.0724;-0.8254;
626.1000;0.0765;-0.8187;
626.4000;0.0790;-0.8121;
626.7000;0.0741;-0.8232;
627.0000;0.0700;-0.8254;
627.3000;0.0765;-0.8077;
627.6000;0.0676;-0.8276;
627.9000;0.0733;-0.8187;
628.2000;0.0773;-0.8165;
628.5000;0.0741;-0.8232;
628.8000;0.0790;-0.8055;
629.1000;0.0716;-0.8210;
629.4000;0.0741;-0.8143;
629.7000;0.0692;-0.8143;
630.0000;0.0733;-0.7988;
630.3000;0.0830;-0.7811;
630.6000;0.0724;-0.8010;
630.9000;0.0708;-0.7988;
631.2000;0.0749;-0.7833;
631.5000;0.0716;-0.7878;
631.8000;0.0806;-0.7568;
632.1000;0.0781;-0.7590;
632.4000;0.0814;-0.7524;
632.7000;0.0855;-0.7347;
633.0000;0.0692;-0.7811;
633.3000;0.0741;-0.7678;
633.6000;0.0773;-0.7656;
633.9000;0.0757;-0.7723;
634.2000;0.0773;-0.7767;
634.5000;0.0741;-0.7900;
634.8000;0.0733;-0.7922;
635.1000;0.0765;-0.7833;
635.4000;0.0741;-0.7900;
635.7000;0.0806;-0.7833;
636.0000;0.0716;-0.8055;
636.3000;0.0724;-0.7988;
636.6000;0.0757;-0.7944;
636.9000;0.0741;-0.7966;
637.2000;0.0757;-0.7944;
637.5000;0.0724;-0.7944;
637.8000;0.0724;-0.7966;
638.1000;0.0700;-0.8055;
638.4000;0.0741;-0.8010;
638.7000;0.0749;-0.8010;
639.0000;0.0733;-0.8033;
639.3000;0.0733;-0.8010;
639.6000;0.0749;-0.7966;
639.9000;0.0798;-0.7833;
640.2000;0.0757;-0.7922;
640.5000;0.0757;-0.7966;
640.8000;0.0781;-0.7878;
641.1000;0.0765;-0.7855;
641.4000;0.0765;-0.7878;
641.7000;0.0733;-0.7966;
642.0000;0.0724;-0.7922;
642.3000;0.0724;-0.7922;
642.6000;0.0733;-0.7878;
642.9000;0.0733;-0.7789;
643.2000;0.0765;-0.7723;
643.5000;0.0733;-0.7767;
643.8000;0.0741;-0.7745;
644.1000;0.0765;-0.7701;
644.4000;0.0765;-0.7723;
644.7000;0.0757;-0.7767;
645.0000;0.0724;-0.7833;
645.3000;0.0692;-0.7966;
645.6000;0.0708;-0.7966;
645.9000;0.0700;-0.7855;
646.2000;0.0741;-0.7811;
646.5000;0.0716;-0.7900;
646.8000;0.0733;-0.7878;
647.1000;0.0651;-0.8099;
647.4000;0.0765;-0.7900;
647.7000;0.0733;-0.7878;
648.0000;0.0716;-0.7833;
648.3000;0.0733;-0.7767;
648.6000;0.0724;-0.7723;
648.9000;0.0741;-0.7701;
649.2000;0.0879;-0.7369;
649.5000;0.0741;-0.7701;
649.8000;0.0773;-0.7590;
650.1000;0.0733;-0.7678;
650.4000;0.0733;-0.7723;
650.7000;0.0716;-0.7745;
651.0000;0.0708;-0.7723;
651.3000;0.0724;-0.7745;
651.6000;0.0741;-0.7723;
651.9000;0.0716;-0.7789;
652.2000;0.0724;-0.7723;
652.5000;0.0765;-0.7656;
652.8000;0.0741;-0.7701;
653.1000;0.0684;-0.7767;
653.4000;0.0741;-0.7634;
653.7000;0.0716;-0.7656;
654.0000;0.0692;-0.7745;
654.3000;0.0724;-0.7656;
654.6000;0.0651;-0.7833;
654.9000;0.0611;-0.7878;
655.2000;0.0724;-0.7634;
655.5000;0.0757;-0.7501;
655.8000;0.0684;-0.7656;
656.1000;0.0724;-0.7590;
656.4000;0.0741;-0.7590;
656.7000;0.0741;-0.7568;
657.0000;0.0700;-0.7546;
657.3000;0.0724;-0.7457;
657.6000;0.0724;-0.7524;
657.9000;0.0757;-0.7479;
658.2000;0.0724;-0.7546;
658.5000;0.0716;-0.7612;
658.8000;0.0749;-0.7479;
659.1000;0.0724;-0.7457;
659.4000;0.0798;-0.7369;
659.7000;0.0724;-0.7546;
660.0000;0.0716;-0.7590;
660.3000;0.0749;-0.7634;
660.6000;0.0773;-0.7546;
660.9000;0.0724;-0.7723;
661.2000;0.0757;-0.7634;
661.5000;0.0627;-0.7922;
661.8000;0.0708;-0.7745;
662.1000;0.0765;-0.7656;
662.4000;0.0724;-0.7701;
662.7000;0.0724;-0.7723;
663.0000;0.0741;-0.7701;
663.3000;0.0757;-0.7656;
663.6000;0.0765;-0.7701;
663.9000;0.0724;-0.7745;
664.2000;0.0741;-0.7723;
664.5000;0.0830;-0.7524;
664.8000;0.0724;-0.7745;
665.1000;0.0708;-0.7767;
665.4000;0.0716;-0.7656;
665.7000;0.0741;-0.7612;
666.0000;0.0741;-0.7634;
666.3000;0.0708;-0.7634;
666.6000;0.0724;-0.7634;
666.9000;0.0741;-0.7634;
667.2000;0.0692;-0.7723;
667.5000;0.0716;-0.7612;
667.8000;0.0749;-0.7568;
668.1000;0.0798;-0.7479;
668.4000;0.0667;-0.7789;
668.7000;0.0676;-0.7789;
669.0000;0.0716;-0.7745;
669.3000;0.0733;-0.7723;
669.6000;0.0733;-0.7656;
669.9000;0.0716;-0.7678;
670.2000;0.0822;-0.7501;
670.5000;0.0708;-0.7767;
670.8000;0.0724;-0.7745;
671.1000;0.0676;-0.7900;
671.4000;0.0716;-0.7811;
671.7000;0.0733;-0.7789;
672.0000;0.0733;-0.7678;
672.3000;0.0708;-0.7701;
672.6000;0.0733;-0.7634;
672.9000;0.0716;-0.7678;
673.2000;0.0724;-0.7678;
673.5000;0.0724;-0.7656;
673.8000;0.0716;-0.7723;
674.1000;0.0733;-0.7723;
674.4000;0.0733;-0.7767;
674.7000;0.0733;-0.7789;
675.0000;0.0724;-0.7723;
675.3000;0.0724;-0.7811;
675.6000;0.0716;-0.7789;
675.9000;0.0716;-0.7767;
676.2000;0.0724;-0.7745;
676.5000;0.0659;-0.7900;
676.8000;0.0716;-0.7723;
677.1000;0.0692;-0.7811;
677.4000;0.0749;-0.7701;
677.7000;0.0733;-0.7745;
678.0000;0.0619;-0.7966;
678.3000;0.0716;-0.7723;
678.6000;0.0757;-0.7634;
678.9000;0.0741;-0.7678;
679.2000;0.0733;-0.7723;
679.5000;0.0790;-0.7634;
679.8000;0.0708;-0.7701;
680.1000;0.0700;-0.7745;
680.4000;0.0700;-0.7767;
680.7000;0.0733;-0.7745;
681.0000;0.0790;-0.7678;
681.3000;0.0749;-0.7789;
681.6000;0.0708;-0.7811;
681.9000;0.0830;-0.7501;
682.2000;0.0700;-0.7855;
682.5000;0.0733;-0.7789;
682.8000;0.0700;-0.7878;
683.1000;0.0708;-0.7878;
683.4000;0.0676;-0.7966;
683.7000;0.0708;-0.7900;
684.0000;0.0708;-0.7944;
684.3000;0.0708;-0.7900;
684.6000;0.0667;-0.7900;
684.9000;0.0733;-0.7767;
685.2000;0.0708;-0.7745;
685.5000;0.0724;-0.7745;
685.8000;0.0741;-0.7723;
686.1000;0.0741;-0.7723;
686.4000;0.0716;-0.7833;
686.7000;0.0716;-0.7900;
687.0000;0.0724;-0.7855;
687.3000;0.0733;-0.7855;
687.6000;0.0724;-0.7789;
687.9000;0.0749;-0.7723;
688.2000;0.0741;-0.7723;
688.5000;0.0708;-0.7767;
688.8000;0.0733;-0.7767;
689.1000;0.0708;-0.7745;
689.4000;0.0716;-0.7811;
689.7000;0.0708;-0.7789;
690.0000;0.0733;-0.7789;
690.3000;0.0708;-0.7811;
690.6000;0.0708;-0.7745;
690.9000;0.0716;-0.7701;
691.2000;0.0692;-0.7811;
691.5000;0.0741;-0.7745;
691.8000;0.0659;-0.7900;
692.1000;0.0749;-0.7634;
692.4000;0.0651;-0.7878;
692.7000;0.0733;-0.7656;
693.0000;0.0692;-0.7656;
693.3000;0.0724;-0.7501;
693.6000;0.0749;-0.7501;
693.9000;0.0676;-0.7723;
694.2000;0.0676;-0.7767;
694.5000;0.0716;-0.7678;
694.8000;0.0700;-0.7745;
695.1000;0.0692;-0.7811;
695.4000;0.0692;-0.7767;
695.7000;0.0716;-0.7767;
696.0000;0.0700;-0.7767;
696.3000;0.0708;-0.7723;
696.6000;0.0708;-0.7723;
696.9000;0.0741;-0.7723;
697.2000;0.0684;-0.7833;
697.5000;0.0724;-0.7678;
697.8000;0.0733;-0.7723;
698.1000;0.0692;-0.7789;
698.4000;0.0651;-0.7966;
698.7000;0.0700;-0.7789;
699.0000;0.0716;-0.7745;
699.3000;0.0635;-0.7944;
699.6000;0.0708;-0.7745;
699.9000;0.0716;-0.7723;
700.2000;0.0741;-0.7701;
700.5000;0.0781;-0.7612;
700.8000;0.0822;-0.7501;
701.1000;0.0724;-0.7723;
701.4000;0.0724;-0.7745;
701.7000;0.0798;-0.7501;
702.0000;0.0724;-0.7678;
702.3000;0.0806;-0.7435;
702.6000;0.0635;-0.7944;
702.9000;0.0733;-0.7656;
703.2000;0.0741;-0.7701;
703.5000;0.0724;-0.7745;
703.8000;0.0700;-0.7789;
704.1000;0.0716;-0.7767;
704.4000;0.0733;-0.7767;
704.7000;0.0855;-0.7457;
705.0000;0.0757;-0.7678;
705.3000;0.0659;-0.7900;
705.6000;0.0741;-0.7678;
705.9000;0.0733;-0.7678;
706.2000;0.0708;-0.7678;
706.5000;0.0700;-0.7656;
706.8000;0.0716;-0.7678;
707.1000;0.0724;-0.7656;
707.4000;0.0692;-0.7789;
707.7000;0.0733;-0.7723;
708.0000;0.0708;-0.7745;
708.3000;0.0700;-0.7678;
708.6000;0.0716;-0.7634;
708.9000;0.0871;-0.7258;
709.2000;0.0692;-0.7767;
709.5000;0.0684;-0.7811;
709.8000;0.0716;-0.7745;
710.1000;0.0716;-0.7745;
710.4000;0.0700;-0.7745;
710.7000;0.0716;-0.7811;
711.0000;0.0724;-0.7855;
711.3000;0.0692;-0.7944;
711.6000;0.0724;-0.7922;
711.9000;0.0708;-0.8033;
712.2000;0.0716;-0.8055;
712.5000;0.0733;-0.7966;
712.8000;0.0724;-0.7922;
713.1000;0.0724;-0.7944;
713.4000;0.0716;-0.8055;
713.7000;0.0716;-0.7966;
714.0000;0.0716;-0.8033;
714.3000;0.0741;-0.7878;
714.6000;0.0716;-0.7922;
714.9000;0.0724;-0.7944;
715.2000;0.0692;-0.7988;
715.5000;0.0733;-0.7855;
715.8000;0.0676;-0.8033;
716.1000;0.0757;-0.7789;
716.4000;0.0724;-0.7833;
716.7000;0.0724;-0.7767;
717.0000;0.0733;-0.7789;
717.3000;0.0635;-0.8055;
717.6000;0.0708;-0.7833;
717.9000;0.0708;-0.7745;
718.2000;0.0749;-0.7701;
718.5000;0.0716;-0.7745;
718.8000;0.0708;-0.7745;
719.1000;0.0757;-0.7701;
719.4000;0.0724;-0.7701;
719.7000;0.0700;-0.7745;
720.0000;0.0708;-0.7701;
720.3000;0.0716;-0.7723;
720.6000;0.0716;-0.7745;
720.9000;0.0692;-0.7789;
721.2000;0.0733;-0.7678;
721.5000;0.0741;-0.7745;
721.8000;0.0716;-0.7767;
722.1000;0.0659;-0.7922;
722.4000;0.0765;-0.7701;
722.7000;0.0724;-0.7789;
723.0000;0.0708;-0.7789;
723.3000;0.0635;-0.7966;
723.6000;0.0733;-0.7723;
723.9000;0.0667;-0.7966;
724.2000;0.0757;-0.7723;
724.5000;0.0724;-0.7767;
724.8000;0.0692;-0.7900;
725.1000;0.0757;-0.7767;
725.4000;0.0667;-0.7988;
725.7000;0.0692;-0.7944;
726.0000;0.0692;-0.7966;
726.3000;0.0765;-0.7745;
726.6000;0.0749;-0.7767;
726.9000;0.0692;-0.7878;
727.2000;0.0700;-0.7900;
727.5000;0.0708;-0.7922;
727.8000;0.0724;-0.7944;
728.1000;0.0708;-0.7944;
728.4000;0.0724;-0.7878;
728.7000;0.0724;-0.7900;
729.0000;0.0757;-0.7833;
729.3000;0.0757;-0.7789;
729.6000;0.0700;-0.7833;
729.9000;0.0733;-0.7811;
730.2000;0.0684;-0.7878;
730.5000;0.0716;-0.7833;
730.8000;0.0692;-0.7900;
731.1000;0.0692;-0.7922;
731.4000;0.0635;-0.8010;
731.7000;0.0692;-0.7878;
732.0000;0.0724;-0.7855;
732.3000;0.0708;-0.7966;
732.6000;0.0724;-0.7944;
732.9000;0.0741;-0.7878;
733.2000;0.0724;-0.7878;
733.5000;0.0724;-0.7745;
733.8000;0.0716;-0.7745;
734.1000;0.0749;-0.7723;
734.4000;0.0716;-0.7767;
734.7000;0.0724;-0.7789;
735.0000;0.0700;-0.7745;
735.3000;0.0708;-0.7723;
735.6000;0.0692;-0.7656;
735.9000;0.0724;-0.7546;
736.2000;0.0700;-0.7701;
736.5000;0.0692;-0.7678;
736.8000;0.0684;-0.7723;
737.1000;0.0733;-0.7656;
737.4000;0.0724;-0.7656;
737.7000;0.0716;-0.7701;
738.0000;0.0765;-0.7524;
738.3000;0.0684;-0.7811;
738.6000;0.0708;-0.7701;
738.9000;0.0708;-0.7701;
739.2000;0.0765;-0.7501;
739.5000;0.0708;-0.7590;
739.8000;0.0684;-0.7656;
740.1000;0.0578;-0.7922;
740.4000;0.0773;-0.7524;
740.7000;0.0757;-0.7568;
741.0000;0.0741;-0.7656;
741.3000;0.0676;-0.7855;
741.6000;0.0708;-0.7789;
741.9000;0.0716;-0.7723;
742.2000;0.0724;-0.7701;
742.5000;0.0749;-0.7656;
742.8000;0.0741;-0.7656;
743.1000;0.0724;-0.7723;
743.4000;0.0708;-0.7789;
743.7000;0.0716;-0.7723;
744.0000;0.0700;-0.7789;
744.3000;0.0708;-0.7767;
744.6000;0.0692;-0.7833;
744.9000;0.0692;-0.7900;
745.2000;0.0716;-0.7767;
745.5000;0.0700;-0.7789;
745.8000;0.0733;-0.7745;
746.1000;0.0716;-0.7701;
746.4000;0.0716;-0.7678;
746.7000;0.0765;-0.7612;
747.0000;0.0741;-0.7678;
747.3000;0.0724;-0.7745;
747.6000;0.0716;-0.7833;
747.9000;0.0651;-0.8099;
748.2000;0.0692;-0.7966;
748.5000;0.0708;-0.7944;
748.8000;0.0700;-0.7878;
749.1000;0.0741;-0.7745;
749.4000;0.0724;-0.7767;
749.7000;0.0773;-0.7634;
750.0000;0.0635;-0.7966;
750.3000;0.0741;-0.7678;
750.6000;0.0700;-0.7745;
750.9000;0.0716;-0.7701;
751.2000;0.0741;-0.7612;
751.5000;0.0659;-0.7855;
751.8000;0.0733;-0.7656;
752.1000;0.0700;-0.7767;
752.4000;0.0700;-0.7789;
752.7000;0.0708;-0.7789;
753.0000;0.0724;-0.7745;
753.3000;0.0708;-0.7701;
753.6000;0.0741;-0.7656;
753.9000;0.0724;-0.7656;
754.2000;0.0716;-0.7701;
754.5000;0.0667;-0.7811;
754.8000;0.0708;-0.7723;
755.1000;0.0684;-0.7767;
755.4000;0.0716;-0.7678;
755.7000;0.0716;-0.7634;
756.0000;0.0733;-0.7590;
756.3000;0.0708;-0.7701;
756.6000;0.0733;-0.7745;
756.9000;0.0724;-0.7701;
757.2000;0.0708;-0.7767;
757.5000;0.0781;-0.7723;
757.8000;0.0716;-0.7922;
758.1000;0.0716;-0.7900;
758.4000;0.0724;-0.7900;
758.7000;0.0757;-0.7811;
759.0000;0.0749;-0.7833;
759.3000;0.0749;-0.7833;
759.6000;0.0684;-0.7900;
759.9000;0.0716;-0.7811;
760.2000;0.0749;-0.7701;
760.5000;0.0708;-0.7767;
760.8000;0.0781;-0.7590;
761.1000;0.0659;-0.7855;
761.4000;0.0724;-0.7811;
761.7000;0.0643;-0.7988;
762.0000;0.0708;-0.7855;
762.3000;0.0765;-0.7723;
762.6000;0.0765;-0.7767;
762.9000;0.0692;-0.7966;
763.2000;0.0700;-0.7900;
763.5000;0.0659;-0.7944;
763.8000;0.0635;-0.8033;
764.1000;0.0708;-0.7900;
764.4000;0.0798;-0.7678;
764.7000;0.0814;-0.7723;
765.0000;0.0716;-0.7966;
765.3000;0.0708;-0.7988;
765.6000;0.0757;-0.7855;
765.9000;0.0708;-0.7988;
766.2000;0.0716;-0.7966;
766.5000;0.0724;-0.7988;
766.8000;0.0692;-0.8121;
767.1000;0.0749;-0.8055;
767.4000;0.0700;-0.8165;
767.7000;0.0757;-0.8033;
768.0000;0.0733;-0.8077;
768.3000;0.0716;-0.8099;
768.6000;0.0733;-0.7922;
768.9000;0.0724;-0.8010;
769.2000;0.0716;-0.8010;
769.5000;0.0708;-0.7922;
769.8000;0.0692;-0.8033;
770.1000;0.0708;-0.8010;
770.4000;0.0716;-0.7922;
770.7000;0.0724;-0.7900;
771.0000;0.0716;-0.7988;
771.3000;0.0643;-0.8165;
771.6000;0.0724;-0.7966;
771.9000;0.0806;-0.7745;
772.2000;0.0716;-0.7900;
772.5000;0.0676;-0.8099;
772.8000;0.0708;-0.8010;
773.1000;0.0733;-0.8033;
773.4000;0.0724;-0.8010;
773.7000;0.0708;-0.8077;
774.0000;0.0651;-0.8187;
774.3000;0.0716;-0.8010;
774.6000;0.0724;-0.8033;
774.9000;0.0716;-0.8077;
775.2000;0.0741;-0.7966;
775.5000;0.0757;-0.7900;
775.8000;0.0716;-0.7878;
776.1000;0.0741;-0.7900;
776.4000;0.0741;-0.7855;
776.7000;0.0749;-0.7855;
777.0000;0.0724;-0.7811;
777.3000;0.0716;-0.7833;
777.6000;0.0847;-0.7479;
777.9000;0.0692;-0.7878;
778.2000;0.0741;-0.7767;
778.5000;0.0765;-0.7701;
778.8000;0.0741;-0.7745;
779.1000;0.0676;-0.7878;
779.4000;0.0733;-0.7656;
779.7000;0.0830;-0.7391;
780.0000;0.0716;-0.7656;
780.3000;0.0716;-0.7789;
780.6000;0.0684;-0.7833;
780.9000;0.0627;-0.7988;
781.2000;0.0716;-0.7745;
781.5000;0.0708;-0.7811;
781.8000;0.0667;-0.7922;
782.1000;0.0684;-0.7900;
782.4000;0.0700;-0.7922;
782.7000;0.0765;-0.7723;
783.0000;0.0692;-0.7811;
783.3000;0.0611;-0.8055;
783.6000;0.0733;-0.7833;
783.9000;0.0724;-0.7811;
784.2000;0.0700;-0.7922;
784.5000;0.0716;-0.7922;
784.8000;0.0733;-0.7833;
785.1000;0.0724;-0.7944;
785.4000;0.0700;-0.8033;
785.7000;0.0773;-0.7855;
786.0000;0.0716;-0.7922;
786.3000;0.0578;-0.8210;
786.6000;0.0708;-0.7811;
786.9000;0.0830;-0.7546;
787.2000;0.0724;-0.7811;
787.5000;0.0741;-0.7701;
787.8000;0.0708;-0.7811;
788.1000;0.0724;-0.7701;
788.4000;0.0724;-0.7745;
788.7000;0.0733;-0.7789;
789.0000;0.0724;-0.7944;
789.3000;0.0773;-0.7878;
789.6000;0.0708;-0.8010;
789.9000;0.0724;-0.8010;
790.2000;0.0724;-0.7855;
790.5000;0.0716;-0.7855;
790.8000;0.0741;-0.7811;
791.1000;0.0716;-0.7855;
791.4000;0.0700;-0.7833;
791.7000;0.0651;-0.7944;
792.0000;0.0781;-0.7590;
792.3000;0.0863;-0.7435;
792.6000;0.0724;-0.7833;
792.9000;0.0733;-0.7855;
793.2000;0.0733;-0.7833;
793.5000;0.0708;-0.7855;
793.8000;0.0749;-0.7833;
794.1000;0.0708;-0.7922;
794.4000;0.0724;-0.7900;
794.7000;0.0708;-0.8010;
795.0000;0.0716;-0.7900;
795.3000;0.0765;-0.7789;
795.6000;0.0708;-0.7767;
795.9000;0.0733;-0.7745;
796.2000;0.0724;-0.7767;
796.5000;0.0724;-0.7833;
796.8000;0.0733;-0.7855;
797.1000;0.0700;-0.7988;
797.4000;0.0676;-0.8121;
797.7000;0.0724;-0.7966;
798.0000;0.0708;-0.7900;
798.3000;0.0708;-0.7922;
798.6000;0.0708;-0.7900;
798.9000;0.0733;-0.7811;
799.2000;0.0741;-0.7789;
799.5000;0.0700;-0.7988;
799.8000;0.0741;-0.7878;
800.1000;0.0708;-0.7944;
800.4000;0.0790;-0.7723;
800.7000;0.0676;-0.7922;
801.0000;0.0708;-0.7789;
801.3000;0.0708;-0.7767;
801.6000;0.0700;-0.7745;
801.9000;0.0708;-0.7811;
802.2000;0.0586;-0.8099;
802.5000;0.0692;-0.7900;
802.8000;0.0724;-0.7900;
803.1000;0.0716;-0.7878;
803.4000;0.0716;-0.7745;
803.7000;0.0749;-0.7656;
804.0000;0.0741;-0.7656;
804.3000;0.0708;-0.7678;
804.6000;0.0708;-0.7723;
804.9000;0.0716;-0.7678;
805.2000;0.0724;-0.7745;
805.5000;0.0749;-0.7767;
805.8000;0.0700;-0.7833;
806.1000;0.0716;-0.7855;
806.4000;0.0749;-0.7767;
806.7000;0.0692;-0.7767;
807.0000;0.0757;-0.7723;
807.3000;0.0716;-0.7855;
807.6000;0.0708;-0.7767;
807.9000;0.0724;-0.7811;
808.2000;0.0716;-0.7833;
808.5000;0.0716;-0.7833;
808.8000;0.0716;-0.7833;
809.1000;0.0716;-0.7811;
809.4000;0.0724;-0.7745;
809.7000;0.0708;-0.7745;
810.0000;0.0716;-0.7745;
810.3000;0.0765;-0.7767;
810.6000;0.0708;-0.7900;
810.9000;0.0684;-0.7966;
811.2000;0.0594;-0.8165;
811.5000;0.0700;-0.7811;
811.8000;0.0716;-0.7745;
812.1000;0.0651;-0.7900;
812.4000;0.0716;-0.7723;
812.7000;0.0749;-0.7634;
813.0000;0.0724;-0.7701;
813.3000;0.0708;-0.7723;
813.6000;0.0724;-0.7678;
813.9000;0.0684;-0.7656;
814.2000;0.0733;-0.7612;
814.5000;0.0708;-0.7656;
814.8000;0.0700;-0.7656;
815.1000;0.0724;-0.7634;
815.4000;0.0806;-0.7369;
815.7000;0.0724;-0.7568;
816.0000;0.0724;-0.7568;
816.3000;0.0733;-0.7501;
816.6000;0.0692;-0.7590;
816.9000;0.0716;-0.7568;
817.2000;0.0724;-0.7590;
817.5000;0.0700;-0.7634;
817.8000;0.0741;-0.7546;
818.1000;0.0700;-0.7546;
818.4000;0.0667;-0.7656;
818.7000;0.0757;-0.7457;
819.0000;0.0692;-0.7590;
819.3000;0.0676;-0.7656;
819.6000;0.0790;-0.7457;
819.9000;0.0692;-0.7723;
820.2000;0.0716;-0.7745;
820.5000;0.0708;-0.7789;
820.8000;0.0708;-0.7723;
821.1000;0.0708;-0.7789;
821.4000;0.0700;-0.7878;
821.7000;0.0716;-0.7922;
822.0000;0.0749;-0.7745;
822.3000;0.0700;-0.7811;
822.6000;0.0700;-0.7745;
822.9000;0.0684;-0.7811;
823.2000;0.0716;-0.7833;
823.5000;0.0708;-0.7922;
823.8000;0.0716;-0.7855;
824.1000;0.0716;-0.7811;
824.4000;0.0716;-0.7811;
824.7000;0.0716;-0.7745;
825.0000;0.0700;-0.7767;
825.3000;0.0708;-0.7789;
825.6000;0.0724;-0.7745;
825.9000;0.0733;-0.7678;
826.2000;0.0716;-0.7678;
826.5000;0.0773;-0.7457;
826.8000;0.0692;-0.7612;
827.1000;0.0724;-0.7568;
827.4000;0.0716;-0.7590;
827.7000;0.0716;-0.7634;
828.0000;0.0733;-0.7656;
828.3000;0.0716;-0.7634;
828.6000;0.0716;-0.7590;
828.9000;0.0676;-0.7701;
829.2000;0.0871;-0.7302;
829.5000;0.0708;-0.7789;
829.8000;0.0692;-0.7855;
830.1000;0.0724;-0.7745;
830.4000;0.0619;-0.7966;
830.7000;0.0724;-0.7789;
831.0000;0.0708;-0.7767;
831.3000;0.0708;-0.7789;
831.6000;0.0724;-0.7745;
831.9000;0.0724;-0.7811;
832.2000;0.0635;-0.8099;
832.5000;0.0700;-0.7833;
832.8000;0.0733;-0.7811;
833.1000;0.0733;-0.7678;
833.4000;0.0716;-0.7656;
833.7000;0.0733;-0.7656;
834.0000;0.0627;-0.7833;
834.3000;0.0733;-0.7612;
834.6000;0.0708;-0.7634;
834.9000;0.0716;-0.7656;
835.2000;0.0700;-0.7701;
835.5000;0.0700;-0.7745;
835.8000;0.0733;-0.7723;
836.1000;0.0700;-0.7767;
836.4000;0.0684;-0.7789;
836.7000;0.0716;-0.7767;
837.0000;0.0847;-0.7413;
837.3000;0.0700;-0.7878;
837.6000;0.0716;-0.7811;
837.9000;0.0708;-0.7811;
838.2000;0.0716;-0.7833;
838.5000;0.0700;-0.7855;
838.8000;0.0684;-0.7944;
839.1000;0.0700;-0.7988;
839.4000;0.0855;-0.7612;
839.7000;0.0733;-0.7944;
840.0000;0.0700;-0.7878;
840.3000;0.0708;-0.7789;
840.6000;0.0724;-0.7723;
840.9000;0.0627;-0.7922;
841.2000;0.0733;-0.7723;
841.5000;0.0749;-0.7568;
841.8000;0.0716;-0.7701;
842.1000;0.0733;-0.7634;
842.4000;0.0733;-0.7656;
842.7000;0.0643;-0.7833;
843.0000;0.0724;-0.7590;
843.3000;0.0733;-0.7568;
843.6000;0.0814;-0.7302;
843.9000;0.0635;-0.7789;
844.2000;0.0733;-0.7701;
844.5000;0.0684;-0.7789;
844.8000;0.0716;-0.7723;
845.1000;0.0724;-0.7678;
845.4000;0.0708;-0.7634;
845.7000;0.0643;-0.7811;
846.0000;0.0724;-0.7723;
846.3000;0.0692;-0.7767;
846.6000;0.0724;-0.7723;
846.9000;0.0700;-0.7767;
847.2000;0.0749;-0.7723;
847.5000;0.0716;-0.7745;
847.8000;0.0781;-0.7612;
848.1000;0.0733;-0.7789;
848.4000;0.0667;-0.7900;
848.7000;0.0749;-0.7678;
849.0000;0.0659;-0.7900;
849.3000;0.0708;-0.7789;
849.6000;0.0822;-0.7612;
849.9000;0.0733;-0.7789;
850.2000;0.0716;-0.7811;
850.5000;0.0724;-0.7878;
850.8000;0.0700;-0.7966;
851.1000;0.0716;-0.7922;
851.4000;0.0741;-0.7855;
851.7000;0.0708;-0.7833;
852.0000;0.0716;-0.7745;
852.3000;0.0733;-0.7656;
852.6000;0.0716;-0.7745;
852.9000;0.0700;-0.7833;
853.2000;0.0724;-0.7745;
853.5000;0.0757;-0.7723;
853.8000;0.0708;-0.7701;
854.1000;0.0757;-0.7590;
854.4000;0.0871;-0.7369;
854.7000;0.0708;-0.7767;
855.0000;0.0676;-0.7811;
855.3000;0.0716;-0.7745;
855.6000;0.0716;-0.7789;
855.9000;0.0724;-0.7723;
856.2000;0.0790;-0.7501;
856.5000;0.0692;-0.7723;
856.8000;0.0692;-0.7878;
857.1000;0.0700;-0.7900;
857.4000;0.0692;-0.7944;
857.7000;0.0700;-0.7944;
858.0000;0.0692;-0.7900;
858.3000;0.0684;-0.7900;
858.6000;0.0716;-0.7833;
858.9000;0.0724;-0.7855;
859.2000;0.0700;-0.7900;
859.5000;0.0724;-0.7811;
859.8000;0.0733;-0.7789;
860.1000;0.0741;-0.7723;
860.4000;0.0749;-0.7656;
860.7000;0.0716;-0.7900;
861.0000;0.0724;-0.7922;
861.3000;0.0692;-0.7922;
861.6000;0.0700;-0.7855;
861.9000;0.0700;-0.7922;
862.2000;0.0692;-0.7922;
862.5000;0.0692;-0.7855;
862.8000;0.0724;-0.7789;
863.1000;0.0724;-0.7789;
863.4000;0.0798;-0.7546;
863.7000;0.0733;-0.7745;
864.0000;0.0692;-0.7833;
864.3000;0.0716;-0.7767;
864.6000;0.0684;-0.7878;
864.9000;0.0749;-0.7701;
865.2000;0.0733;-0.7833;
865.5000;0.0708;-0.7855;
865.8000;0.0724;-0.7811;
866.1000;0.0757;-0.7789;
866.4000;0.0724;-0.7922;
866.7000;0.0724;-0.7878;
867.0000;0.0716;-0.7855;
867.3000;0.0733;-0.7745;
867.6000;0.0724;-0.7767;
867.9000;0.0716;-0.7745;
868.2000;0.0716;-0.7811;
868.5000;0.0651;-0.7944;
868.8000;0.0700;-0.7789;
869.1000;0.0692;-0.7855;
869.4000;0.0700;-0.7900;
869.7000;0.0700;-0.7922;
870.0000;0.0773;-0.7745;
870.3000;0.0716;-0.7789;
870.6000;0.0676;-0.7922;
870.9000;0.0700;-0.7767;
871.2000;0.0716;-0.7678;
871.5000;0.0724;-0.7612;
871.8000;0.0716;-0.7701;
872.1000;0.0667;-0.7855;
872.4000;0.0733;-0.7678;
872.7000;0.0716;-0.7745;
873.0000;0.0659;-0.7855;
873.3000;0.0676;-0.7789;
873.6000;0.0724;-0.7767;
873.9000;0.0708;-0.7701;
874.2000;0.0716;-0.7612;
874.5000;0.0700;-0.7546;
874.8000;0.0716;-0.7479;
875.1000;0.0716;-0.7524;
875.4000;0.0716;-0.7479;
875.7000;0.0741;-0.7457;
876.0000;0.0708;-0.7546;
876.3000;0.0765;-0.7435;
876.6000;0.0724;-0.7435;
876.9000;0.0724;-0.7501;
877.2000;0.0724;-0.7479;
877.5000;0.0708;-0.7568;
877.8000;0.0724;-0.7501;
878.1000;0.0741;-0.7524;
878.4000;0.0708;-0.7612;
878.7000;0.0733;-0.7678;
879.0000;0.0627;-0.7944;
879.3000;0.0733;-0.7634;
879.6000;0.0741;-0.7634;
879.9000;0.0708;-0.7656;
880.2000;0.0724;-0.7612;
880.5000;0.0741;-0.7479;
880.8000;0.0676;-0.7612;
881.1000;0.0716;-0.7568;
881.4000;0.0708;-0.7590;
881.7000;0.0708;-0.7701;
882.0000;0.0692;-0.7745;
882.3000;0.0724;-0.7723;
882.6000;0.0700;-0.7656;
882.9000;0.0708;-0.7678;
883.2000;0.0684;-0.7789;
883.5000;0.0716;-0.7745;
883.8000;0.0684;-0.7833;
884.1000;0.0733;-0.7745;
884.4000;0.0700;-0.7789;
884.7000;0.0692;-0.7811;
885.0000;0.0700;-0.7789;
885.3000;0.0724;-0.7701;
885.6000;0.0708;-0.7767;
885.9000;0.0716;-0.7745;
886.2000;0.0733;-0.7745;
886.5000;0.0724;-0.7723;
886.8000;0.0838;-0.7501;
887.1000;0.0708;-0.7745;
887.4000;0.0724;-0.7656;
887.7000;0.0716;-0.7701;
888.0000;0.0724;-0.7723;
888.3000;0.0700;-0.7789;
888.6000;0.0708;-0.7767;
888.9000;0.0790;-0.7612;
889.2000;0.0733;-0.7767;
889.5000;0.0724;-0.7767;
889.8000;0.0667;-0.7922;
890.1000;0.0733;-0.7723;
890.4000;0.0692;-0.7789;
890.7000;0.0798;-0.7501;
891.0000;0.0700;-0.7701;
891.3000;0.0692;-0.7789;
891.6000;0.0716;-0.7678;
891.9000;0.0700;-0.7723;
892.2000;0.0716;-0.7789;
892.5000;0.0733;-0.7789;
892.8000;0.0724;-0.7767;
893.1000;0.0708;-0.7855;
893.4000;0.0692;-0.7922;
893.7000;0.0716;-0.7789;
894.0000;0.0708;-0.7811;
894.3000;0.0692;-0.7900;
894.6000;0.0716;-0.7767;
894.9000;0.0651;-0.7833;
895.2000;0.0700;-0.7767;
895.5000;0.0667;-0.7922;
895.8000;0.0700;-0.7855;
896.1000;0.0586;-0.8121;
896.4000;0.0651;-0.7966;
896.7000;0.0724;-0.7701;
897.0000;0.0708;-0.7723;
897.3000;0.0635;-0.7944;
897.6000;0.0733;-0.7656;
897.9000;0.0700;-0.7701;
898.2000;0.0724;-0.7612;
898.5000;0.0708;-0.7656;
898.8000;0.0716;-0.7678;
899.1000;0.0716;-0.7745;
899.4000;0.0684;-0.7767;
899.7000;0.0692;-0.7811;
900.0000;0.0716;-0.7767;
900.3000;0.0716;-0.7745;
900.6000;0.0724;-0.7678;
900.9000;0.0708;-0.7701;
901.2000;0.0733;-0.7678;
901.5000;0.0676;-0.7789;
901.8000;0.0773;-0.7634;
902.1000;0.0733;-0.7701;
902.4000;0.0692;-0.7723;
902.7000;0.0716;-0.7634;
903.0000;0.0724;-0.7634;
903.3000;0.0708;-0.7701;
903.6000;0.0708;-0.7701;
903.9000;0.0716;-0.7678;
904.2000;0.0708;-0.7701;
904.5000;0.0708;-0.7701;
904.8000;0.0716;-0.7634;
905.1000;0.0708;-0.7590;
905.4000;0.0733;-0.7524;
905.7000;0.0724;-0.7590;
906.0000;0.0749;-0.7524;
906.3000;0.0684;-0.7656;
906.6000;0.0724;-0.7568;
906.9000;0.0692;-0.7634;
907.2000;0.0692;-0.7678;
907.5000;0.0692;-0.7745;
907.8000;0.0798;-0.7524;
908.1000;0.0733;-0.7656;
908.4000;0.0684;-0.7767;
908.7000;0.0708;-0.7789;
909.0000;0.0716;-0.7745;
909.3000;0.0724;-0.7634;
909.6000;0.0708;-0.7745;
909.9000;0.0733;-0.7701;
910.2000;0.0700;-0.7745;
910.5000;0.0692;-0.7789;
910.8000;0.0716;-0.7745;
911.1000;0.0716;-0.7789;
911.4000;0.0733;-0.7723;
911.7000;0.0708;-0.7723;
912.0000;0.0716;-0.7723;
912.3000;0.0594;-0.8099;
912.6000;0.0716;-0.7855;
912.9000;0.0684;-0.7944;
913.2000;0.0716;-0.7944;
913.5000;0.0692;-0.8010;
913.8000;0.0716;-0.7966;
914.1000;0.0708;-0.7944;
914.4000;0.0733;-0.7878;
914.7000;0.0855;-0.7546;
915.0000;0.0676;-0.7922;
915.3000;0.0708;-0.7878;
915.6000;0.0700;-0.7789;
915.9000;0.0757;-0.7656;
916.2000;0.0781;-0.7612;
916.5000;0.0708;-0.7767;
916.8000;0.0708;-0.7811;
917.1000;0.0684;-0.7922;
917.4000;0.0798;-0.7678;
917.7000;0.0635;-0.8010;
918.0000;0.0708;-0.7900;
918.3000;0.0627;-0.8077;
918.6000;0.0667;-0.7988;
918.9000;0.0643;-0.8033;
919.2000;0.0700;-0.7833;
919.5000;0.0708;-0.7767;
919.8000;0.0684;-0.7944;
920.1000;0.0716;-0.7922;
920.4000;0.0708;-0.8010;
920.7000;0.0708;-0.7966;
921.0000;0.0716;-0.7966;
921.3000;0.0781;-0.7833;
921.6000;0.0716;-0.7944;
921.9000;0.0700;-0.7944;
922.2000;0.0733;-0.7789;
922.5000;0.0724;-0.7701;
922.8000;0.0716;-0.7745;
923.1000;0.0708;-0.7745;
923.4000;0.0855;-0.7457;
923.7000;0.0724;-0.7767;
924.0000;0.0708;-0.7745;
924.3000;0.0798;-0.7546;
924.6000;0.0733;-0.7767;
924.9000;0.0708;-0.7811;
925.2000;0.0749;-0.7723;
925.5000;0.0716;-0.7789;
925.8000;0.0749;-0.7656;
926.1000;0.0863;-0.7369;
926.4000;0.0765;-0.7612;
926.7000;0.0716;-0.7723;
927.0000;0.0643;-0.7922;
927.3000;0.0708;-0.7767;
927.6000;0.0716;-0.7723;
927.9000;0.0676;-0.7767;
928.2000;0.0700;-0.7701;
928.5000;0.0716;-0.7789;
928.8000;0.0716;-0.7878;
929.1000;0.0757;-0.7723;
929.4000;0.0708;-0.7833;
929.7000;0.0716;-0.7767;
930.0000;0.0716;-0.7789;
930.3000;0.0659;-0.7789;
930.6000;0.0724;-0.7656;
930.9000;0.0765;-0.7590;
931.2000;0.0708;-0.7656;
931.5000;0.0692;-0.7678;
931.8000;0.0741;-0.7590;
932.1000;0.0724;-0.7612;
932.4000;0.0700;-0.7656;
932.7000;0.0733;-0.7678;
933.0000;0.0619;-0.7900;
933.3000;0.0716;-0.7524;
933.6000;0.0724;-0.7435;
933.9000;0.0708;-0.7435;
934.2000;0.0733;-0.7413;
934.5000;0.0684;-0.7590;
934.8000;0.0700;-0.7568;
935.1000;0.0724;-0.7590;
935.4000;0.0692;-0.7656;
935.7000;0.0716;-0.7678;
936.0000;0.0684;-0.7723;
936.3000;0.0733;-0.7634;
936.6000;0.0708;-0.7701;
936.9000;0.0765;-0.7568;
937.2000;0.0749;-0.7678;
937.5000;0.0586;-0.7988;
937.8000;0.0708;-0.7723;
938.1000;0.0724;-0.7612;
938.4000;0.0716;-0.7568;
938.7000;0.0781;-0.7369;
939.0000;0.0724;-0.7634;
939.3000;0.0700;-0.7723;
939.6000;0.0708;-0.7723;
939.9000;0.0716;-0.7723;
940.2000;0.0773;-0.7590;
940.5000;0.0724;-0.7811;
940.8000;0.0692;-0.7811;
941.1000;0.0716;-0.7767;
941.4000;0.0749;-0.7634;
941.7000;0.0708;-0.7745;
942.0000;0.0765;-0.7634;
942.3000;0.0676;-0.7723;
942.6000;0.0716;-0.7656;
942.9000;0.0733;-0.7568;
943.2000;0.0716;-0.7634;
943.5000;0.0724;-0.7612;
943.8000;0.0716;-0.7634;
944.1000;0.0700;-0.7678;
944.4000;0.0716;-0.7634;
944.7000;0.0708;-0.7678;
945.0000;0.0741;-0.7612;
945.3000;0.0724;-0.7678;
945.6000;0.0790;-0.7457;
945.9000;0.0667;-0.7723;
946.2000;0.0619;-0.7745;
946.5000;0.0700;-0.7656;
946.8000;0.0716;-0.7612;
947.1000;0.0700;-0.7656;
947.4000;0.0700;-0.7634;
947.7000;0.0708;-0.7634;
948.0000;0.0619;-0.7855;
948.3000;0.0716;-0.7634;
948.6000;0.0724;-0.7590;
948.9000;0.0651;-0.7789;
949.2000;0.0733;-0.7678;
949.5000;0.0700;-0.7789;
949.8000;0.0724;-0.7723;
950.1000;0.0757;-0.7612;
950.4000;0.0716;-0.7745;
950.7000;0.0684;-0.7878;
951.0000;0.0838;-0.7479;
951.3000;0.0635;-0.7944;
951.6000;0.0684;-0.7767;
951.9000;0.0667;-0.7789;
952.2000;0.0781;-0.7546;
952.5000;0.0708;-0.7723;
952.8000;0.0716;-0.7590;
953.1000;0.0708;-0.7568;
953.4000;0.0692;-0.7656;
953.7000;0.0716;-0.7634;
954.0000;0.0716;-0.7612;
954.3000;0.0700;-0.7678;
954.6000;0.0700;-0.7723;
954.9000;0.0733;-0.7656;
955.2000;0.0692;-0.7767;
955.5000;0.0724;-0.7723;
955.8000;0.0684;-0.7701;
956.1000;0.0724;-0.7612;
956.4000;0.0635;-0.7745;
956.7000;0.0724;-0.7524;
957.0000;0.0684;-0.7634;
957.3000;0.0692;-0.7568;
957.6000;0.0724;-0.7546;
957.9000;0.0806;-0.7347;
958.2000;0.0692;-0.7612;
958.5000;0.0700;-0.7701;
958.8000;0.0708;-0.7701;
959.1000;0.0700;-0.7678;
959.4000;0.0724;-0.7634;
959.7000;0.0659;-0.7767;
960.0000;0.0814;-0.7391;
960.3000;0.0708;-0.7701;
960.6000;0.0749;-0.7678;
960.9000;0.0667;-0.7855;
961.2000;0.0741;-0.7723;
961.5000;0.0741;-0.7767;
961.8000;0.0708;-0.7833;
962.1000;0.0741;-0.7811;
962.4000;0.0708;-0.7878;
962.7000;0.0716;-0.7811;
963.0000;0.0749;-0.7634;
963.3000;0.0790;-0.7501;
963.6000;0.0692;-0.7767;
963.9000;0.0733;-0.7701;
964.2000;0.0765;-0.7612;
964.5000;0.0651;-0.7878;
964.8000;0.0692;-0.7878;
965.1000;0.0684;-0.7922;
965.4000;0.0716;-0.7789;
965.7000;0.0700;-0.7767;
966.0000;0.0708;-0.7701;
966.3000;0.0724;-0.7634;
966.6000;0.0724;-0.7524;
966.9000;0.0700;-0.7568;
967.2000;0.0651;-0.7612;
967.5000;0.0700;-0.7435;
967.8000;0.0724;-0.7391;
968.1000;0.0733;-0.7479;
968.4000;0.0749;-0.7413;
968.7000;0.0724;-0.7435;
969.0000;0.0724;-0.7546;
969.3000;0.0716;-0.7612;
969.6000;0.0749;-0.7590;
969.9000;0.0716;-0.7678;
970.2000;0.0781;-0.7479;
970.5000;0.0667;-0.7678;
970.8000;0.0708;-0.7723;
971.1000;0.0651;-0.7878;
971.4000;0.0708;-0.7745;
971.7000;0.0757;-0.7656;
972.0000;0.0667;-0.7878;
972.3000;0.0724;-0.7701;
972.6000;0.0733;-0.7701;
972.9000;0.0716;-0.7701;
973.2000;0.0757;-0.7612;
973.5000;0.0708;-0.7745;
973.8000;0.0733;-0.7701;
974.1000;0.0749;-0.7701;
974.4000;0.0724;-0.7678;
974.7000;0.0716;-0.7656;
975.0000;0.0724;-0.7612;
975.3000;0.0708;-0.7612;
975.6000;0.0708;-0.7568;
975.9000;0.0700;-0.7701;
976.2000;0.0716;-0.7634;
976.5000;0.0700;-0.7723;
976.8000;0.0724;-0.7656;
977.1000;0.0716;-0.7701;
977.4000;0.0790;-0.7501;
977.7000;0.0716;-0.7701;
978.0000;0.0724;-0.7678;
978.3000;0.0790;-0.7457;
978.6000;0.0716;-0.7634;
978.9000;0.0716;-0.7612;
979.2000;0.0708;-0.7701;
979.5000;0.0724;-0.7656;
979.8000;0.0716;-0.7723;
980.1000;0.0733;-0.7745;
980.4000;0.0700;-0.7789;
980.7000;0.0692;-0.7723;
981.0000;0.0692;-0.7723;
981.3000;0.0700;-0.7811;
981.6000;0.0724;-0.7833;
981.9000;0.0708;-0.7833;
982.2000;0.0757;-0.7634;
982.5000;0.0724;-0.7656;
982.8000;0.0716;-0.7678;
983.1000;0.0741;-0.7612;
983.4000;0.0749;-0.7568;
983.7000;0.0724;-0.7656;
984.0000;0.0757;-0.7590;
984.3000;0.0700;-0.7634;
984.6000;0.0716;-0.7612;
984.9000;0.0716;-0.7612;
985.2000;0.0692;-0.7701;
985.5000;0.0741;-0.7546;
985.8000;0.0716;-0.7656;
986.1000;0.0741;-0.7568;
986.4000;0.0676;-0.7833;
986.7000;0.0708;-0.7701;
987.0000;0.0643;-0.7944;
987.3000;0.0724;-0.7745;
987.6000;0.0757;-0.7745;
987.9000;0.0708;-0.7922;
988.2000;0.0676;-0.7966;
988.5000;0.0765;-0.7723;
988.8000;0.0733;-0.7745;
989.1000;0.0676;-0.7855;
989.4000;0.0667;-0.7900;
989.7000;0.0708;-0.7723;
990.0000;0.0798;-0.7501;
990.3000;0.0724;-0.7701;
990.6000;0.0724;-0.7678;
990.9000;0.0667;-0.7878;
991.2000;0.0676;-0.7789;
991.5000;0.0733;-0.7612;
991.8000;0.0716;-0.7701;
992.1000;0.0741;-0.7612;
992.4000;0.0733;-0.7656;
992.7000;0.0716;-0.7634;
993.0000;0.0724;-0.7723;
993.3000;0.0667;-0.7878;
993.6000;0.0765;-0.7701;
993.9000;0.0733;-0.7745;
994.2000;0.0716;-0.7767;
994.5000;0.0724;-0.7723;
994.8000;0.0708;-0.7789;
995.1000;0.0700;-0.7767;
995.4000;0.0692;-0.7767;
995.7000;0.0716;-0.7723;
996.0000;0.0724;-0.7745;
996.3000;0.0741;-0.7723;
996.6000;0.0692;-0.7723;
996.9000;0.0724;-0.7634;
997.2000;0.0733;-0.7656;
997.5000;0.0692;-0.7723;
997.8000;0.0741;-0.7678;
998.1000;0.0700;-0.7811;
998.4000;0.0700;-0.7833;
998.7000;0.0724;-0.7789;
999.0000;0.0741;-0.7723;
999.3000;0.0708;-0.7745;
999.6000;0.0708;-0.7701;
999.9000;0.0716;-0.7656;
1000.2000;0.0716;-0.7678;
1000.5000;0.0733;-0.7612;
1000.8000;0.0659;-0.7811;
1001.1000;0.0684;-0.7723;
1001.4000;0.0781;-0.7546;
1001.7000;0.0716;-0.7723;
1002.0000;0.0716;-0.7767;
1002.3000;0.0733;-0.7767;
1002.6000;0.0708;-0.7900;
1002.9000;0.0749;-0.7900;
1003.2000;0.0741;-0.7878;
1003.5000;0.0781;-0.7833;
1003.8000;0.0724;-0.7966;
1004.1000;0.0708;-0.7922;
1004.4000;0.0684;-0.7900;
1004.7000;0.0716;-0.7811;
1005.0000;0.0733;-0.7811;
1005.3000;0.0692;-0.7922;
1005.6000;0.0716;-0.7789;
1005.9000;0.0716;-0.7701;
1006.2000;0.0708;-0.7723;
1006.5000;0.0700;-0.7767;
1006.8000;0.0724;-0.7634;
1007.1000;0.0716;-0.7634;
1007.4000;0.0684;-0.7723;
1007.7000;0.0716;-0.7634;
1008.0000;0.0716;-0.7634;
1008.3000;0.0814;-0.7369;
1008.6000;0.0741;-0.7568;
1008.9000;0.0724;-0.7590;
1009.2000;0.0700;-0.7745;
1009.5000;0.0716;-0.7811;
1009.8000;0.0724;-0.7789;
1010.1000;0.0847;-0.7656;
1010.4000;0.0635;-0.8165;
1010.7000;0.0708;-0.7988;
1011.0000;0.0700;-0.7944;
1011.3000;0.0724;-0.7900;
1011.6000;0.0635;-0.8077;
1011.9000;0.0708;-0.8010;
1012.2000;0.0716;-0.7855;
1012.5000;0.0700;-0.7878;
1012.8000;0.0781;-0.7723;
1013.1000;0.0806;-0.7634;
1013.4000;0.0741;-0.7855;
1013.7000;0.0724;-0.7922;
1014.0000;0.0692;-0.7966;
1014.3000;0.0724;-0.7855;
1014.6000;0.0716;-0.7811;
1014.9000;0.0716;-0.7723;
1015.2000;0.0708;-0.7833;
1015.5000;0.0692;-0.7944;
1015.8000;0.0716;-0.7789;
1016.1000;0.0749;-0.7789;
1016.4000;0.0733;-0.7789;
1016.7000;0.0724;-0.7767;
1017.0000;0.0708;-0.7723;
1017.3000;0.0700;-0.7723;
1017.6000;0.0724;-0.7678;
1017.9000;0.0724;-0.7656;
1018.2000;0.0659;-0.7789;
1018.5000;0.0724;-0.7656;
1018.8000;0.0724;-0.7745;
1019.1000;0.0716;-0.7745;
1019.4000;0.0708;-0.7811;
1019.7000;0.0708;-0.7811;
1020.0000;0.0724;-0.7789;
1020.3000;0.0724;-0.7723;
1020.6000;0.0724;-0.7767;
1020.9000;0.0724;-0.7767;
1021.2000;0.0814;-0.7546;
1021.5000;0.0700;-0.7789;
1021.8000;0.0692;-0.7745;
1022.1000;0.0700;-0.7656;
1022.4000;0.0765;-0.7546;
1022.7000;0.0708;-0.7656;
1023.0000;0.0708;-0.7701;
1023.3000;0.0724;-0.7634;
1023.6000;0.0724;-0.7767;
1023.9000;0.0765;-0.7656;
1024.2000;0.0708;-0.7833;
1024.5000;0.0700;-0.7922;
1024.8000;0.0700;-0.7855;
1025.1000;0.0716;-0.7878;
1025.4000;0.0741;-0.7789;
1025.7000;0.0757;-0.7701;
1026.0000;0.0733;-0.7833;
1026.3000;0.0627;-0.8232;
1026.6000;0.0724;-0.7944;
1026.9000;0.0733;-0.7988;
1027.2000;0.0700;-0.8033;
1027.5000;0.0781;-0.7789;
1027.8000;0.0724;-0.7900;
1028.1000;0.0692;-0.7944;
1028.4000;0.0716;-0.7811;
1028.7000;0.0724;-0.7878;
1029.0000;0.0708;-0.7966;
1029.3000;0.0708;-0.7988;
1029.6000;0.0651;-0.8010;
1029.9000;0.0716;-0.7855;
1030.2000;0.0733;-0.7855;
1030.5000;0.0814;-0.7678;
1030.8000;0.0708;-0.7944;
1031.1000;0.0692;-0.8055;
1031.4000;0.0757;-0.7900;
1031.7000;0.0733;-0.7900;
1032.0000;0.0700;-0.7944;
1032.3000;0.0773;-0.7767;
1032.6000;0.0724;-0.7833;
1032.9000;0.0773;-0.7656;
1033.2000;0.0708;-0.7789;
1033.5000;0.0724;-0.7723;
1033.8000;0.0708;-0.7745;
1034.1000;0.0716;-0.7767;
1034.4000;0.0724;-0.7833;
1034.7000;0.0724;-0.7833;
1035.0000;0.0741;-0.7745;
1035.3000;0.0716;-0.7922;
1035.6000;0.0700;-0.7966;
1035.9000;0.0708;-0.7944;
1036.2000;0.0602;-0.8187;
1036.5000;0.0692;-0.7966;
1036.8000;0.0733;-0.7811;
1037.1000;0.0724;-0.7878;
1037.4000;0.0749;-0.7878;
1037.7000;0.0724;-0.7922;
1038.0000;0.0749;-0.7789;
1038.3000;0.0708;-0.7900;
1038.6000;0.0708;-0.7855;
1038.9000;0.0716;-0.7878;
1039.2000;0.0741;-0.7878;
1039.5000;0.0733;-0.7922;
1039.8000;0.0700;-0.8010;
1040.1000;0.0708;-0.7922;
1040.4000;0.0773;-0.7723;
1040.7000;0.0708;-0.7878;
1041.0000;0.0708;-0.7966;
1041.3000;0.0716;-0.7900;
1041.6000;0.0651;-0.8010;
1041.9000;0.0692;-0.7855;
1042.2000;0.0724;-0.7767;
1042.5000;0.0716;-0.7811;
1042.8000;0.0733;-0.7789;
1043.1000;0.0741;-0.7678;
1043.4000;0.0781;-0.7501;
1043.7000;0.0700;-0.7634;
1044.0000;0.0733;-0.7546;
1044.3000;0.0716;-0.7590;
1044.6000;0.0733;-0.7678;
1044.9000;0.0733;-0.7634;
1045.2000;0.0708;-0.7656;
1045.5000;0.0741;-0.7678;
1045.8000;0.0700;-0.7723;
1046.1000;0.0676;-0.7767;
1046.4000;0.0700;-0.7701;
1046.7000;0.0700;-0.7767;
1047.0000;0.0692;-0.7811;
1047.3000;0.0716;-0.7811;
1047.6000;0.0724;-0.7789;
1047.9000;0.0700;-0.7811;
1048.2000;0.0749;-0.7811;
1048.5000;0.0716;-0.7789;
1048.8000;0.0700;-0.7811;
1049.1000;0.0724;-0.7745;
1049.4000;0.0716;-0.7878;
1049.7000;0.0716;-0.7966;
1050.0000;0.0749;-0.7878;
1050.3000;0.0733;-0.7789;
1050.6000;0.0684;-0.7855;
1050.9000;0.0724;-0.7767;
1051.2000;0.0684;-0.7922;
1051.5000;0.0765;-0.7678;
1051.8000;0.0708;-0.7811;
1052.1000;0.0733;-0.7701;
1052.4000;0.0724;-0.7745;
1052.7000;0.0708;-0.7833;
1053.0000;0.0806;-0.7590;
1053.3000;0.0716;-0.7833;
1053.6000;0.0700;-0.7833;
1053.9000;0.0708;-0.7811;
1054.2000;0.0724;-0.7811;
1054.5000;0.0708;-0.7855;
1054.8000;0.0716;-0.7745;
1055.1000;0.0692;-0.7789;
1055.4000;0.0724;-0.7789;
1055.7000;0.0659;-0.8010;
1056.0000;0.0602;-0.8099;
1056.3000;0.0692;-0.7878;
1056.6000;0.0749;-0.7789;
1056.9000;0.0708;-0.7833;
1057.2000;0.0700;-0.7900;
1057.5000;0.0692;-0.7855;
1057.8000;0.0716;-0.7878;
1058.1000;0.0643;-0.8055;
1058.4000;0.0643;-0.8055;
1058.7000;0.0708;-0.7878;
1059.0000;0.0733;-0.7811;
1059.3000;0.0724;-0.7833;
1059.6000;0.0602;-0.8077;
1059.9000;0.0700;-0.7811;
1060.2000;0.0749;-0.7678;
1060.5000;0.0708;-0.7745;
1060.8000;0.0708;-0.7767;
1061.1000;0.0619;-0.7944;
1061.4000;0.0741;-0.7723;
1061.7000;0.0716;-0.7745;
1062.0000;0.0692;-0.7723;
1062.3000;0.0749;-0.7634;
1062.6000;0.0700;-0.7701;
1062.9000;0.0708;-0.7701;
1063.2000;0.0700;-0.7701;
1063.5000;0.0716;-0.7767;
1063.8000;0.0724;-0.7701;
1064.1000;0.0724;-0.7656;
1064.4000;0.0586;-0.8055;
1064.7000;0.0716;-0.7656;
1065.0000;0.0708;-0.7701;
1065.3000;0.0733;-0.7634;
1065.6000;0.0724;-0.7678;
1065.9000;0.0692;-0.7745;
1066.2000;0.0692;-0.7789;
1066.5000;0.0733;-0.7678;
1066.8000;0.0716;-0.7723;
1067.1000;0.0643;-0.7855;
1067.4000;0.0611;-0.7944;
1067.7000;0.0765;-0.7634;
1068.0000;0.0716;-0.7590;
1068.3000;0.0724;-0.7546;
1068.6000;0.0733;-0.7568;
1068.9000;0.0684;-0.7656;
1069.2000;0.0667;-0.7701;
1069.5000;0.0708;-0.7656;
1069.8000;0.0781;-0.7501;
1070.1000;0.0716;-0.7634;
1070.4000;0.0708;-0.7723;
1070.7000;0.0733;-0.7767;
1071.0000;0.0708;-0.7723;
1071.3000;0.0692;-0.7723;
1071.6000;0.0700;-0.7678;
1071.9000;0.0684;-0.7767;
1072.2000;0.0708;-0.7723;
1072.5000;0.0708;-0.7723;
1072.8000;0.0716;-0.7678;
1073.1000;0.0716;-0.7634;
1073.4000;0.0716;-0.7634;
1073.7000;0.0708;-0.7723;
1074.0000;0.0716;-0.7678;
1074.3000;0.0733;-0.7678;
1074.6000;0.0700;-0.7745;
1074.9000;0.0700;-0.7767;
1075.2000;0.0765;-0.7634;
1075.5000;0.0724;-0.7767;
1075.8000;0.0684;-0.7922;
1076.1000;0.0716;-0.7878;
1076.4000;0.0700;-0.7811;
1076.7000;0.0716;-0.7767;
1077.0000;0.0716;-0.7723;
1077.3000;0.0724;-0.7723;
1077.6000;0.0692;-0.7789;
1077.9000;0.0724;-0.7723;
1078.2000;0.0733;-0.7634;
1078.5000;0.0741;-0.7678;
1078.8000;0.0724;-0.7723;
1079.1000;0.0733;-0.7789;
1079.4000;0.0692;-0.7811;
1079.7000;0.0700;-0.7811;
1080.0000;0.0781;-0.7678;
1080.3000;0.0594;-0.8121;
1080.6000;0.0611;-0.8165;
1080.9000;0.0667;-0.7966;
1081.2000;0.0749;-0.7789;
1081.5000;0.0724;-0.7789;
1081.8000;0.0700;-0.7811;
1082.1000;0.0798;-0.7479;
1082.4000;0.0716;-0.7723;
1082.7000;0.0708;-0.7701;
1083.0000;0.0716;-0.7678;
1083.3000;0.0716;-0.7701;
1083.6000;0.0773;-0.7546;
1083.9000;0.0716;-0.7701;
1084.2000;0.0651;-0.7833;
1084.5000;0.0724;-0.7723;
1084.8000;0.0749;-0.7745;
1085.1000;0.0798;-0.7546;
1085.4000;0.0708;-0.7745;
1085.7000;0.0684;-0.7767;
1086.0000;0.0692;-0.7723;
1086.3000;0.0724;-0.7590;
1086.6000;0.0716;-0.7501;
1086.9000;0.0733;-0.7501;
1087.2000;0.0733;-0.7457;
1087.5000;0.0716;-0.7457;
1087.8000;0.0700;-0.7435;
1088.1000;0.0724;-0.7369;
1088.4000;0.0741;-0.7391;
1088.7000;0.0741;-0.7479;
1089.0000;0.0716;-0.7590;
1089.3000;0.0733;-0.7568;
1089.6000;0.0700;-0.7590;
1089.9000;0.0700;-0.7656;
1090.2000;0.0741;-0.7656;
1090.5000;0.0716;-0.7656;
1090.8000;0.0724;-0.7568;
1091.1000;0.0733;-0.7479;
1091.4000;0.0733;-0.7479;
1091.7000;0.0708;-0.7590;
1092.0000;0.0716;-0.7678;
1092.3000;0.0708;-0.7701;
1092.6000;0.0708;-0.7723;
1092.9000;0.0708;-0.7678;
1093.2000;0.0716;-0.7723;
1093.5000;0.0700;-0.7811;
1093.8000;0.0733;-0.7789;
1094.1000;0.0692;-0.7922;
1094.4000;0.0716;-0.7900;
1094.7000;0.0708;-0.7900;
1095.0000;0.0716;-0.7878;
1095.3000;0.0716;-0.7900;
1095.6000;0.0716;-0.7855;
1095.9000;0.0741;-0.7745;
1096.2000;0.0708;-0.7833;
1096.5000;0.0700;-0.7789;
1096.8000;0.0838;-0.7501;
1097.1000;0.0724;-0.7723;
1097.4000;0.0724;-0.7723;
1097.7000;0.0733;-0.7745;
1098.0000;0.0700;-0.7767;
1098.3000;0.0578;-0.8055;
1098.6000;0.0733;-0.7745;
1098.9000;0.0659;-0.7878;
1099.2000;0.0724;-0.7767;
1099.5000;0.0765;-0.7634;
1099.8000;0.0700;-0.7767;
1100.1000;0.0684;-0.7855;
1100.4000;0.0635;-0.7922;
1100.7000;0.0708;-0.7723;
1101.0000;0.0716;-0.7723;
1101.3000;0.0749;-0.7612;
1101.6000;0.0708;-0.7678;
1101.9000;0.0700;-0.7767;
1102.2000;0.0700;-0.7745;
1102.5000;0.0700;-0.7723;
1102.8000;0.0635;-0.7966;
1103.1000;0.0757;-0.7634;
1103.4000;0.0651;-0.7900;
1103.7000;0.0716;-0.7723;
1104.0000;0.0733;-0.7701;
1104.3000;0.0773;-0.7568;
1104.6000;0.0773;-0.7745;
1104.9000;0.0651;-0.7966;
1105.2000;0.0708;-0.7789;
1105.5000;0.0724;-0.7745;
1105.8000;0.0781;-0.7612;
1106.1000;0.0700;-0.7723;
1106.4000;0.0773;-0.7457;
1106.7000;0.0708;-0.7678;
1107.0000;0.0724;-0.7745;
1107.3000;0.0733;-0.7723;
1107.6000;0.0716;-0.7723;
1107.9000;0.0716;-0.7701;
1108.2000;0.0749;-0.7678;
1108.5000;0.0692;-0.7745;
1108.8000;0.0724;-0.7678;
1109.1000;0.0733;-0.7546;
1109.4000;0.0692;-0.7590;
1109.7000;0.0716;-0.7457;
1110.0000;0.0716;-0.7524;
1110.3000;0.0708;-0.7634;
1110.6000;0.0700;-0.7723;
1110.9000;0.0716;-0.7745;
1111.2000;0.0708;-0.7745;
1111.5000;0.0733;-0.7701;
1111.8000;0.0716;-0.7767;
1112.1000;0.0700;-0.7767;
1112.4000;0.0716;-0.7789;
1112.7000;0.0733;-0.7745;
1113.0000;0.0708;-0.7745;
1113.3000;0.0700;-0.7767;
1113.6000;0.0733;-0.7656;
1113.9000;0.0684;-0.7745;
1114.2000;0.0700;-0.7634;
1114.5000;0.0708;-0.7612;
1114.8000;0.0716;-0.7634;
1115.1000;0.0724;-0.7656;
1115.4000;0.0692;-0.7767;
1115.7000;0.0708;-0.7656;
1116.0000;0.0733;-0.7568;
1116.3000;0.0659;-0.7656;
1116.6000;0.0741;-0.7590;
1116.9000;0.0700;-0.7678;
1117.2000;0.0733;-0.7656;
1117.5000;0.0700;-0.7745;
1117.8000;0.0716;-0.7723;
1118.1000;0.0692;-0.7723;
1118.4000;0.0692;-0.7767;
1118.7000;0.0716;-0.7767;
1119.0000;0.0741;-0.7745;
1119.3000;0.0724;-0.7789;
1119.6000;0.0659;-0.7900;
1119.9000;0.0733;-0.7767;
1120.2000;0.0708;-0.7767;
1120.5000;0.0627;-0.7966;
1120.8000;0.0692;-0.7811;
1121.1000;0.0676;-0.7767;
1121.4000;0.0700;-0.7767;
1121.7000;0.0724;-0.7789;
1122.0000;0.0700;-0.7855;
1122.3000;0.0667;-0.7944;
1122.6000;0.0716;-0.7789;
1122.9000;0.0741;-0.7745;
1123.2000;0.0716;-0.7789;
1123.5000;0.0716;-0.7767;
1123.8000;0.0724;-0.7701;
1124.1000;0.0741;-0.7678;
1124.4000;0.0708;-0.7723;
1124.7000;0.0724;-0.7678;
1125.0000;0.0700;-0.7634;
1125.3000;0.0708;-0.7590;
1125.6000;0.0724;-0.7656;
1125.9000;0.0838;-0.7391;
1126.2000;0.0676;-0.7855;
1126.5000;0.0708;-0.7767;
1126.8000;0.0708;-0.7723;
1127.1000;0.0700;-0.7634;
1127.4000;0.0716;-0.7612;
1127.7000;0.0635;-0.7833;
1128.0000;0.0716;-0.7634;
1128.3000;0.0765;-0.7524;
1128.6000;0.0724;-0.7634;
1128.9000;0.0716;-0.7634;
1129.2000;0.0708;-0.7723;
1129.5000;0.0716;-0.7678;
1129.8000;0.0724;-0.7634;
1130.1000;0.0724;-0.7590;
1130.4000;0.0749;-0.7524;
1130.7000;0.0708;-0.7634;
1131.0000;0.0700;-0.7701;
1131.3000;0.0716;-0.7678;
1131.6000;0.0733;-0.7568;
1131.9000;0.0830;-0.7280;
1132.2000;0.0708;-0.7524;
1132.5000;0.0716;-0.7479;
1132.8000;0.0708;-0.7568;
1133.1000;0.0790;-0.7391;
1133.4000;0.0733;-0.7435;
1133.7000;0.0586;-0.7833;
1134.0000;0.0716;-0.7568;
1134.3000;0.0733;-0.7656;
1134.6000;0.0708;-0.7701;
1134.9000;0.0700;-0.7723;
1135.2000;0.0716;-0.7634;
1135.5000;0.0724;-0.7612;
1135.8000;0.0716;-0.7656;
1136.1000;0.0700;-0.7678;
1136.4000;0.0659;-0.7789;
1136.7000;0.0716;-0.7656;
1137.0000;0.0700;-0.7701;
1137.3000;0.0708;-0.7634;
1137.6000;0.0708;-0.7701;
1137.9000;0.0733;-0.7634;
1138.2000;0.0733;-0.7634;
1138.5000;0.0700;-0.7745;
1138.8000;0.0757;-0.7612;
1139.1000;0.0733;-0.7612;
1139.4000;0.0700;-0.7701;
1139.7000;0.0651;-0.7900;
1140.0000;0.0708;-0.7789;
1140.3000;0.0659;-0.7878;
1140.6000;0.0716;-0.7855;
1140.9000;0.0700;-0.7900;
1141.2000;0.0830;-0.7701;
1141.5000;0.0708;-0.7944;
1141.8000;0.0724;-0.7944;
1142.1000;0.0765;-0.7811;
1142.4000;0.0724;-0.7833;
1142.7000;0.0716;-0.7855;
1143.0000;0.0716;-0.7855;
1143.3000;0.0724;-0.7789;
1143.6000;0.0716;-0.7745;
1143.9000;0.0724;-0.7767;
1144.2000;0.0700;-0.7789;
1144.5000;0.0659;-0.7900;
1144.8000;0.0700;-0.7745;
1145.1000;0.0627;-0.7900;
1145.4000;0.0724;-0.7723;
1145.7000;0.0733;-0.7701;
1146.0000;0.0733;-0.7723;
1146.3000;0.0716;-0.7656;
1146.6000;0.0708;-0.7678;
1146.9000;0.0724;-0.7612;
1147.2000;0.0716;-0.7701;
1147.5000;0.0716;-0.7701;
1147.8000;0.0716;-0.7767;
1148.1000;0.0733;-0.7590;
1148.4000;0.0716;-0.7656;
1148.7000;0.0716;-0.7524;
1149.0000;0.0798;-0.7347;
1149.3000;0.0733;-0.7435;
1149.6000;0.0716;-0.7568;
1149.9000;0.0749;-0.7546;
1150.2000;0.0700;-0.7678;
1150.5000;0.0716;-0.7745;
1150.8000;0.0716;-0.7723;
1151.1000;0.0700;-0.7745;
1151.4000;0.0716;-0.7678;
1151.7000;0.0733;-0.7634;
1152.0000;0.0716;-0.7701;
1152.3000;0.0741;-0.7701;
1152.6000;0.0716;-0.7745;
1152.9000;0.0733;-0.7723;
1153.2000;0.0749;-0.7656;
1153.5000;0.0619;-0.7944;
1153.8000;0.0708;-0.7767;
1154.1000;0.0724;-0.7878;
1154.4000;0.0716;-0.7878;
1154.7000;0.0733;-0.7855;
1155.0000;0.0708;-0.7833;
1155.3000;0.0692;-0.7944;
1155.6000;0.0716;-0.7789;
1155.9000;0.0708;-0.7833;
1156.2000;0.0692;-0.7767;
1156.5000;0.0733;-0.7678;
1156.8000;0.0700;-0.7767;
1157.1000;0.0749;-0.7678;
1157.4000;0.0716;-0.7678;
1157.7000;0.0700;-0.7656;
1158.0000;0.0684;-0.7767;
1158.3000;0.0724;-0.7634;
1158.6000;0.0724;-0.7656;
1158.9000;0.0716;-0.7634;
1159.2000;0.0741;-0.7501;
1159.5000;0.0700;-0.7634;
1159.8000;0.0716;-0.7612;
1160.1000;0.0724;-0.7612;
1160.4000;0.0749;-0.7546;
1160.7000;0.0708;-0.7656;
1161.0000;0.0700;-0.7701;
1161.3000;0.0716;-0.7745;
1161.6000;0.0798;-0.7457;
1161.9000;0.0676;-0.7723;
1162.2000;0.0724;-0.7678;
1162.5000;0.0733;-0.7678;
1162.8000;0.0708;-0.7701;
1163.1000;0.0733;-0.7612;
1163.4000;0.0716;-0.7656;
1163.7000;0.0749;-0.7634;
1164.0000;0.0757;-0.7568;
1164.3000;0.0757;-0.7501;
1164.6000;0.0708;-0.7634;
1164.9000;0.0692;-0.7656;
1165.2000;0.0700;-0.7678;
1165.5000;0.0716;-0.7701;
1165.8000;0.0700;-0.7678;
1166.1000;0.0733;-0.7656;
1166.4000;0.0716;-0.7701;
1166.7000;0.0806;-0.7457;
1167.0000;0.0716;-0.7612;
1167.3000;0.0749;-0.7479;
1167.6000;0.0708;-0.7634;
1167.9000;0.0716;-0.7656;
1168.2000;0.0741;-0.7723;
1168.5000;0.0733;-0.7723;
1168.8000;0.0635;-0.8055;
1169.1000;0.0822;-0.7590;
1169.4000;0.0733;-0.7833;
1169.7000;0.0724;-0.7811;
1170.0000;0.0708;-0.7855;
1170.3000;0.0692;-0.7922;
1170.6000;0.0798;-0.7723;
1170.9000;0.0708;-0.7878;
1171.2000;0.0757;-0.7745;
1171.5000;0.0716;-0.7966;
1171.8000;0.0790;-0.7701;
1172.1000;0.0724;-0.7878;
1172.4000;0.0724;-0.7922;
1172.7000;0.0724;-0.7988;
1173.0000;0.0724;-0.7988;
1173.3000;0.0724;-0.7966;
1173.6000;0.0741;-0.7878;
1173.9000;0.0676;-0.7966;
1174.2000;0.0692;-0.7900;
1174.5000;0.0733;-0.7900;
1174.8000;0.0724;-0.7944;
1175.1000;0.0847;-0.7656;
1175.4000;0.0724;-0.7855;
1175.7000;0.0724;-0.7878;
1176.0000;0.0643;-0.8077;
1176.3000;0.0765;-0.7833;
1176.6000;0.0716;-0.7966;
1176.9000;0.0676;-0.8010;
1177.2000;0.0684;-0.7922;
1177.5000;0.0602;-0.8187;
1177.8000;0.0716;-0.7811;
1178.1000;0.0724;-0.7745;
1178.4000;0.0708;-0.7723;
1178.7000;0.0708;-0.7789;
1179.0000;0.0700;-0.7811;
1179.3000;0.0708;-0.7833;
1179.6000;0.0724;-0.7833;
1179.9000;0.0724;-0.7811;
1180.2000;0.0716;-0.7833;
1180.5000;0.0733;-0.7811;
1180.8000;0.0708;-0.7878;
1181.1000;0.0708;-0.7855;
1181.4000;0.0716;-0.7833;
1181.7000;0.0716;-0.7811;
1182.0000;0.0700;-0.7833;
1182.3000;0.0716;-0.7723;
1182.6000;0.0700;-0.7701;
1182.9000;0.0724;-0.7723;
1183.2000;0.0635;-0.7833;
1183.5000;0.0700;-0.7678;
1183.8000;0.0724;-0.7612;
1184.1000;0.0724;-0.7612;
1184.4000;0.0781;-0.7479;
1184.7000;0.0692;-0.7678;
1185.0000;0.0708;-0.7656;
1185.3000;0.0708;-0.7656;
1185.6000;0.0684;-0.7745;
1185.9000;0.0708;-0.7678;
1186.2000;0.0724;-0.7656;
1186.5000;0.0716;-0.7656;
1186.8000;0.0724;-0.7568;
1187.1000;0.0716;-0.7634;
1187.4000;0.0733;-0.7678;
1187.7000;0.0692;-0.7701;
1188.0000;0.0741;-0.7568;
1188.3000;0.0716;-0.7612;
1188.6000;0.0708;-0.7568;
1188.9000;0.0741;-0.7501;
1189.2000;0.0708;-0.7590;
1189.5000;0.0741;-0.7524;
1189.8000;0.0708;-0.7590;
1190.1000;0.0724;-0.7546;
1190.4000;0.0692;-0.7612;
1190.7000;0.0724;-0.7479;
1191.0000;0.0716;-0.7457;
1191.3000;0.0708;-0.7568;
1191.6000;0.0708;-0.7634;
1191.9000;0.0733;-0.7524;
1192.2000;0.0667;-0.7701;
1192.5000;0.0700;-0.7678;
1192.8000;0.0781;-0.7590;
1193.1000;0.0733;-0.7634;
1193.4000;0.0741;-0.7612;
1193.7000;0.0724;-0.7612;
1194.0000;0.0781;-0.7524;
1194.3000;0.0700;-0.7656;
1194.6000;0.0716;-0.7590;
1194.9000;0.0716;-0.7612;
1195.2000;0.0692;-0.7612;
1195.5000;0.0627;-0.7833;
1195.8000;0.0733;-0.7568;
1196.1000;0.0684;-0.7656;
1196.4000;0.0716;-0.7701;
1196.7000;0.0716;-0.7723;
1197.0000;0.0643;-0.7966;
1197.3000;0.0741;-0.7789;
1197.6000;0.0700;-0.7811;
1197.9000;0.0724;-0.7767;
1198.2000;0.0676;-0.7878;
1198.5000;0.0806;-0.7612;
1198.8000;0.0733;-0.7789;
1199.1000;0.0814;-0.7590;
1199.4000;0.0602;-0.8232;
1199.7000;0.0708;-0.8010;
1200.0000;0.0733;-0.7922;
1200.3000;0.0733;-0.7878;
1200.6000;0.0716;-0.7878;
1200.9000;0.0724;-0.7833;
1201.2000;0.0700;-0.7789;
1201.5000;0.0806;-0.7634;
1201.8000;0.0716;-0.7789;
1202.1000;0.0724;-0.7723;
1202.4000;0.0773;-0.7723;
1202.7000;0.0708;-0.7855;
1203.0000;0.0749;-0.7745;
1203.3000;0.0692;-0.7789;
1203.6000;0.0749;-0.7745;
1203.9000;0.0700;-0.7900;
1204.2000;0.0651;-0.8033;
1204.5000;0.0716;-0.7944;
1204.8000;0.0708;-0.7966;
1205.1000;0.0716;-0.7855;
1205.4000;0.0692;-0.7878;
1205.7000;0.0741;-0.7767;
1206.0000;0.0708;-0.7855;
1206.3000;0.0684;-0.7900;
1206.6000;0.0733;-0.7855;
1206.9000;0.0684;-0.7988;
1207.2000;0.0741;-0.7922;
1207.5000;0.0700;-0.7922;
1207.8000;0.0749;-0.7723;
1208.1000;0.0716;-0.7811;
1208.4000;0.0733;-0.7723;
1208.7000;0.0716;-0.7701;
1209.0000;0.0692;-0.7767;
1209.3000;0.0814;-0.7546;
1209.6000;0.0708;-0.7811;
1209.9000;0.0700;-0.7811;
1210.2000;0.0733;-0.7767;
1210.5000;0.0741;-0.7723;
1210.8000;0.0724;-0.7745;
1211.1000;0.0667;-0.7878;
1211.4000;0.0716;-0.7878;
1211.7000;0.0708;-0.7855;
1212.0000;0.0635;-0.8143;
1212.3000;0.0716;-0.7878;
1212.6000;0.0724;-0.7900;
1212.9000;0.0667;-0.8099;
1213.2000;0.0741;-0.7900;
1213.5000;0.0716;-0.7988;
1213.8000;0.0700;-0.7988;
1214.1000;0.0676;-0.8033;
1214.4000;0.0724;-0.7900;
1214.7000;0.0741;-0.7833;
1215.0000;0.0716;-0.7789;
1215.3000;0.0765;-0.7723;
1215.6000;0.0578;-0.8187;
1215.9000;0.0724;-0.7767;
1216.2000;0.0659;-0.7878;
1216.5000;0.0724;-0.7745;
1216.8000;0.0806;-0.7678;
1217.1000;0.0611;-0.8077;
1217.4000;0.0684;-0.7811;
1217.7000;0.0716;-0.7789;
1218.0000;0.0692;-0.7922;
1218.3000;0.0651;-0.7855;
1218.6000;0.0724;-0.7634;
1218.9000;0.0749;-0.7590;
1219.2000;0.0708;-0.7678;
1219.5000;0.0724;-0.7656;
1219.8000;0.0790;-0.7568;
1220.1000;0.0806;-0.7501;
1220.4000;0.0692;-0.7767;
1220.7000;0.0733;-0.7723;
1221.0000;0.0651;-0.7944;
1221.3000;0.0700;-0.7855;
1221.6000;0.0700;-0.7833;
1221.9000;0.0700;-0.7833;
1222.2000;0.0798;-0.7546;
1222.5000;0.0708;-0.7723;
1222.8000;0.0708;-0.7789;
1223.1000;0.0724;-0.7833;
1223.4000;0.0708;-0.7878;
1223.7000;0.0692;-0.7966;
1224.0000;0.0708;-0.7966;
1224.3000;0.0741;-0.7811;
1224.6000;0.0708;-0.7900;
1224.9000;0.0733;-0.7833;
1225.2000;0.0667;-0.7900;
1225.5000;0.0741;-0.7745;
1225.8000;0.0716;-0.7789;
1226.1000;0.0700;-0.7767;
1226.4000;0.0716;-0.7789;
1226.7000;0.0700;-0.7855;
1227.0000;0.0708;-0.7855;
1227.3000;0.0733;-0.7789;
1227.6000;0.0700;-0.7922;
1227.9000;0.0692;-0.7922;
1228.2000;0.0700;-0.7878;
1228.5000;0.0757;-0.7833;
1228.8000;0.0724;-0.7922;
1229.1000;0.0749;-0.7900;
1229.4000;0.0716;-0.7922;
1229.7000;0.0716;-0.7966;
1230.0000;0.0716;-0.7922;
1230.3000;0.0790;-0.7767;
1230.6000;0.0716;-0.7855;
1230.9000;0.0716;-0.7855;
1231.2000;0.0667;-0.7900;
1231.5000;0.0708;-0.7833;
1231.8000;0.0765;-0.7678;
1232.1000;0.0708;-0.7745;
1232.4000;0.0692;-0.7855;
1232.7000;0.0716;-0.7811;
1233.0000;0.0733;-0.7789;
1233.3000;0.0749;-0.7723;
1233.6000;0.0716;-0.7855;
1233.9000;0.0716;-0.7900;
1234.2000;0.0692;-0.8077;
1234.5000;0.0692;-0.8121;
1234.8000;0.0716;-0.8033;
1235.1000;0.0643;-0.8210;
1235.4000;0.0733;-0.8077;
1235.7000;0.0708;-0.8099;
1236.0000;0.0684;-0.8099;
1236.3000;0.0659;-0.8187;
1236.6000;0.0692;-0.8077;
1236.9000;0.0741;-0.7944;
1237.2000;0.0708;-0.8077;
1237.5000;0.0749;-0.7988;
1237.8000;0.0741;-0.7966;
1238.1000;0.0733;-0.7878;
1238.4000;0.0798;-0.7612;
1238.7000;0.0700;-0.7833;
1239.0000;0.0708;-0.7767;
1239.3000;0.0773;-0.7701;
1239.6000;0.0700;-0.7878;
1239.9000;0.0700;-0.7878;
1240.2000;0.0749;-0.7701;
1240.5000;0.0700;-0.7811;
1240.8000;0.0806;-0.7634;
1241.1000;0.0700;-0.7944;
1241.4000;0.0708;-0.7878;
1241.7000;0.0708;-0.7900;
1242.0000;0.0749;-0.7811;
1242.3000;0.0708;-0.7900;
1242.6000;0.0749;-0.7878;
1242.9000;0.0708;-0.7900;
1243.2000;0.0708;-0.7900;
1243.5000;0.0741;-0.7855;
1243.8000;0.0806;-0.7745;
1244.1000;0.0700;-0.8055;
1244.4000;0.0733;-0.8010;
1244.7000;0.0700;-0.8099;
1245.0000;0.0708;-0.8143;
1245.3000;0.0757;-0.8099;
1245.6000;0.0667;-0.8364;
1245.9000;0.0724;-0.8143;
1246.2000;0.0716;-0.8099;
1246.5000;0.0716;-0.8121;
1246.8000;0.0708;-0.8077;
1247.1000;0.0700;-0.8010;
1247.4000;0.0741;-0.7988;
1247.7000;0.0716;-0.8010;
1248.0000;0.0700;-0.7988;
1248.3000;0.0733;-0.7944;
1248.6000;0.0716;-0.8010;
1248.9000;0.0724;-0.8010;
1249.2000;0.0724;-0.7944;
1249.5000;0.0773;-0.7833;
1249.8000;0.0733;-0.7878;
1250.1000;0.0724;-0.7878;
1250.4000;0.0749;-0.7878;
1250.7000;0.0733;-0.7922;
1251.0000;0.0724;-0.7988;
1251.3000;0.0716;-0.8099;
1251.6000;0.0708;-0.8099;
1251.9000;0.0724;-0.8121;
1252.2000;0.0749;-0.8055;
1252.5000;0.0692;-0.8187;
1252.8000;0.0716;-0.8187;
1253.1000;0.0700;-0.8143;
1253.4000;0.0692;-0.8143;
1253.7000;0.0724;-0.8055;
1254.0000;0.0716;-0.8143;
1254.3000;0.0692;-0.8165;
1254.6000;0.0724;-0.8055;
1254.9000;0.0716;-0.8033;
1255.2000;0.0724;-0.8055;
1255.5000;0.0733;-0.8099;
1255.8000;0.0724;-0.8210;
1256.1000;0.0716;-0.8232;
1256.4000;0.0741;-0.8187;
1256.7000;0.0708;-0.8254;
1257.0000;0.0724;-0.8187;
1257.3000;0.0651;-0.8320;
1257.6000;0.0724;-0.8165;
1257.9000;0.0724;-0.8143;
1258.2000;0.0692;-0.8165;
1258.5000;0.0757;-0.8033;
1258.8000;0.0716;-0.8121;
1259.1000;0.0676;-0.8210;
1259.4000;0.0659;-0.8276;
1259.7000;0.0749;-0.8055;
1260.0000;0.0724;-0.8010;
1260.3000;0.0708;-0.7966;
1260.6000;0.0684;-0.8010;
1260.9000;0.0700;-0.8033;
1261.2000;0.0684;-0.8099;
1261.5000;0.0627;-0.8254;
1261.8000;0.0708;-0.8077;
1262.1000;0.0765;-0.7900;
1262.4000;0.0684;-0.8143;
1262.7000;0.0708;-0.8165;
1263.0000;0.0700;-0.8232;
1263.3000;0.0716;-0.8121;
1263.6000;0.0724;-0.7988;
1263.9000;0.0790;-0.7789;
1264.2000;0.0724;-0.7988;
1264.5000;0.0708;-0.8055;
1264.8000;0.0708;-0.8165;
1265.1000;0.0733;-0.8254;
1265.4000;0.0716;-0.8276;
1265.7000;0.0708;-0.8210;
1266.0000;0.0733;-0.8055;
1266.3000;0.0716;-0.8055;
1266.6000;0.0659;-0.8121;
1266.9000;0.0716;-0.7988;
1267.2000;0.0676;-0.8099;
1267.5000;0.0724;-0.8010;
1267.8000;0.0724;-0.8033;
1268.1000;0.0659;-0.8276;
1268.4000;0.0684;-0.8143;
1268.7000;0.0716;-0.8187;
1269.0000;0.0757;-0.8077;
1269.3000;0.0700;-0.8254;
1269.6000;0.0708;-0.8254;
1269.9000;0.0708;-0.8254;
1270.2000;0.0627;-0.8431;
1270.5000;0.0684;-0.8320;
1270.8000;0.0700;-0.8232;
1271.1000;0.0667;-0.8320;
1271.4000;0.0684;-0.8276;
1271.7000;0.0724;-0.8143;
1272.0000;0.0708;-0.8099;
1272.3000;0.0700;-0.8165;
1272.6000;0.0708;-0.8121;
1272.9000;0.0716;-0.8143;
1273.2000;0.0790;-0.8010;
1273.5000;0.0708;-0.8276;
1273.8000;0.0651;-0.8364;
1274.1000;0.0700;-0.8143;
1274.4000;0.0781;-0.7944;
1274.7000;0.0692;-0.8121;
1275.0000;0.0716;-0.8033;
1275.3000;0.0643;-0.8342;
1275.6000;0.0708;-0.8187;
1275.9000;0.0716;-0.8143;
1276.2000;0.0708;-0.8099;
1276.5000;0.0733;-0.8033;
1276.8000;0.0716;-0.8143;
1277.1000;0.0741;-0.8033;
1277.4000;0.0554;-0.8586;
1277.7000;0.0700;-0.8298;
1278.0000;0.0749;-0.8143;
1278.3000;0.0741;-0.8143;
1278.6000;0.0700;-0.8187;
1278.9000;0.0684;-0.8143;
1279.2000;0.0708;-0.8055;
1279.5000;0.0692;-0.8099;
1279.8000;0.0700;-0.8033;
1280.1000;0.0724;-0.7966;
1280.4000;0.0741;-0.7966;
1280.7000;0.0773;-0.7900;
1281.0000;0.0708;-0.8099;
1281.3000;0.0716;-0.8077;
1281.6000;0.0724;-0.8077;
1281.9000;0.0692;-0.8143;
1282.2000;0.0716;-0.8099;
1282.5000;0.0700;-0.8187;
1282.8000;0.0716;-0.8099;
1283.1000;0.0667;-0.8232;
1283.4000;0.0708;-0.8033;
1283.7000;0.0716;-0.8010;
1284.0000;0.0700;-0.8033;
1284.3000;0.0741;-0.7966;
1284.6000;0.0700;-0.8055;
1284.9000;0.0749;-0.7944;
1285.2000;0.0733;-0.7966;
1285.5000;0.0716;-0.7944;
1285.8000;0.0733;-0.8010;
1286.1000;0.0716;-0.8121;
1286.4000;0.0684;-0.8298;
1286.7000;0.0700;-0.8187;
1287.0000;0.0700;-0.8165;
1287.3000;0.0741;-0.8099;
1287.6000;0.0708;-0.8232;
1287.9000;0.0757;-0.8254;
1288.2000;0.0651;-0.8298;
1288.5000;0.0708;-0.8165;
1288.8000;0.0700;-0.8165;
1289.1000;0.0724;-0.8099;
1289.4000;0.0708;-0.8143;
1289.7000;0.0716;-0.8143;
1290.0000;0.0814;-0.7966;
1290.3000;0.0741;-0.8077;
1290.6000;0.0765;-0.7966;
1290.9000;0.0838;-0.7745;
1291.2000;0.0749;-0.7922;
1291.5000;0.0724;-0.7988;
1291.8000;0.0716;-0.7944;
1292.1000;0.0716;-0.7988;
1292.4000;0.0676;-0.8121;
1292.7000;0.0700;-0.8099;
1293.0000;0.0716;-0.8033;
1293.3000;0.0716;-0.7966;
1293.6000;0.0692;-0.7966;
1293.9000;0.0733;-0.7855;
1294.2000;0.0724;-0.7944;
1294.5000;0.0741;-0.7855;
1294.8000;0.0692;-0.7988;
1295.1000;0.0716;-0.7855;
1295.4000;0.0749;-0.7811;
1295.7000;0.0773;-0.7811;
1296.0000;0.0692;-0.8121;
1296.3000;0.0708;-0.8099;
1296.6000;0.0765;-0.7966;
1296.9000;0.0651;-0.8143;
1297.2000;0.0716;-0.7944;
1297.5000;0.0692;-0.7944;
1297.8000;0.0724;-0.7944;
1298.1000;0.0724;-0.7966;
1298.4000;0.0700;-0.8077;
1298.7000;0.0741;-0.8055;
1299.0000;0.0708;-0.8121;
1299.3000;0.0790;-0.7988;
1299.6000;0.0724;-0.8210;
1299.9000;0.0708;-0.8210;
1300.2000;0.0741;-0.8099;
1300.5000;0.0724;-0.8121;
1300.8000;0.0708;-0.8010;
1301.1000;0.0700;-0.8010;
1301.4000;0.0700;-0.8033;
1301.7000;0.0716;-0.7922;
1302.0000;0.0708;-0.7966;
1302.3000;0.0708;-0.8033;
1302.6000;0.0708;-0.8077;
1302.9000;0.0643;-0.8121;
1303.2000;0.0708;-0.7944;
1303.5000;0.0700;-0.8077;
1303.8000;0.0708;-0.8055;
1304.1000;0.0700;-0.8165;
1304.4000;0.0716;-0.8143;
1304.7000;0.0733;-0.8055;
1305.0000;0.0733;-0.7988;
1305.3000;0.0708;-0.7944;
1305.6000;0.0716;-0.7878;
1305.9000;0.0733;-0.7789;
1306.2000;0.0716;-0.7789;
1306.5000;0.0716;-0.7811;
1306.8000;0.0659;-0.7944;
1307.1000;0.0749;-0.7789;
1307.4000;0.0651;-0.8143;
1307.7000;0.0700;-0.8010;
1308.0000;0.0733;-0.7922;
1308.3000;0.0790;-0.7878;
1308.6000;0.0724;-0.7966;
1308.9000;0.0724;-0.7900;
1309.2000;0.0700;-0.7988;
1309.5000;0.0700;-0.7944;
1309.8000;0.0611;-0.8055;
1310.1000;0.0700;-0.7833;
1310.4000;0.0765;-0.7656;
1310.7000;0.0708;-0.7723;
1311.0000;0.0651;-0.7944;
1311.3000;0.0724;-0.7855;
1311.6000;0.0700;-0.7855;
1311.9000;0.0741;-0.7745;
1312.2000;0.0716;-0.7811;
1312.5000;0.0749;-0.7745;
1312.8000;0.0733;-0.7811;
1313.1000;0.0708;-0.7789;
1313.4000;0.0724;-0.7789;
1313.7000;0.0724;-0.7878;
1314.0000;0.0806;-0.7811;
1314.3000;0.0806;-0.7745;
1314.6000;0.0733;-0.7900;
1314.9000;0.0692;-0.7922;
1315.2000;0.0716;-0.7988;
1315.5000;0.0724;-0.7944;
1315.8000;0.0708;-0.7988;
1316.1000;0.0749;-0.7811;
1316.4000;0.0619;-0.8165;
1316.7000;0.0635;-0.8165;
1317.0000;0.0692;-0.7922;
1317.3000;0.0716;-0.7988;
1317.6000;0.0692;-0.7988;
1317.9000;0.0716;-0.7944;
1318.2000;0.0708;-0.7966;
1318.5000;0.0708;-0.7944;
1318.8000;0.0684;-0.7988;
1319.1000;0.0700;-0.8055;
1319.4000;0.0741;-0.7966;
1319.7000;0.0733;-0.7988;
1320.0000;0.0716;-0.8033;
1320.3000;0.0684;-0.8077;
1320.6000;0.0700;-0.8077;
1320.9000;0.0692;-0.8121;
1321.2000;0.0700;-0.8143;
1321.5000;0.0716;-0.8099;
1321.8000;0.0733;-0.8099;
1322.1000;0.0684;-0.8232;
1322.4000;0.0659;-0.8342;
1322.7000;0.0692;-0.8254;
1323.0000;0.0700;-0.8276;
1323.3000;0.0716;-0.8276;
1323.6000;0.0708;-0.8320;
1323.9000;0.0708;-0.8364;
1324.2000;0.0716;-0.8320;
1324.5000;0.0741;-0.8187;
1324.8000;0.0741;-0.8232;
1325.1000;0.0716;-0.8210;
1325.4000;0.0798;-0.8033;
1325.7000;0.0724;-0.8232;
1326.0000;0.0700;-0.8254;
1326.3000;0.0724;-0.8210;
1326.6000;0.0700;-0.8187;
1326.9000;0.0692;-0.8232;
1327.2000;0.0708;-0.8232;
1327.5000;0.0700;-0.8276;
1327.8000;0.0708;-0.8165;
1328.1000;0.0692;-0.8210;
1328.4000;0.0708;-0.8187;
1328.7000;0.0708;-0.8210;
1329.0000;0.0749;-0.8143;
1329.3000;0.0700;-0.8298;
1329.6000;0.0724;-0.8276;
1329.9000;0.0700;-0.8298;
1330.2000;0.0757;-0.8165;
1330.5000;0.0651;-0.8298;
1330.8000;0.0716;-0.8165;
1331.1000;0.0570;-0.8431;
1331.4000;0.0757;-0.7988;
1331.7000;0.0716;-0.8077;
1332.0000;0.0667;-0.8232;
1332.3000;0.0806;-0.7833;
1332.6000;0.0708;-0.8055;
1332.9000;0.0724;-0.8033;
1333.2000;0.0667;-0.8099;
1333.5000;0.0773;-0.7944;
1333.8000;0.0684;-0.8055;
1334.1000;0.0708;-0.7966;
1334.4000;0.0700;-0.8055;
1334.7000;0.0733;-0.7988;
1335.0000;0.0708;-0.7966;
1335.3000;0.0733;-0.7944;
1335.6000;0.0700;-0.8010;
1335.9000;0.0667;-0.8121;
1336.2000;0.0724;-0.7966;
1336.5000;0.0700;-0.8033;
1336.8000;0.0692;-0.8010;
1337.1000;0.0733;-0.7878;
1337.4000;0.0773;-0.7789;
1337.7000;0.0700;-0.7900;
1338.0000;0.0716;-0.7811;
1338.3000;0.0692;-0.7855;
1338.6000;0.0700;-0.7855;
1338.9000;0.0700;-0.8010;
1339.2000;0.0676;-0.7988;
1339.5000;0.0741;-0.7944;
1339.8000;0.0692;-0.7988;
1340.1000;0.0724;-0.7900;
1340.4000;0.0716;-0.7900;
1340.7000;0.0659;-0.8033;
1341.0000;0.0716;-0.7988;
1341.3000;0.0749;-0.7900;
1341.6000;0.0724;-0.8010;
1341.9000;0.0708;-0.8033;
1342.2000;0.0708;-0.8010;
1342.5000;0.0716;-0.7922;
1342.8000;0.0708;-0.7966;
1343.1000;0.0724;-0.7878;
1343.4000;0.0708;-0.7988;
1343.7000;0.0749;-0.7966;
1344.0000;0.0741;-0.7944;
1344.3000;0.0716;-0.8033;
1344.6000;0.0741;-0.7944;
1344.9000;0.0708;-0.7966;
1345.2000;0.0741;-0.7878;
1345.5000;0.0716;-0.7944;
1345.8000;0.0716;-0.7922;
1346.1000;0.0733;-0.7944;
1346.4000;0.0733;-0.7922;
1346.7000;0.0716;-0.7922;
1347.0000;0.0692;-0.8055;
1347.3000;0.0733;-0.8033;
1347.6000;0.0700;-0.8121;
1347.9000;0.0733;-0.8010;
1348.2000;0.0676;-0.8143;
1348.5000;0.0716;-0.8077;
1348.8000;0.0716;-0.8121;
1349.1000;0.0700;-0.8143;
1349.4000;0.0724;-0.8033;
1349.7000;0.0724;-0.8055;
1350.0000;0.0724;-0.8055;
1350.3000;0.0716;-0.7944;
1350.6000;0.0716;-0.7944;
1350.9000;0.0692;-0.8033;
1351.2000;0.0733;-0.7966;
1351.5000;0.0676;-0.8077;
1351.8000;0.0708;-0.7988;
1352.1000;0.0700;-0.8010;
1352.4000;0.0765;-0.7900;
1352.7000;0.0708;-0.8077;
1353.0000;0.0724;-0.7966;
1353.3000;0.0708;-0.8010;
1353.6000;0.0765;-0.7966;
1353.9000;0.0708;-0.8121;
1354.2000;0.0724;-0.8033;
1354.5000;0.0700;-0.8121;
1354.8000;0.0716;-0.8077;
1355.1000;0.0724;-0.8143;
1355.4000;0.0724;-0.8143;
1355.7000;0.0724;-0.8143;
1356.0000;0.0781;-0.7944;
1356.3000;0.0757;-0.7922;
1356.6000;0.0716;-0.8055;
1356.9000;0.0716;-0.8077;
1357.2000;0.0716;-0.8099;
1357.5000;0.0700;-0.8165;
1357.8000;0.0733;-0.7988;
1358.1000;0.0724;-0.8033;
1358.4000;0.0700;-0.7988;
1358.7000;0.0651;-0.8077;
1359.0000;0.0684;-0.8010;
1359.3000;0.0749;-0.7922;
1359.6000;0.0700;-0.7966;
1359.9000;0.0700;-0.7988;
1360.2000;0.0749;-0.7966;
1360.5000;0.0716;-0.8010;
1360.8000;0.0684;-0.8033;
1361.1000;0.0700;-0.7900;
1361.4000;0.0602;-0.8099;
1361.7000;0.0700;-0.7878;
1362.0000;0.0708;-0.7811;
1362.3000;0.0733;-0.7745;
1362.6000;0.0708;-0.7855;
1362.9000;0.0724;-0.7767;
1363.2000;0.0700;-0.7900;
1363.5000;0.0700;-0.7789;
1363.8000;0.0700;-0.7900;
1364.1000;0.0716;-0.7878;
1364.4000;0.0716;-0.7900;
1364.7000;0.0708;-0.7855;
1365.0000;0.0643;-0.8055;
1365.3000;0.0708;-0.8010;
1365.6000;0.0708;-0.7922;
1365.9000;0.0700;-0.7966;
1366.2000;0.0684;-0.8033;
1366.5000;0.0708;-0.8033;
1366.8000;0.0716;-0.8077;
1367.1000;0.0716;-0.8033;
1367.4000;0.0716;-0.7966;
1367.7000;0.0708;-0.8010;
1368.0000;0.0757;-0.7900;
1368.3000;0.0692;-0.8077;
1368.6000;0.0716;-0.8010;
1368.9000;0.0643;-0.8232;
1369.2000;0.0716;-0.7988;
1369.5000;0.0708;-0.8033;
1369.8000;0.0724;-0.7988;
1370.1000;0.0716;-0.8010;
1370.4000;0.0716;-0.8010;
1370.7000;0.0700;-0.7988;
1371.0000;0.0708;-0.7988;
1371.3000;0.0708;-0.7988;
1371.6000;0.0700;-0.8010;
1371.9000;0.0692;-0.7944;
1372.2000;0.0700;-0.7833;
1372.5000;0.0692;-0.7855;
1372.8000;0.0700;-0.7878;
1373.1000;0.0692;-0.7789;
1373.4000;0.0716;-0.7789;
1373.7000;0.0716;-0.7789;
1374.0000;0.0692;-0.7767;
1374.3000;0.0708;-0.7811;
1374.6000;0.0716;-0.7723;
1374.9000;0.0708;-0.7723;
1375.2000;0.0724;-0.7723;
1375.5000;0.0700;-0.7723;
1375.8000;0.0716;-0.7723;
1376.1000;0.0700;-0.7745;
1376.4000;0.0708;-0.7745;
1376.7000;0.0708;-0.7745;
1377.0000;0.0684;-0.7855;
1377.3000;0.0716;-0.7900;
1377.6000;0.0724;-0.7988;
1377.9000;0.0700;-0.8010;
1378.2000;0.0733;-0.8010;
1378.5000;0.0700;-0.8187;
1378.8000;0.0716;-0.8232;
1379.1000;0.0724;-0.8165;
1379.4000;0.0700;-0.8187;
1379.7000;0.0684;-0.8210;
1380.0000;0.0716;-0.8033;
1380.3000;0.0700;-0.7966;
1380.6000;0.0692;-0.8055;
1380.9000;0.0765;-0.7878;
1381.2000;0.0700;-0.7988;
1381.5000;0.0562;-0.8298;
1381.8000;0.0643;-0.8121;
1382.1000;0.0708;-0.7988;
1382.4000;0.0676;-0.8099;
1382.7000;0.0708;-0.7988;
1383.0000;0.0635;-0.8121;
1383.3000;0.0814;-0.7767;
1383.6000;0.0806;-0.7723;
1383.9000;0.0659;-0.8055;
1384.2000;0.0692;-0.8033;
1384.5000;0.0781;-0.7878;
1384.8000;0.0684;-0.8033;
1385.1000;0.0708;-0.8077;
1385.4000;0.0692;-0.8033;
1385.7000;0.0700;-0.7944;
1386.0000;0.0765;-0.7833;
1386.3000;0.0692;-0.8121;
1386.6000;0.0700;-0.8033;
1386.9000;0.0700;-0.7922;
1387.2000;0.0651;-0.8055;
1387.5000;0.0724;-0.7922;
1387.8000;0.0692;-0.8187;
1388.1000;0.0708;-0.8121;
1388.4000;0.0635;-0.8210;
1388.7000;0.0716;-0.8010;
1389.0000;0.0716;-0.7966;
1389.3000;0.0716;-0.7922;
1389.6000;0.0692;-0.8010;
1389.9000;0.0724;-0.7922;
1390.2000;0.0716;-0.7966;
1390.5000;0.0724;-0.7878;
1390.8000;0.0602;-0.8143;
1391.1000;0.0716;-0.7833;
1391.4000;0.0716;-0.7878;
1391.7000;0.0806;-0.7701;
1392.0000;0.0733;-0.7900;
1392.3000;0.0708;-0.7944;
1392.6000;0.0700;-0.7922;
1392.9000;0.0667;-0.8010;
1393.2000;0.0684;-0.7988;
1393.5000;0.0594;-0.8143;
1393.8000;0.0708;-0.7922;
1394.1000;0.0700;-0.7789;
1394.4000;0.0635;-0.7944;
1394.7000;0.0692;-0.7855;
1395.0000;0.0716;-0.7745;
1395.3000;0.0684;-0.7855;
1395.6000;0.0716;-0.7767;
1395.9000;0.0716;-0.7922;
1396.2000;0.0692;-0.8010;
1396.5000;0.0700;-0.8099;
1396.8000;0.0700;-0.8099;
1397.1000;0.0733;-0.8033;
1397.4000;0.0716;-0.8099;
1397.7000;0.0790;-0.7833;
1398.0000;0.0684;-0.8121;
1398.3000;0.0692;-0.8077;
1398.6000;0.0716;-0.7944;
1398.9000;0.0773;-0.7833;
1399.2000;0.0684;-0.7966;
1399.5000;0.0667;-0.8010;
1399.8000;0.0651;-0.8033;
