time/ms;Fluo/V;P700 deltaI/I x10³;
-199.8000;0.0773;-0.8564;
-199.5000;0.0700;-0.8763;
-199.2000;0.0741;-0.8741;
-198.9000;0.0781;-0.8674;
-198.6000;0.0749;-0.8696;
-198.3000;0.0741;-0.8630;
-198.0000;0.0724;-0.8674;
-197.7000;0.0700;-0.8696;
-197.4000;0.0708;-0.8630;
-197.1000;0.0741;-0.8630;
-196.8000;0.0847;-0.8387;
-196.5000;0.0724;-0.8763;
-196.2000;0.0773;-0.8630;
-195.9000;0.0724;-0.8674;
-195.6000;0.0716;-0.8630;
-195.3000;0.0822;-0.8342;
-195.0000;0.0749;-0.8564;
-194.7000;0.0749;-0.8608;
-194.4000;0.0741;-0.8630;
-194.1000;0.0749;-0.8718;
-193.8000;0.0716;-0.8718;
-193.5000;0.0757;-0.8696;
-193.2000;0.0838;-0.8519;
-192.9000;0.0741;-0.8829;
-192.6000;0.0773;-0.8807;
-192.3000;0.0733;-0.8896;
-192.0000;0.0741;-0.8851;
-191.7000;0.0733;-0.8873;
-191.4000;0.0790;-0.8696;
-191.1000;0.0790;-0.8741;
-190.8000;0.0781;-0.8763;
-190.5000;0.0757;-0.8829;
-190.2000;0.0765;-0.8829;
-189.9000;0.0741;-0.8829;
-189.6000;0.0781;-0.8696;
-189.3000;0.0716;-0.8785;
-189.0000;0.0741;-0.8741;
-188.7000;0.0749;-0.8696;
-188.4000;0.0741;-0.8741;
-188.1000;0.0733;-0.8652;
-187.8000;0.0733;-0.8630;
-187.5000;0.0741;-0.8541;
-187.2000;0.0733;-0.8586;
-186.9000;0.0757;-0.8497;
-186.6000;0.0749;-0.8541;
-186.3000;0.0733;-0.8541;
-186.0000;0.0692;-0.8652;
-185.7000;0.0749;-0.8541;
-185.4000;0.0781;-0.8431;
-185.1000;0.0749;-0.8608;
-184.8000;0.0741;-0.8630;
-184.5000;0.0757;-0.8519;
-184.2000;0.0749;-0.8586;
-183.9000;0.0790;-0.8475;
-183.6000;0.0773;-0.8519;
-183.3000;0.0757;-0.8630;
-183.0000;0.0716;-0.8763;
-182.7000;0.0757;-0.8696;
-182.4000;0.0773;-0.8718;
-182.1000;0.0806;-0.8630;
-181.8000;0.0773;-0.8696;
-181.5000;0.0781;-0.8608;
-181.2000;0.0757;-0.8564;
-180.9000;0.0765;-0.8586;
-180.6000;0.0749;-0.8541;
-180.3000;0.0749;-0.8541;
-180.0000;0.0798;-0.8409;
-179.7000;0.0733;-0.8630;
-179.4000;0.0798;-0.8497;
-179.1000;0.0790;-0.8497;
-178.8000;0.0724;-0.8630;
-178.5000;0.0757;-0.8564;
-178.2000;0.0765;-0.8541;
-177.9000;0.0757;-0.8608;
-177.6000;0.0749;-0.8608;
-177.3000;0.0790;-0.8453;
-177.0000;0.0773;-0.8431;
-176.7000;0.0749;-0.8431;
-176.4000;0.0757;-0.8453;
-176.1000;0.0790;-0.8364;
-175.8000;0.0765;-0.8497;
-175.5000;0.0749;-0.8519;
-175.2000;0.0708;-0.8564;
-174.9000;0.0749;-0.8431;
-174.6000;0.0749;-0.8475;
-174.3000;0.0781;-0.8475;
-174.0000;0.0733;-0.8608;
-173.7000;0.0741;-0.8608;
-173.4000;0.0749;-0.8696;
-173.1000;0.0733;-0.8785;
-172.8000;0.0773;-0.8630;
-172.5000;0.0773;-0.8608;
-172.2000;0.0765;-0.8541;
-171.9000;0.0757;-0.8586;
-171.6000;0.0830;-0.8387;
-171.3000;0.0676;-0.8718;
-171.0000;0.0627;-0.8807;
-170.7000;0.0757;-0.8497;
-170.4000;0.0749;-0.8519;
-170.1000;0.0741;-0.8541;
-169.8000;0.0798;-0.8453;
-169.5000;0.0684;-0.8718;
-169.2000;0.0749;-0.8674;
-168.9000;0.0716;-0.8807;
-168.6000;0.0806;-0.8541;
-168.3000;0.0749;-0.8763;
-168.0000;0.0692;-0.8962;
-167.7000;0.0733;-0.8829;
-167.4000;0.0757;-0.8763;
-167.1000;0.0741;-0.8741;
-166.8000;0.0749;-0.8718;
-166.5000;0.0741;-0.8718;
-166.2000;0.0741;-0.8652;
-165.9000;0.0773;-0.8519;
-165.6000;0.0741;-0.8519;
-165.3000;0.0765;-0.8409;
-165.0000;0.0659;-0.8741;
-164.7000;0.0773;-0.8409;
-164.4000;0.0749;-0.8431;
-164.1000;0.0773;-0.8364;
-163.8000;0.0741;-0.8453;
-163.5000;0.0733;-0.8475;
-163.2000;0.0765;-0.8475;
-162.9000;0.0749;-0.8519;
-162.6000;0.0757;-0.8586;
-162.3000;0.0667;-0.8851;
-162.0000;0.0773;-0.8519;
-161.7000;0.0757;-0.8564;
-161.4000;0.0757;-0.8541;
-161.1000;0.0757;-0.8519;
-160.8000;0.0757;-0.8431;
-160.5000;0.0749;-0.8409;
-160.2000;0.0733;-0.8519;
-159.9000;0.0749;-0.8409;
-159.6000;0.0757;-0.8364;
-159.3000;0.0757;-0.8431;
-159.0000;0.0643;-0.8696;
-158.7000;0.0749;-0.8475;
-158.4000;0.0724;-0.8541;
-158.1000;0.0781;-0.8364;
-157.8000;0.0692;-0.8541;
-157.5000;0.0724;-0.8364;
-157.2000;0.0676;-0.8564;
-156.9000;0.0781;-0.8298;
-156.6000;0.0716;-0.8541;
-156.3000;0.0757;-0.8431;
-156.0000;0.0814;-0.8254;
-155.7000;0.0773;-0.8387;
-155.4000;0.0757;-0.8409;
-155.1000;0.0757;-0.8409;
-154.8000;0.0733;-0.8431;
-154.5000;0.0757;-0.8431;
-154.2000;0.0741;-0.8541;
-153.9000;0.0741;-0.8564;
-153.6000;0.0724;-0.8652;
-153.3000;0.0733;-0.8541;
-153.0000;0.0749;-0.8564;
-152.7000;0.0765;-0.8497;
-152.4000;0.0757;-0.8497;
-152.1000;0.0733;-0.8564;
-151.8000;0.0773;-0.8586;
-151.5000;0.0676;-0.8741;
-151.2000;0.0773;-0.8586;
-150.9000;0.0724;-0.8608;
-150.6000;0.0741;-0.8652;
-150.3000;0.0765;-0.8630;
-150.0000;0.0749;-0.8696;
-149.7000;0.0635;-0.8962;
-149.4000;0.0749;-0.8630;
-149.1000;0.0790;-0.8564;
-148.8000;0.0749;-0.8696;
-148.5000;0.0741;-0.8763;
-148.2000;0.0733;-0.8851;
-147.9000;0.0757;-0.8807;
-147.6000;0.0757;-0.8785;
-147.3000;0.0749;-0.8851;
-147.0000;0.0676;-0.9050;
-146.7000;0.0749;-0.8940;
-146.4000;0.0798;-0.8851;
-146.1000;0.0733;-0.9006;
-145.8000;0.0733;-0.8962;
-145.5000;0.0798;-0.8896;
-145.2000;0.0765;-0.8918;
-144.9000;0.0749;-0.8984;
-144.6000;0.0749;-0.8896;
-144.3000;0.0741;-0.8940;
-144.0000;0.0749;-0.8940;
-143.7000;0.0749;-0.8873;
-143.4000;0.0749;-0.8785;
-143.1000;0.0749;-0.8785;
-142.8000;0.0724;-0.8896;
-142.5000;0.0733;-0.8873;
-142.2000;0.0749;-0.8741;
-141.9000;0.0741;-0.8785;
-141.6000;0.0765;-0.8785;
-141.3000;0.0708;-0.8940;
-141.0000;0.0757;-0.8940;
-140.7000;0.0757;-0.8962;
-140.4000;0.0790;-0.8873;
-140.1000;0.0757;-0.8962;
-139.8000;0.0741;-0.8896;
-139.5000;0.0724;-0.8829;
-139.2000;0.0773;-0.8674;
-138.9000;0.0749;-0.8630;
-138.6000;0.0733;-0.8608;
-138.3000;0.0741;-0.8674;
-138.0000;0.0733;-0.8763;
-137.7000;0.0749;-0.8741;
-137.4000;0.0765;-0.8652;
-137.1000;0.0765;-0.8630;
-136.8000;0.0749;-0.8696;
-136.5000;0.0765;-0.8608;
-136.2000;0.0724;-0.8674;
-135.9000;0.0724;-0.8674;
-135.6000;0.0741;-0.8696;
-135.3000;0.0749;-0.8718;
-135.0000;0.0749;-0.8741;
-134.7000;0.0765;-0.8763;
-134.4000;0.0765;-0.8718;
-134.1000;0.0692;-0.8851;
-133.8000;0.0741;-0.8807;
-133.5000;0.0749;-0.8718;
-133.2000;0.0773;-0.8541;
-132.9000;0.0741;-0.8608;
-132.6000;0.0716;-0.8674;
-132.3000;0.0757;-0.8541;
-132.0000;0.0773;-0.8586;
-131.7000;0.0757;-0.8696;
-131.4000;0.0765;-0.8652;
-131.1000;0.0765;-0.8652;
-130.8000;0.0749;-0.8763;
-130.5000;0.0676;-0.8940;
-130.2000;0.0749;-0.8741;
-129.9000;0.0765;-0.8763;
-129.6000;0.0741;-0.8829;
-129.3000;0.0765;-0.8741;
-129.0000;0.0741;-0.8829;
-128.7000;0.0749;-0.8696;
-128.4000;0.0749;-0.8630;
-128.1000;0.0749;-0.8630;
-127.8000;0.0765;-0.8608;
-127.5000;0.0757;-0.8541;
-127.2000;0.0757;-0.8497;
-126.9000;0.0741;-0.8497;
-126.6000;0.0741;-0.8497;
-126.3000;0.0757;-0.8431;
-126.0000;0.0765;-0.8453;
-125.7000;0.0781;-0.8453;
-125.4000;0.0749;-0.8564;
-125.1000;0.0749;-0.8674;
-124.8000;0.0773;-0.8564;
-124.5000;0.0724;-0.8674;
-124.2000;0.0733;-0.8541;
-123.9000;0.0733;-0.8586;
-123.6000;0.0700;-0.8652;
-123.3000;0.0741;-0.8586;
-123.0000;0.0733;-0.8564;
-122.7000;0.0716;-0.8541;
-122.4000;0.0790;-0.8342;
-122.1000;0.0733;-0.8453;
-121.8000;0.0741;-0.8409;
-121.5000;0.0716;-0.8453;
-121.2000;0.0749;-0.8453;
-120.9000;0.0773;-0.8320;
-120.6000;0.0749;-0.8342;
-120.3000;0.0659;-0.8497;
-120.0000;0.0765;-0.8276;
-119.7000;0.0757;-0.8364;
-119.4000;0.0741;-0.8342;
-119.1000;0.0733;-0.8409;
-118.8000;0.0741;-0.8409;
-118.5000;0.0749;-0.8409;
-118.2000;0.0700;-0.8608;
-117.9000;0.0724;-0.8497;
-117.6000;0.0733;-0.8342;
-117.3000;0.0822;-0.8187;
-117.0000;0.0757;-0.8453;
-116.7000;0.0773;-0.8387;
-116.4000;0.0700;-0.8674;
-116.1000;0.0765;-0.8519;
-115.8000;0.0741;-0.8541;
-115.5000;0.0749;-0.8475;
-115.2000;0.0716;-0.8608;
-114.9000;0.0733;-0.8586;
-114.6000;0.0773;-0.8497;
-114.3000;0.0741;-0.8497;
-114.0000;0.0749;-0.8497;
-113.7000;0.0749;-0.8387;
-113.4000;0.0773;-0.8320;
-113.1000;0.0733;-0.8409;
-112.8000;0.0741;-0.8409;
-112.5000;0.0741;-0.8431;
-112.2000;0.0749;-0.8475;
-111.9000;0.0741;-0.8586;
-111.6000;0.0741;-0.8630;
-111.3000;0.0773;-0.8541;
-111.0000;0.0887;-0.8276;
-110.7000;0.0749;-0.8608;
-110.4000;0.0741;-0.8630;
-110.1000;0.0741;-0.8608;
-109.8000;0.0757;-0.8541;
-109.5000;0.0741;-0.8652;
-109.2000;0.0749;-0.8741;
-108.9000;0.0700;-0.8829;
-108.6000;0.0741;-0.8718;
-108.3000;0.0765;-0.8630;
-108.0000;0.0724;-0.8718;
-107.7000;0.0863;-0.8387;
-107.4000;0.0733;-0.8652;
-107.1000;0.0741;-0.8608;
-106.8000;0.0741;-0.8586;
-106.5000;0.0749;-0.8586;
-106.2000;0.0741;-0.8652;
-105.9000;0.0830;-0.8409;
-105.6000;0.0822;-0.8387;
-105.3000;0.0724;-0.8475;
-105.0000;0.0749;-0.8453;
-104.7000;0.0692;-0.8630;
-104.4000;0.0781;-0.8387;
-104.1000;0.0733;-0.8586;
-103.8000;0.0749;-0.8696;
-103.5000;0.0765;-0.8608;
-103.2000;0.0765;-0.8608;
-102.9000;0.0733;-0.8696;
-102.6000;0.0749;-0.8541;
-102.3000;0.0757;-0.8541;
-102.0000;0.0781;-0.8519;
-101.7000;0.0724;-0.8519;
-101.4000;0.0765;-0.8387;
-101.1000;0.0741;-0.8475;
-100.8000;0.0749;-0.8475;
-100.5000;0.0749;-0.8453;
-100.2000;0.0798;-0.8431;
-99.9000;0.0741;-0.8630;
-99.6000;0.0822;-0.8387;
-99.3000;0.0724;-0.8586;
-99.0000;0.0733;-0.8541;
-98.7000;0.0741;-0.8541;
-98.4000;0.0724;-0.8519;
-98.1000;0.0757;-0.8453;
-97.8000;0.0724;-0.8586;
-97.5000;0.0708;-0.8652;
-97.2000;0.0724;-0.8608;
-96.9000;0.0733;-0.8652;
-96.6000;0.0619;-0.8918;
-96.3000;0.0733;-0.8696;
-96.0000;0.0667;-0.8918;
-95.7000;0.0619;-0.9050;
-95.4000;0.0814;-0.8541;
-95.1000;0.0749;-0.8763;
-94.8000;0.0749;-0.8785;
-94.5000;0.0741;-0.8873;
-94.2000;0.0716;-0.8873;
-93.9000;0.0757;-0.8741;
-93.6000;0.0749;-0.8630;
-93.3000;0.0765;-0.8564;
-93.0000;0.0749;-0.8652;
-92.7000;0.0724;-0.8696;
-92.4000;0.0741;-0.8652;
-92.1000;0.0765;-0.8608;
-91.8000;0.0667;-0.8829;
-91.5000;0.0741;-0.8652;
-91.2000;0.0749;-0.8586;
-90.9000;0.0741;-0.8519;
-90.6000;0.0773;-0.8431;
-90.3000;0.0724;-0.8519;
-90.0000;0.0741;-0.8519;
-89.7000;0.0741;-0.8564;
-89.4000;0.0741;-0.8608;
-89.1000;0.0733;-0.8718;
-88.8000;0.0733;-0.8741;
-88.5000;0.0749;-0.8652;
-88.2000;0.0749;-0.8696;
-87.9000;0.0684;-0.8873;
-87.6000;0.0708;-0.8807;
-87.3000;0.0765;-0.8630;
-87.0000;0.0716;-0.8718;
-86.7000;0.0741;-0.8718;
-86.4000;0.0741;-0.8630;
-86.1000;0.0733;-0.8630;
-85.8000;0.0749;-0.8608;
-85.5000;0.0765;-0.8630;
-85.2000;0.0757;-0.8674;
-84.9000;0.0724;-0.8696;
-84.6000;0.0708;-0.8763;
-84.3000;0.0765;-0.8586;
-84.0000;0.0733;-0.8630;
-83.7000;0.0716;-0.8630;
-83.4000;0.0651;-0.8674;
-83.1000;0.0733;-0.8409;
-82.8000;0.0733;-0.8364;
-82.5000;0.0708;-0.8453;
-82.2000;0.0830;-0.8232;
-81.9000;0.0716;-0.8586;
-81.6000;0.0757;-0.8541;
-81.3000;0.0741;-0.8586;
-81.0000;0.0708;-0.8586;
-80.7000;0.0765;-0.8409;
-80.4000;0.0855;-0.8187;
-80.1000;0.0781;-0.8320;
-79.8000;0.0741;-0.8541;
-79.5000;0.0838;-0.8342;
-79.2000;0.0781;-0.8387;
-78.9000;0.0830;-0.8210;
-78.6000;0.0716;-0.8475;
-78.3000;0.0708;-0.8586;
-78.0000;0.0716;-0.8541;
-77.7000;0.0733;-0.8541;
-77.4000;0.0798;-0.8431;
-77.1000;0.0855;-0.8232;
-76.8000;0.0749;-0.8453;
-76.5000;0.0798;-0.8431;
-76.2000;0.0716;-0.8652;
-75.9000;0.0733;-0.8652;
-75.6000;0.0684;-0.8763;
-75.3000;0.0741;-0.8608;
-75.0000;0.0749;-0.8608;
-74.7000;0.0749;-0.8564;
-74.4000;0.0716;-0.8586;
-74.1000;0.0781;-0.8342;
-73.8000;0.0749;-0.8364;
-73.5000;0.0765;-0.8409;
-73.2000;0.0733;-0.8541;
-72.9000;0.0741;-0.8519;
-72.6000;0.0757;-0.8586;
-72.3000;0.0798;-0.8409;
-72.0000;0.0700;-0.8564;
-71.7000;0.0806;-0.8276;
-71.4000;0.0773;-0.8387;
-71.1000;0.0749;-0.8453;
-70.8000;0.0757;-0.8387;
-70.5000;0.0749;-0.8431;
-70.2000;0.0749;-0.8431;
-69.9000;0.0773;-0.8409;
-69.6000;0.0733;-0.8519;
-69.3000;0.0781;-0.8431;
-69.0000;0.0765;-0.8364;
-68.7000;0.0741;-0.8431;
-68.4000;0.0716;-0.8364;
-68.1000;0.0724;-0.8364;
-67.8000;0.0757;-0.8342;
-67.5000;0.0700;-0.8586;
-67.2000;0.0749;-0.8519;
-66.9000;0.0741;-0.8608;
-66.6000;0.0781;-0.8586;
-66.3000;0.0773;-0.8586;
-66.0000;0.0741;-0.8630;
-65.7000;0.0749;-0.8564;
-65.4000;0.0757;-0.8519;
-65.1000;0.0765;-0.8431;
-64.8000;0.0733;-0.8453;
-64.5000;0.0765;-0.8342;
-64.2000;0.0773;-0.8276;
-63.9000;0.0887;-0.8033;
-63.6000;0.0757;-0.8387;
-63.3000;0.0724;-0.8519;
-63.0000;0.0684;-0.8608;
-62.7000;0.0700;-0.8586;
-62.4000;0.0724;-0.8608;
-62.1000;0.0741;-0.8497;
-61.8000;0.0741;-0.8497;
-61.5000;0.0757;-0.8519;
-61.2000;0.0838;-0.8210;
-60.9000;0.0757;-0.8409;
-60.6000;0.0733;-0.8409;
-60.3000;0.0749;-0.8475;
-60.0000;0.0757;-0.8519;
-59.7000;0.0741;-0.8564;
-59.4000;0.0749;-0.8475;
-59.1000;0.0741;-0.8409;
-58.8000;0.0741;-0.8364;
-58.5000;0.0733;-0.8409;
-58.2000;0.0741;-0.8409;
-57.9000;0.0749;-0.8409;
-57.6000;0.0733;-0.8453;
-57.3000;0.0757;-0.8254;
-57.0000;0.0790;-0.8254;
-56.7000;0.0741;-0.8453;
-56.4000;0.0830;-0.8210;
-56.1000;0.0741;-0.8431;
-55.8000;0.0765;-0.8364;
-55.5000;0.0749;-0.8364;
-55.2000;0.0765;-0.8320;
-54.9000;0.0708;-0.8409;
-54.6000;0.0757;-0.8364;
-54.3000;0.0741;-0.8475;
-54.0000;0.0790;-0.8387;
-53.7000;0.0749;-0.8519;
-53.4000;0.0684;-0.8718;
-53.1000;0.0781;-0.8431;
-52.8000;0.0765;-0.8453;
-52.5000;0.0765;-0.8475;
-52.2000;0.0741;-0.8519;
-51.9000;0.0765;-0.8453;
-51.6000;0.0749;-0.8497;
-51.3000;0.0765;-0.8387;
-51.0000;0.0798;-0.8431;
-50.7000;0.0749;-0.8541;
-50.4000;0.0741;-0.8519;
-50.1000;0.0773;-0.8453;
-49.8000;0.0724;-0.8608;
-49.5000;0.0749;-0.8652;
-49.2000;0.0724;-0.8718;
-48.9000;0.0724;-0.8785;
-48.6000;0.0741;-0.8741;
-48.3000;0.0749;-0.8741;
-48.0000;0.0733;-0.8763;
-47.7000;0.0741;-0.8630;
-47.4000;0.0749;-0.8586;
-47.1000;0.0749;-0.8564;
-46.8000;0.0749;-0.8608;
-46.5000;0.0708;-0.8718;
-46.2000;0.0741;-0.8608;
-45.9000;0.0749;-0.8519;
-45.6000;0.0733;-0.8608;
-45.3000;0.0765;-0.8453;
-45.0000;0.0781;-0.8387;
-44.7000;0.0684;-0.8630;
-44.4000;0.0724;-0.8541;
-44.1000;0.0749;-0.8497;
-43.8000;0.0749;-0.8519;
-43.5000;0.0773;-0.8342;
-43.2000;0.0757;-0.8364;
-42.9000;0.0700;-0.8586;
-42.6000;0.0724;-0.8541;
-42.3000;0.0757;-0.8453;
-42.0000;0.0741;-0.8453;
-41.7000;0.0879;-0.8143;
-41.4000;0.0765;-0.8387;
-41.1000;0.0765;-0.8431;
-40.8000;0.0676;-0.8608;
-40.5000;0.0773;-0.8298;
-40.2000;0.0700;-0.8586;
-39.9000;0.0741;-0.8519;
-39.6000;0.0749;-0.8608;
-39.3000;0.0749;-0.8630;
-39.0000;0.0749;-0.8453;
-38.7000;0.0749;-0.8431;
-38.4000;0.0773;-0.8431;
-38.1000;0.0708;-0.8519;
-37.8000;0.0733;-0.8475;
-37.5000;0.0863;-0.8121;
-37.2000;0.0773;-0.8320;
-36.9000;0.0741;-0.8364;
-36.6000;0.0765;-0.8276;
-36.3000;0.0757;-0.8364;
-36.0000;0.0781;-0.8364;
-35.7000;0.0724;-0.8364;
-35.4000;0.0757;-0.8210;
-35.1000;0.0757;-0.8187;
-34.8000;0.0757;-0.8232;
-34.5000;0.0830;-0.8077;
-34.2000;0.0749;-0.8298;
-33.9000;0.0741;-0.8276;
-33.6000;0.0765;-0.8254;
-33.3000;0.0749;-0.8232;
-33.0000;0.0749;-0.8276;
-32.7000;0.0765;-0.8276;
-32.4000;0.0871;-0.8010;
-32.1000;0.0765;-0.8187;
-31.8000;0.0781;-0.8232;
-31.5000;0.0838;-0.8099;
-31.2000;0.0749;-0.8409;
-30.9000;0.0749;-0.8475;
-30.6000;0.0757;-0.8431;
-30.3000;0.0741;-0.8431;
-30.0000;0.0741;-0.8342;
-29.7000;0.0798;-0.8187;
-29.4000;0.0741;-0.8431;
-29.1000;0.0773;-0.8342;
-28.8000;0.0749;-0.8364;
-28.5000;0.0724;-0.8320;
-28.2000;0.0708;-0.8298;
-27.9000;0.0757;-0.8165;
-27.6000;0.0733;-0.8298;
-27.3000;0.0733;-0.8320;
-27.0000;0.0757;-0.8210;
-26.7000;0.0749;-0.8232;
-26.4000;0.0741;-0.8254;
-26.1000;0.0757;-0.8232;
-25.8000;0.0765;-0.8232;
-25.5000;0.0741;-0.8364;
-25.2000;0.0733;-0.8342;
-24.9000;0.0749;-0.8298;
-24.6000;0.0724;-0.8364;
-24.3000;0.0790;-0.8187;
-24.0000;0.0733;-0.8342;
-23.7000;0.0741;-0.8431;
-23.4000;0.0765;-0.8475;
-23.1000;0.0733;-0.8586;
-22.8000;0.0733;-0.8564;
-22.5000;0.0733;-0.8564;
-22.2000;0.0765;-0.8475;
-21.9000;0.0749;-0.8564;
-21.6000;0.0692;-0.8652;
-21.3000;0.0724;-0.8564;
-21.0000;0.0724;-0.8497;
-20.7000;0.0724;-0.8387;
-20.4000;0.0724;-0.8409;
-20.1000;0.0741;-0.8320;
-19.8000;0.0733;-0.8276;
-19.5000;0.0724;-0.8342;
-19.2000;0.0757;-0.8298;
-18.9000;0.0643;-0.8652;
-18.6000;0.0700;-0.8541;
-18.3000;0.0765;-0.8497;
-18.0000;0.0749;-0.8497;
-17.7000;0.0765;-0.8497;
-17.4000;0.0757;-0.8519;
-17.1000;0.0781;-0.8431;
-16.8000;0.0773;-0.8387;
-16.5000;0.0757;-0.8387;
-16.2000;0.0757;-0.8431;
-15.9000;0.0765;-0.8564;
-15.6000;0.0765;-0.8564;
-15.3000;0.0798;-0.8431;
-15.0000;0.0741;-0.8586;
-14.7000;0.0684;-0.8741;
-14.4000;0.0741;-0.8586;
-14.1000;0.0757;-0.8652;
-13.8000;0.0757;-0.8674;
-13.5000;0.0733;-0.8674;
-13.2000;0.0684;-0.8896;
-12.9000;0.0757;-0.8586;
-12.6000;0.0757;-0.8586;
-12.3000;0.0757;-0.8630;
-12.0000;0.0790;-0.8564;
-11.7000;0.0765;-0.8630;
-11.4000;0.0765;-0.8652;
-11.1000;0.0757;-0.8696;
-10.8000;0.0757;-0.8718;
-10.5000;0.0749;-0.8741;
-10.2000;0.0741;-0.8763;
-9.9000;0.0749;-0.8763;
-9.6000;0.0741;-0.8741;
-9.3000;0.0879;-0.8431;
-9.0000;0.0749;-0.8785;
-8.7000;0.0741;-0.8763;
-8.4000;0.0773;-0.8696;
-8.1000;0.0724;-0.8718;
-7.8000;0.0733;-0.8696;
-7.5000;0.0741;-0.8652;
-7.2000;0.0765;-0.8674;
-6.9000;0.0757;-0.8652;
-6.6000;0.0741;-0.8741;
-6.3000;0.0765;-0.8652;
-6.0000;0.0757;-0.8608;
-5.7000;0.0765;-0.8453;
-5.4000;0.0757;-0.8409;
-5.1000;0.0781;-0.8453;
-4.8000;0.0757;-0.8541;
-4.5000;0.0773;-0.8453;
-4.2000;0.0741;-0.8475;
-3.9000;0.0733;-0.8497;
-3.6000;0.0757;-0.8431;
-3.3000;0.0790;-0.8431;
-3.0000;0.0765;-0.8519;
-2.7000;0.0749;-0.8497;
-2.4000;0.0724;-0.8608;
-2.1000;0.0749;-0.8586;
-1.8000;0.0790;-0.8387;
-1.5000;0.0757;-0.8541;
-1.2000;0.0733;-0.8541;
-0.9000;0.0765;-0.8453;
-0.6000;0.0757;-0.8475;
-0.3000;0.0757;-0.8431;
0.0000;0.0757;-0.8431;
0.3000;0.0757;-0.8387;
0.6000;0.0871;-0.8010;
0.9000;0.0798;-0.8165;
1.2000;0.0887;-0.7900;
1.5000;0.0781;-0.8099;
1.8000;0.0822;-0.7833;
2.1000;0.0814;-0.7811;
2.4000;0.0822;-0.7811;
2.7000;0.0838;-0.7701;
3.0000;0.0847;-0.7546;
3.3000;0.0847;-0.7546;
3.6000;0.0838;-0.7546;
3.9000;0.0838;-0.7524;
4.2000;0.0855;-0.7457;
4.5000;0.0871;-0.7413;
4.8000;0.0847;-0.7524;
5.1000;0.0855;-0.7413;
5.4000;0.0830;-0.7457;
5.7000;0.0887;-0.7391;
6.0000;0.0863;-0.7324;
6.3000;0.0838;-0.7457;
6.6000;0.0855;-0.7391;
6.9000;0.0790;-0.7590;
7.2000;0.0855;-0.7369;
7.5000;0.0871;-0.7324;
7.8000;0.0879;-0.7302;
8.1000;0.0912;-0.7147;
8.4000;0.0855;-0.7214;
8.7000;0.0871;-0.7125;
9.0000;0.0847;-0.7192;
9.3000;0.0871;-0.7147;
9.6000;0.0847;-0.7147;
9.9000;0.0993;-0.6793;
10.2000;0.0855;-0.7103;
10.5000;0.1018;-0.6749;
10.8000;0.0871;-0.7192;
11.1000;0.0887;-0.7192;
11.4000;0.0871;-0.7258;
11.7000;0.0838;-0.7435;
12.0000;0.0920;-0.7324;
12.3000;0.0863;-0.7568;
12.6000;0.0871;-0.7546;
12.9000;0.0855;-0.7568;
13.2000;0.0863;-0.7568;
13.5000;0.0895;-0.7413;
13.8000;0.0863;-0.7435;
14.1000;0.0838;-0.7501;
14.4000;0.0871;-0.7479;
14.7000;0.0879;-0.7435;
15.0000;0.0855;-0.7413;
15.3000;0.0863;-0.7413;
15.6000;0.0838;-0.7457;
15.9000;0.0871;-0.7369;
16.2000;0.0879;-0.7280;
16.5000;0.0838;-0.7280;
16.8000;0.0887;-0.7214;
17.1000;0.0879;-0.7280;
17.4000;0.0855;-0.7347;
17.7000;0.0863;-0.7391;
18.0000;0.0871;-0.7347;
18.3000;0.0855;-0.7324;
18.6000;0.0855;-0.7347;
18.9000;0.0863;-0.7347;
19.2000;0.0814;-0.7479;
19.5000;0.0847;-0.7369;
19.8000;0.0855;-0.7347;
20.1000;0.0879;-0.7324;
20.4000;0.0855;-0.7369;
20.7000;0.1018;-0.6926;
21.0000;0.0879;-0.7324;
21.3000;0.0863;-0.7280;
21.6000;0.0879;-0.7236;
21.9000;0.0895;-0.7147;
22.2000;0.0887;-0.7192;
22.5000;0.0855;-0.7324;
22.8000;0.0855;-0.7413;
23.1000;0.0879;-0.7302;
23.4000;0.0871;-0.7324;
23.7000;0.0847;-0.7457;
24.0000;0.0879;-0.7391;
24.3000;0.0887;-0.7391;
24.6000;0.0936;-0.7324;
24.9000;0.0895;-0.7501;
25.2000;0.0749;-0.7767;
25.5000;0.0863;-0.7479;
25.8000;0.0977;-0.7081;
26.1000;0.0879;-0.7280;
26.4000;0.0871;-0.7347;
26.7000;0.0830;-0.7391;
27.0000;0.0871;-0.7280;
27.3000;0.0871;-0.7347;
27.6000;0.0822;-0.7546;
27.9000;0.0871;-0.7501;
28.2000;0.0847;-0.7590;
28.5000;0.0847;-0.7590;
28.8000;0.0887;-0.7479;
29.1000;0.0871;-0.7546;
29.4000;0.0879;-0.7457;
29.7000;0.0879;-0.7369;
30.0000;0.0879;-0.7391;
30.3000;0.0912;-0.7391;
30.6000;0.0895;-0.7479;
30.9000;0.0928;-0.7391;
31.2000;0.0887;-0.7479;
31.5000;0.0879;-0.7435;
31.8000;0.0871;-0.7457;
32.1000;0.0863;-0.7369;
32.4000;0.0928;-0.7192;
32.7000;0.0920;-0.7258;
33.0000;0.0904;-0.7347;
33.3000;0.0871;-0.7413;
33.6000;0.0871;-0.7391;
33.9000;0.0904;-0.7369;
34.2000;0.0887;-0.7524;
34.5000;0.0895;-0.7568;
34.8000;0.0912;-0.7524;
35.1000;0.0879;-0.7590;
35.4000;0.0757;-0.7900;
35.7000;0.0920;-0.7479;
36.0000;0.0879;-0.7457;
36.3000;0.0895;-0.7479;
36.6000;0.0863;-0.7457;
36.9000;0.0879;-0.7501;
37.2000;0.0855;-0.7479;
37.5000;0.0879;-0.7435;
37.8000;0.0912;-0.7324;
38.1000;0.0863;-0.7479;
38.4000;0.0871;-0.7457;
38.7000;0.0887;-0.7435;
39.0000;0.0879;-0.7501;
39.3000;0.0895;-0.7479;
39.6000;0.0879;-0.7501;
39.9000;0.0830;-0.7634;
40.2000;0.0879;-0.7546;
40.5000;0.0887;-0.7479;
40.8000;0.0863;-0.7501;
41.1000;0.0847;-0.7546;
41.4000;0.0879;-0.7435;
41.7000;0.0863;-0.7435;
42.0000;0.0887;-0.7369;
42.3000;0.0871;-0.7391;
42.6000;0.0879;-0.7324;
42.9000;0.0879;-0.7413;
43.2000;0.0847;-0.7546;
43.5000;0.0879;-0.7501;
43.8000;0.0838;-0.7568;
44.1000;0.0871;-0.7524;
44.4000;0.0904;-0.7369;
44.7000;0.0920;-0.7324;
45.0000;0.0781;-0.7678;
45.3000;0.0887;-0.7501;
45.6000;0.0904;-0.7479;
45.9000;0.0847;-0.7546;
46.2000;0.0879;-0.7524;
46.5000;0.0855;-0.7524;
46.8000;0.0887;-0.7435;
47.1000;0.0895;-0.7413;
47.4000;0.0871;-0.7435;
47.7000;0.0904;-0.7236;
48.0000;0.0871;-0.7258;
48.3000;0.0912;-0.7170;
48.6000;0.0863;-0.7258;
48.9000;0.0904;-0.7324;
49.2000;0.0871;-0.7479;
49.5000;0.0790;-0.7811;
49.8000;0.0847;-0.7568;
50.1000;0.0912;-0.7435;
50.4000;0.0887;-0.7568;
50.7000;0.0871;-0.7568;
51.0000;0.0879;-0.7634;
51.3000;0.0871;-0.7678;
51.6000;0.0895;-0.7612;
51.9000;0.0887;-0.7678;
52.2000;0.0887;-0.7745;
52.5000;0.0879;-0.7678;
52.8000;0.0920;-0.7546;
53.1000;0.0847;-0.7745;
53.4000;0.0928;-0.7457;
53.7000;0.0838;-0.7678;
54.0000;0.0928;-0.7701;
54.3000;0.0830;-0.7767;
54.6000;0.0887;-0.7590;
54.9000;0.0879;-0.7568;
55.2000;0.0895;-0.7590;
55.5000;0.0757;-0.7944;
55.8000;0.0887;-0.7678;
56.1000;0.0863;-0.7767;
56.4000;0.0887;-0.7678;
56.7000;0.0879;-0.7701;
57.0000;0.0879;-0.7701;
57.3000;0.0879;-0.7656;
57.6000;0.0879;-0.7590;
57.9000;0.0952;-0.7369;
58.2000;0.0847;-0.7656;
58.5000;0.0887;-0.7501;
58.8000;0.0887;-0.7546;
59.1000;0.0879;-0.7678;
59.4000;0.0765;-0.7944;
59.7000;0.0879;-0.7612;
60.0000;0.0912;-0.7568;
60.3000;0.0895;-0.7568;
60.6000;0.0904;-0.7457;
60.9000;0.0879;-0.7612;
61.2000;0.0879;-0.7656;
61.5000;0.0879;-0.7701;
61.8000;0.0871;-0.7811;
62.1000;0.0887;-0.7723;
62.4000;0.0871;-0.7701;
62.7000;0.0879;-0.7634;
63.0000;0.0904;-0.7656;
63.3000;0.0904;-0.7656;
63.6000;0.0871;-0.7723;
63.9000;0.0871;-0.7723;
64.2000;0.0863;-0.7678;
64.5000;0.0904;-0.7656;
64.8000;0.0904;-0.7656;
65.1000;0.0871;-0.7634;
65.4000;0.0879;-0.7590;
65.7000;0.0912;-0.7524;
66.0000;0.0814;-0.7701;
66.3000;0.0887;-0.7590;
66.6000;0.0871;-0.7634;
66.9000;0.0887;-0.7656;
67.2000;0.0879;-0.7634;
67.5000;0.0961;-0.7435;
67.8000;0.0912;-0.7546;
68.1000;0.0895;-0.7590;
68.4000;0.0790;-0.7833;
68.7000;0.0871;-0.7656;
69.0000;0.0920;-0.7590;
69.3000;0.0887;-0.7678;
69.6000;0.0887;-0.7723;
69.9000;0.0871;-0.7678;
70.2000;0.0887;-0.7745;
70.5000;0.0887;-0.7811;
70.8000;0.0871;-0.7855;
71.1000;0.0879;-0.7900;
71.4000;0.0904;-0.7789;
71.7000;0.0887;-0.7811;
72.0000;0.0863;-0.7878;
72.3000;0.0944;-0.7701;
72.6000;0.0847;-0.7723;
72.9000;0.0838;-0.7656;
73.2000;0.0871;-0.7634;
73.5000;0.0920;-0.7524;
73.8000;0.0912;-0.7568;
74.1000;0.0904;-0.7612;
74.4000;0.0912;-0.7612;
74.7000;0.0887;-0.7656;
75.0000;0.0855;-0.7767;
75.3000;0.0895;-0.7656;
75.6000;0.0895;-0.7678;
75.9000;0.0847;-0.7811;
76.2000;0.0904;-0.7745;
76.5000;0.0887;-0.7767;
76.8000;0.0887;-0.7701;
77.1000;0.0806;-0.7833;
77.4000;0.0895;-0.7701;
77.7000;0.0847;-0.7767;
78.0000;0.0912;-0.7656;
78.3000;0.0887;-0.7723;
78.6000;0.0895;-0.7568;
78.9000;0.0887;-0.7612;
79.2000;0.0944;-0.7435;
79.5000;0.0855;-0.7612;
79.8000;0.0887;-0.7568;
80.1000;0.0895;-0.7568;
80.4000;0.0912;-0.7524;
80.7000;0.0855;-0.7678;
81.0000;0.0912;-0.7546;
81.3000;0.0895;-0.7457;
81.6000;0.0912;-0.7435;
81.9000;0.0912;-0.7413;
82.2000;0.0879;-0.7457;
82.5000;0.0879;-0.7457;
82.8000;0.0855;-0.7524;
83.1000;0.0912;-0.7435;
83.4000;0.0822;-0.7678;
83.7000;0.0895;-0.7457;
84.0000;0.0863;-0.7501;
84.3000;0.0920;-0.7457;
84.6000;0.0904;-0.7568;
84.9000;0.0920;-0.7590;
85.2000;0.0895;-0.7656;
85.5000;0.0952;-0.7524;
85.8000;0.0887;-0.7590;
86.1000;0.0887;-0.7524;
86.4000;0.0912;-0.7479;
86.7000;0.0895;-0.7546;
87.0000;0.0895;-0.7590;
87.3000;0.0912;-0.7568;
87.6000;0.0863;-0.7634;
87.9000;0.0904;-0.7546;
88.2000;0.0863;-0.7723;
88.5000;0.0904;-0.7612;
88.8000;0.0904;-0.7701;
89.1000;0.0904;-0.7789;
89.4000;0.0904;-0.7855;
89.7000;0.1026;-0.7524;
90.0000;0.0895;-0.7745;
90.3000;0.0912;-0.7701;
90.6000;0.0879;-0.7789;
90.9000;0.0814;-0.7900;
91.2000;0.0912;-0.7656;
91.5000;0.0838;-0.7723;
91.8000;0.0887;-0.7723;
92.1000;0.0855;-0.7745;
92.4000;0.0887;-0.7656;
92.7000;0.0871;-0.7590;
93.0000;0.0904;-0.7435;
93.3000;0.0887;-0.7479;
93.6000;0.0904;-0.7369;
93.9000;0.0895;-0.7457;
94.2000;0.0871;-0.7546;
94.5000;0.0887;-0.7590;
94.8000;0.0985;-0.7192;
95.1000;0.0879;-0.7413;
95.4000;0.0920;-0.7280;
95.7000;0.0895;-0.7324;
96.0000;0.0904;-0.7347;
96.3000;0.0928;-0.7258;
96.6000;0.0863;-0.7413;
96.9000;0.0895;-0.7391;
97.2000;0.0895;-0.7413;
97.5000;0.0887;-0.7501;
97.8000;0.0895;-0.7457;
98.1000;0.0879;-0.7524;
98.4000;0.0879;-0.7590;
98.7000;0.0920;-0.7568;
99.0000;0.0985;-0.7324;
99.3000;0.0895;-0.7524;
99.6000;0.0887;-0.7546;
99.9000;0.0887;-0.7524;
100.2000;0.0887;-0.7568;
100.5000;0.0895;-0.7479;
100.8000;0.0838;-0.7546;
101.1000;0.0895;-0.7391;
101.4000;0.0961;-0.7170;
101.7000;0.0895;-0.7435;
102.0000;0.0879;-0.7479;
102.3000;0.0879;-0.7435;
102.6000;0.0798;-0.7612;
102.9000;0.0855;-0.7501;
103.2000;0.0879;-0.7590;
103.5000;0.0904;-0.7524;
103.8000;0.0895;-0.7457;
104.1000;0.0912;-0.7324;
104.4000;0.0863;-0.7524;
104.7000;0.0895;-0.7435;
105.0000;0.0904;-0.7347;
105.3000;0.0871;-0.7391;
105.6000;0.0904;-0.7369;
105.9000;0.0912;-0.7280;
106.2000;0.0895;-0.7347;
106.5000;0.0887;-0.7347;
106.8000;0.0879;-0.7347;
107.1000;0.0879;-0.7435;
107.4000;0.0895;-0.7457;
107.7000;0.0944;-0.7302;
108.0000;0.0887;-0.7457;
108.3000;0.0895;-0.7479;
108.6000;0.0781;-0.7612;
108.9000;0.0912;-0.7280;
109.2000;0.0895;-0.7347;
109.5000;0.0912;-0.7258;
109.8000;0.0871;-0.7435;
110.1000;0.0887;-0.7413;
110.4000;0.0887;-0.7369;
110.7000;0.0871;-0.7413;
111.0000;0.0879;-0.7369;
111.3000;0.0879;-0.7435;
111.6000;0.0879;-0.7413;
111.9000;0.0871;-0.7479;
112.2000;0.0879;-0.7457;
112.5000;0.0895;-0.7457;
112.8000;0.0904;-0.7479;
113.1000;0.0855;-0.7546;
113.4000;0.0887;-0.7435;
113.7000;0.0904;-0.7280;
114.0000;0.0904;-0.7302;
114.3000;0.0855;-0.7501;
114.6000;0.0977;-0.7280;
114.9000;0.0904;-0.7413;
115.2000;0.0887;-0.7391;
115.5000;0.0871;-0.7479;
115.8000;0.0822;-0.7612;
116.1000;0.0879;-0.7524;
116.4000;0.0838;-0.7612;
116.7000;0.0838;-0.7656;
117.0000;0.0879;-0.7546;
117.3000;0.0879;-0.7524;
117.6000;0.0887;-0.7501;
117.9000;0.0871;-0.7501;
118.2000;0.0887;-0.7391;
118.5000;0.0887;-0.7391;
118.8000;0.0912;-0.7302;
119.1000;0.0895;-0.7280;
119.4000;0.0895;-0.7324;
119.7000;0.0912;-0.7302;
120.0000;0.0904;-0.7369;
120.3000;0.0969;-0.7280;
120.6000;0.0895;-0.7435;
120.9000;0.0863;-0.7590;
121.2000;0.0904;-0.7457;
121.5000;0.0887;-0.7524;
121.8000;0.0904;-0.7479;
122.1000;0.0969;-0.7369;
122.4000;0.0838;-0.7634;
122.7000;0.0895;-0.7479;
123.0000;0.0887;-0.7568;
123.3000;0.0871;-0.7568;
123.6000;0.0895;-0.7479;
123.9000;0.0895;-0.7479;
124.2000;0.0912;-0.7457;
124.5000;0.0895;-0.7457;
124.8000;0.0855;-0.7501;
125.1000;0.0887;-0.7413;
125.4000;0.0879;-0.7457;
125.7000;0.0895;-0.7302;
126.0000;0.0871;-0.7280;
126.3000;0.0904;-0.7302;
126.6000;0.0871;-0.7302;
126.9000;0.0863;-0.7391;
127.2000;0.0887;-0.7479;
127.5000;0.0887;-0.7524;
127.8000;0.0895;-0.7568;
128.1000;0.0814;-0.7745;
128.4000;0.0895;-0.7479;
128.7000;0.0912;-0.7524;
129.0000;0.0904;-0.7568;
129.3000;0.0871;-0.7590;
129.6000;0.0895;-0.7457;
129.9000;0.0887;-0.7479;
130.2000;0.0887;-0.7568;
130.5000;0.0904;-0.7546;
130.8000;0.0928;-0.7413;
131.1000;0.0879;-0.7501;
131.4000;0.0887;-0.7479;
131.7000;0.0863;-0.7568;
132.0000;0.0912;-0.7501;
132.3000;0.0904;-0.7457;
132.6000;0.0871;-0.7524;
132.9000;0.0920;-0.7457;
133.2000;0.0904;-0.7457;
133.5000;0.0871;-0.7568;
133.8000;0.0912;-0.7524;
134.1000;0.0887;-0.7546;
134.4000;0.0895;-0.7546;
134.7000;0.0928;-0.7524;
135.0000;0.0887;-0.7678;
135.3000;0.0895;-0.7701;
135.6000;0.0879;-0.7723;
135.9000;0.0912;-0.7634;
136.2000;0.0749;-0.7944;
136.5000;0.0895;-0.7634;
136.8000;0.0871;-0.7612;
137.1000;0.0895;-0.7568;
137.4000;0.0838;-0.7656;
137.7000;0.0887;-0.7546;
138.0000;0.0887;-0.7479;
138.3000;0.0895;-0.7568;
138.6000;0.0863;-0.7634;
138.9000;0.0887;-0.7457;
139.2000;0.0944;-0.7324;
139.5000;0.0952;-0.7280;
139.8000;0.0912;-0.7369;
140.1000;0.1009;-0.7192;
140.4000;0.0936;-0.7391;
140.7000;0.0895;-0.7457;
141.0000;0.0863;-0.7479;
141.3000;0.0904;-0.7324;
141.6000;0.0904;-0.7435;
141.9000;0.0904;-0.7413;
142.2000;0.0879;-0.7524;
142.5000;0.0863;-0.7501;
142.8000;0.0912;-0.7413;
143.1000;0.0887;-0.7501;
143.4000;0.0920;-0.7391;
143.7000;0.0895;-0.7413;
144.0000;0.0871;-0.7457;
144.3000;0.0879;-0.7457;
144.6000;0.0887;-0.7457;
144.9000;0.0887;-0.7479;
145.2000;0.0895;-0.7546;
145.5000;0.0912;-0.7479;
145.8000;0.0920;-0.7413;
146.1000;0.0904;-0.7347;
146.4000;0.0879;-0.7435;
146.7000;0.0904;-0.7435;
147.0000;0.0887;-0.7479;
147.3000;0.0887;-0.7479;
147.6000;0.0847;-0.7612;
147.9000;0.0879;-0.7524;
148.2000;0.0904;-0.7479;
148.5000;0.0895;-0.7568;
148.8000;0.0863;-0.7678;
149.1000;0.0920;-0.7524;
149.4000;0.0904;-0.7568;
149.7000;0.0863;-0.7612;
150.0000;0.0928;-0.7413;
150.3000;0.0887;-0.7524;
150.6000;0.0838;-0.7546;
150.9000;0.0895;-0.7302;
151.2000;0.0904;-0.7369;
151.5000;0.0912;-0.7369;
151.8000;0.0879;-0.7479;
152.1000;0.0928;-0.7369;
152.4000;0.0904;-0.7413;
152.7000;0.0887;-0.7391;
153.0000;0.0887;-0.7302;
153.3000;0.0887;-0.7258;
153.6000;0.0871;-0.7280;
153.9000;0.0863;-0.7302;
154.2000;0.0895;-0.7214;
154.5000;0.0969;-0.7015;
154.8000;0.0895;-0.7125;
155.1000;0.0871;-0.7236;
155.4000;0.0895;-0.7192;
155.7000;0.0830;-0.7302;
156.0000;0.0928;-0.7125;
156.3000;0.0830;-0.7369;
156.6000;0.0944;-0.7125;
156.9000;0.0895;-0.7214;
157.2000;0.0961;-0.7059;
157.5000;0.0879;-0.7280;
157.8000;0.0912;-0.7214;
158.1000;0.0895;-0.7192;
158.4000;0.0904;-0.7125;
158.7000;0.0928;-0.7081;
159.0000;0.0895;-0.7192;
159.3000;0.0920;-0.7236;
159.6000;0.0928;-0.7236;
159.9000;0.0912;-0.7324;
160.2000;0.0895;-0.7347;
160.5000;0.0887;-0.7457;
160.8000;0.0912;-0.7324;
161.1000;0.0912;-0.7347;
161.4000;0.0952;-0.7280;
161.7000;0.0871;-0.7457;
162.0000;0.0904;-0.7435;
162.3000;0.0904;-0.7457;
162.6000;0.0928;-0.7435;
162.9000;0.0814;-0.7745;
163.2000;0.0928;-0.7479;
163.5000;0.0887;-0.7501;
163.8000;0.0847;-0.7723;
164.1000;0.0855;-0.7723;
164.4000;0.0904;-0.7612;
164.7000;0.0912;-0.7701;
165.0000;0.0887;-0.7656;
165.3000;0.0887;-0.7678;
165.6000;0.0912;-0.7590;
165.9000;0.0961;-0.7391;
166.2000;0.0895;-0.7568;
166.5000;0.0855;-0.7612;
166.8000;0.0904;-0.7590;
167.1000;0.0887;-0.7524;
167.4000;0.0822;-0.7701;
167.7000;0.0952;-0.7369;
168.0000;0.0855;-0.7656;
168.3000;0.0936;-0.7391;
168.6000;0.0904;-0.7479;
168.9000;0.1074;-0.7015;
169.2000;0.0830;-0.7590;
169.5000;0.0936;-0.7435;
169.8000;0.0928;-0.7413;
170.1000;0.0912;-0.7479;
170.4000;0.0822;-0.7656;
170.7000;0.0920;-0.7369;
171.0000;0.0969;-0.7214;
171.3000;0.0904;-0.7347;
171.6000;0.0912;-0.7347;
171.9000;0.1026;-0.7192;
172.2000;0.0936;-0.7524;
172.5000;0.0936;-0.7501;
172.8000;0.0830;-0.7723;
173.1000;0.0920;-0.7501;
173.4000;0.0895;-0.7479;
173.7000;0.0977;-0.7236;
174.0000;0.0961;-0.7170;
174.3000;0.0912;-0.7324;
174.6000;0.0855;-0.7369;
174.9000;0.0895;-0.7280;
175.2000;0.0912;-0.7280;
175.5000;0.0863;-0.7413;
175.8000;0.0920;-0.7347;
176.1000;0.0895;-0.7369;
176.4000;0.0912;-0.7258;
176.7000;0.0977;-0.7081;
177.0000;0.0879;-0.7347;
177.3000;0.0920;-0.7324;
177.6000;0.0912;-0.7302;
177.9000;0.0895;-0.7258;
178.2000;0.0855;-0.7369;
178.5000;0.0904;-0.7258;
178.8000;0.0895;-0.7369;
179.1000;0.0904;-0.7391;
179.4000;0.0895;-0.7369;
179.7000;0.0895;-0.7391;
180.0000;0.0904;-0.7391;
180.3000;0.0871;-0.7457;
180.6000;0.0887;-0.7413;
180.9000;0.0912;-0.7391;
181.2000;0.0904;-0.7391;
181.5000;0.0879;-0.7413;
181.8000;0.0879;-0.7369;
182.1000;0.0936;-0.7280;
182.4000;0.0855;-0.7457;
182.7000;0.0895;-0.7479;
183.0000;0.0887;-0.7435;
183.3000;0.0895;-0.7524;
183.6000;0.0936;-0.7435;
183.9000;0.0895;-0.7524;
184.2000;0.0912;-0.7479;
184.5000;0.0920;-0.7369;
184.8000;0.0879;-0.7457;
185.1000;0.0904;-0.7369;
185.4000;0.0928;-0.7324;
185.7000;0.0928;-0.7280;
186.0000;0.1058;-0.6970;
186.3000;0.0871;-0.7457;
186.6000;0.0920;-0.7236;
186.9000;0.0904;-0.7347;
187.2000;0.0879;-0.7457;
187.5000;0.0920;-0.7302;
187.8000;0.0895;-0.7479;
188.1000;0.0895;-0.7568;
188.4000;0.0895;-0.7590;
188.7000;0.0904;-0.7501;
189.0000;0.0944;-0.7435;
189.3000;0.0936;-0.7435;
189.6000;0.0822;-0.7701;
189.9000;0.0887;-0.7568;
190.2000;0.0887;-0.7568;
190.5000;0.0904;-0.7435;
190.8000;0.0912;-0.7413;
191.1000;0.0879;-0.7501;
191.4000;0.0961;-0.7258;
191.7000;0.0952;-0.7280;
192.0000;0.0912;-0.7369;
192.3000;0.0887;-0.7479;
192.6000;0.0920;-0.7457;
192.9000;0.0790;-0.7745;
193.2000;0.0936;-0.7302;
193.5000;0.0871;-0.7501;
193.8000;0.0887;-0.7435;
194.1000;0.0904;-0.7435;
194.4000;0.0944;-0.7324;
194.7000;0.0838;-0.7590;
195.0000;0.0895;-0.7479;
195.3000;0.0895;-0.7391;
195.6000;0.0887;-0.7391;
195.9000;0.0887;-0.7347;
196.2000;0.0920;-0.7236;
196.5000;0.0847;-0.7435;
196.8000;0.0871;-0.7391;
197.1000;0.0895;-0.7435;
197.4000;0.0879;-0.7524;
197.7000;0.0879;-0.7568;
198.0000;0.0895;-0.7612;
198.3000;0.0879;-0.7634;
198.6000;0.0879;-0.7656;
198.9000;0.0887;-0.7568;
199.2000;0.0822;-0.7723;
199.5000;0.0838;-0.7656;
199.8000;0.0895;-0.7524;
200.1000;0.0952;-0.7302;
200.4000;0.0904;-0.7413;
200.7000;0.0895;-0.7369;
201.0000;0.0863;-0.7479;
201.3000;0.0871;-0.7435;
201.6000;0.0847;-0.7546;
201.9000;0.0912;-0.7324;
202.2000;0.0920;-0.7280;
202.5000;0.0887;-0.7413;
202.8000;0.0936;-0.7369;
203.1000;0.0920;-0.7413;
203.4000;0.0912;-0.7369;
203.7000;0.0871;-0.7413;
204.0000;0.0920;-0.7302;
204.3000;0.0871;-0.7369;
204.6000;0.0895;-0.7302;
204.9000;0.0887;-0.7413;
205.2000;0.0871;-0.7524;
205.5000;0.0936;-0.7413;
205.8000;0.0887;-0.7435;
206.1000;0.0871;-0.7568;
206.4000;0.0887;-0.7435;
206.7000;0.0904;-0.7457;
207.0000;0.0904;-0.7391;
207.3000;0.0912;-0.7369;
207.6000;0.0912;-0.7457;
207.9000;0.0887;-0.7524;
208.2000;0.0895;-0.7435;
208.5000;0.0904;-0.7324;
208.8000;0.0863;-0.7413;
209.1000;0.0879;-0.7413;
209.4000;0.0928;-0.7391;
209.7000;0.0920;-0.7435;
210.0000;0.0952;-0.7347;
210.3000;0.0887;-0.7413;
210.6000;0.0920;-0.7347;
210.9000;0.0887;-0.7413;
211.2000;0.0887;-0.7413;
211.5000;0.0887;-0.7435;
211.8000;0.0879;-0.7457;
212.1000;0.0904;-0.7347;
212.4000;0.0912;-0.7302;
212.7000;0.0912;-0.7324;
213.0000;0.0895;-0.7435;
213.3000;0.0904;-0.7501;
213.6000;0.0871;-0.7524;
213.9000;0.0904;-0.7391;
214.2000;0.0912;-0.7391;
214.5000;0.0879;-0.7479;
214.8000;0.0895;-0.7457;
215.1000;0.0985;-0.7302;
215.4000;0.0895;-0.7457;
215.7000;0.0912;-0.7369;
216.0000;0.0904;-0.7280;
216.3000;0.0912;-0.7280;
216.6000;0.0912;-0.7280;
216.9000;0.0895;-0.7391;
217.2000;0.0904;-0.7369;
217.5000;0.0830;-0.7568;
217.8000;0.0887;-0.7546;
218.1000;0.0904;-0.7501;
218.4000;0.0904;-0.7391;
218.7000;0.0895;-0.7347;
219.0000;0.0895;-0.7280;
219.3000;0.0895;-0.7258;
219.6000;0.0936;-0.7192;
219.9000;0.0912;-0.7280;
220.2000;0.0936;-0.7192;
220.5000;0.0904;-0.7258;
220.8000;0.0895;-0.7258;
221.1000;0.0887;-0.7214;
221.4000;0.0879;-0.7170;
221.7000;0.0887;-0.7059;
222.0000;0.0912;-0.6992;
222.3000;0.0871;-0.7103;
222.6000;0.0961;-0.6904;
222.9000;0.0895;-0.7081;
223.2000;0.0879;-0.7125;
223.5000;0.0887;-0.7081;
223.8000;0.0887;-0.7170;
224.1000;0.0961;-0.6970;
224.4000;0.0887;-0.7147;
224.7000;0.0871;-0.7125;
225.0000;0.0895;-0.7170;
225.3000;0.0871;-0.7192;
225.6000;0.0912;-0.7125;
225.9000;0.0904;-0.7125;
226.2000;0.0993;-0.7015;
226.5000;0.0895;-0.7192;
226.8000;0.0912;-0.7280;
227.1000;0.0904;-0.7324;
227.4000;0.0895;-0.7391;
227.7000;0.0847;-0.7524;
228.0000;0.0887;-0.7501;
228.3000;0.0912;-0.7413;
228.6000;0.0871;-0.7435;
228.9000;0.0895;-0.7413;
229.2000;0.0822;-0.7634;
229.5000;0.0895;-0.7479;
229.8000;0.0895;-0.7501;
230.1000;0.0887;-0.7546;
230.4000;0.0912;-0.7501;
230.7000;0.0904;-0.7524;
231.0000;0.0936;-0.7413;
231.3000;0.0814;-0.7678;
231.6000;0.0887;-0.7568;
231.9000;0.0855;-0.7634;
232.2000;0.0904;-0.7457;
232.5000;0.0871;-0.7479;
232.8000;0.0749;-0.7745;
233.1000;0.0904;-0.7413;
233.4000;0.0871;-0.7457;
233.7000;0.0920;-0.7324;
234.0000;0.0798;-0.7524;
234.3000;0.0904;-0.7347;
234.6000;0.0920;-0.7324;
234.9000;0.0887;-0.7413;
235.2000;0.0904;-0.7391;
235.5000;0.0904;-0.7302;
235.8000;0.0912;-0.7280;
236.1000;0.0855;-0.7435;
236.4000;0.0879;-0.7324;
236.7000;0.0912;-0.7236;
237.0000;0.0887;-0.7324;
237.3000;0.0904;-0.7258;
237.6000;0.1001;-0.7015;
237.9000;0.0928;-0.7324;
238.2000;0.0895;-0.7280;
238.5000;0.0871;-0.7236;
238.8000;0.0879;-0.7280;
239.1000;0.0757;-0.7656;
239.4000;0.0895;-0.7369;
239.7000;0.0904;-0.7302;
240.0000;0.0895;-0.7258;
240.3000;0.0912;-0.7192;
240.6000;0.0887;-0.7192;
240.9000;0.0920;-0.7081;
241.2000;0.0879;-0.7103;
241.5000;0.0895;-0.7059;
241.8000;0.0895;-0.7170;
242.1000;0.0871;-0.7214;
242.4000;0.0895;-0.7170;
242.7000;0.0904;-0.7170;
243.0000;0.0904;-0.7214;
243.3000;0.0904;-0.7170;
243.6000;0.0904;-0.7236;
243.9000;0.0912;-0.7280;
244.2000;0.0895;-0.7413;
244.5000;0.0887;-0.7435;
244.8000;0.0912;-0.7413;
245.1000;0.0920;-0.7369;
245.4000;0.0887;-0.7391;
245.7000;0.0879;-0.7391;
246.0000;0.0895;-0.7369;
246.3000;0.0912;-0.7280;
246.6000;0.0912;-0.7324;
246.9000;0.0887;-0.7302;
247.2000;0.0928;-0.7236;
247.5000;0.0855;-0.7391;
247.8000;0.0871;-0.7324;
248.1000;0.0887;-0.7258;
248.4000;0.0871;-0.7280;
248.7000;0.0928;-0.7192;
249.0000;0.0977;-0.7059;
249.3000;0.0863;-0.7391;
249.6000;0.0961;-0.7147;
249.9000;0.0944;-0.7258;
250.2000;0.0969;-0.7170;
250.5000;0.0904;-0.7258;
250.8000;0.0912;-0.7324;
251.1000;0.0985;-0.7147;
251.4000;0.0879;-0.7413;
251.7000;0.0879;-0.7369;
252.0000;0.0912;-0.7236;
252.3000;0.0904;-0.7236;
252.6000;0.0928;-0.7280;
252.9000;0.0879;-0.7324;
253.2000;0.0887;-0.7147;
253.5000;0.0895;-0.7125;
253.8000;0.0895;-0.7147;
254.1000;0.0920;-0.7103;
254.4000;0.0895;-0.7192;
254.7000;0.0912;-0.7214;
255.0000;0.0920;-0.7192;
255.3000;0.0912;-0.7236;
255.6000;0.0879;-0.7280;
255.9000;0.0895;-0.7280;
256.2000;0.0912;-0.7302;
256.5000;0.0904;-0.7369;
256.8000;0.0822;-0.7546;
257.1000;0.0879;-0.7457;
257.4000;0.0895;-0.7369;
257.7000;0.0904;-0.7369;
258.0000;0.0912;-0.7347;
258.3000;0.0879;-0.7413;
258.6000;0.0912;-0.7280;
258.9000;0.0879;-0.7391;
259.2000;0.0912;-0.7280;
259.5000;0.0887;-0.7391;
259.8000;0.0887;-0.7435;
260.1000;0.0904;-0.7369;
260.4000;0.0912;-0.7236;
260.7000;0.0879;-0.7347;
261.0000;0.0887;-0.7369;
261.3000;0.0912;-0.7369;
261.6000;0.0887;-0.7413;
261.9000;0.0863;-0.7501;
262.2000;0.0871;-0.7524;
262.5000;0.0920;-0.7391;
262.8000;0.0863;-0.7568;
263.1000;0.0879;-0.7501;
263.4000;0.0904;-0.7324;
263.7000;0.0912;-0.7302;
264.0000;0.0936;-0.7192;
264.3000;0.0944;-0.7236;
264.6000;0.0895;-0.7435;
264.9000;0.0969;-0.7280;
265.2000;0.0838;-0.7678;
265.5000;0.0879;-0.7590;
265.8000;0.0936;-0.7479;
266.1000;0.1026;-0.7280;
266.4000;0.0977;-0.7324;
266.7000;0.0887;-0.7656;
267.0000;0.0887;-0.7634;
267.3000;0.0838;-0.7723;
267.6000;0.0863;-0.7678;
267.9000;0.0879;-0.7546;
268.2000;0.0961;-0.7280;
268.5000;0.0879;-0.7501;
268.8000;0.0871;-0.7413;
269.1000;0.0895;-0.7391;
269.4000;0.0887;-0.7369;
269.7000;0.0887;-0.7391;
270.0000;0.0904;-0.7347;
270.3000;0.0895;-0.7347;
270.6000;0.0952;-0.7192;
270.9000;0.0887;-0.7391;
271.2000;0.0895;-0.7391;
271.5000;0.0952;-0.7170;
271.8000;0.0879;-0.7347;
272.1000;0.0887;-0.7435;
272.4000;0.0887;-0.7501;
272.7000;0.0912;-0.7457;
273.0000;0.0912;-0.7479;
273.3000;0.0895;-0.7501;
273.6000;0.0895;-0.7391;
273.9000;0.0920;-0.7236;
274.2000;0.0863;-0.7214;
274.5000;0.0879;-0.7147;
274.8000;0.0879;-0.7081;
275.1000;0.0895;-0.7015;
275.4000;0.0920;-0.6992;
275.7000;0.0904;-0.6992;
276.0000;0.0928;-0.6992;
276.3000;0.0863;-0.7236;
276.6000;0.0871;-0.7369;
276.9000;0.0928;-0.7302;
277.2000;0.0895;-0.7479;
277.5000;0.0944;-0.7369;
277.8000;0.0912;-0.7391;
278.1000;0.0895;-0.7391;
278.4000;0.0952;-0.7236;
278.7000;0.0895;-0.7280;
279.0000;0.0904;-0.7324;
279.3000;0.0887;-0.7413;
279.6000;0.0928;-0.7324;
279.9000;0.0871;-0.7568;
280.2000;0.0904;-0.7524;
280.5000;0.0887;-0.7546;
280.8000;0.0952;-0.7347;
281.1000;0.0830;-0.7568;
281.4000;0.0871;-0.7457;
281.7000;0.0887;-0.7347;
282.0000;0.1001;-0.7103;
282.3000;0.0887;-0.7236;
282.6000;0.0912;-0.7147;
282.9000;0.0838;-0.7391;
283.2000;0.0912;-0.7280;
283.5000;0.0912;-0.7192;
283.8000;0.0887;-0.7214;
284.1000;0.0944;-0.6992;
284.4000;0.0912;-0.7170;
284.7000;0.0928;-0.7214;
285.0000;0.0920;-0.7258;
285.3000;0.0830;-0.7435;
285.6000;0.0904;-0.7369;
285.9000;0.0936;-0.7236;
286.2000;0.0904;-0.7347;
286.5000;0.0920;-0.7302;
286.8000;0.0830;-0.7479;
287.1000;0.0928;-0.7236;
287.4000;0.0895;-0.7347;
287.7000;0.0847;-0.7413;
288.0000;0.0879;-0.7347;
288.3000;0.0895;-0.7280;
288.6000;0.0871;-0.7302;
288.9000;0.0904;-0.7170;
289.2000;0.0887;-0.7258;
289.5000;0.0887;-0.7280;
289.8000;0.0879;-0.7280;
290.1000;0.0961;-0.7103;
290.4000;0.0887;-0.7214;
290.7000;0.0879;-0.7214;
291.0000;0.0879;-0.7147;
291.3000;0.0887;-0.7103;
291.6000;0.0920;-0.7103;
291.9000;0.0895;-0.7147;
292.2000;0.0781;-0.7369;
292.5000;0.0871;-0.7236;
292.8000;0.0871;-0.7302;
293.1000;0.0944;-0.7081;
293.4000;0.0912;-0.7147;
293.7000;0.0912;-0.7103;
294.0000;0.0895;-0.7170;
294.3000;0.0920;-0.7125;
294.6000;0.0887;-0.7280;
294.9000;0.0985;-0.7147;
295.2000;0.0871;-0.7413;
295.5000;0.0904;-0.7347;
295.8000;0.0912;-0.7391;
296.1000;0.1034;-0.7037;
296.4000;0.0887;-0.7347;
296.7000;0.0961;-0.7170;
297.0000;0.0887;-0.7369;
297.3000;0.0887;-0.7347;
297.6000;0.0838;-0.7501;
297.9000;0.0895;-0.7324;
298.2000;0.0952;-0.7125;
298.5000;0.0904;-0.7280;
298.8000;0.0879;-0.7413;
299.1000;0.0895;-0.7258;
299.4000;0.0895;-0.7236;
299.7000;0.0887;-0.7324;
300.0000;0.0912;-0.7369;
300.3000;0.0952;-0.7280;
300.6000;0.0944;-0.7324;
300.9000;0.0798;-0.7701;
301.2000;0.0928;-0.7347;
301.5000;0.0887;-0.7501;
301.8000;0.0871;-0.7413;
302.1000;0.0904;-0.7391;
302.4000;0.0863;-0.7479;
302.7000;0.0912;-0.7347;
303.0000;0.0895;-0.7391;
303.3000;0.0961;-0.7258;
303.6000;0.0879;-0.7546;
303.9000;0.0928;-0.7413;
304.2000;0.0904;-0.7612;
304.5000;0.0887;-0.7678;
304.8000;0.1001;-0.7435;
305.1000;0.0887;-0.7656;
305.4000;0.0887;-0.7678;
305.7000;0.0879;-0.7701;
306.0000;0.0944;-0.7435;
306.3000;0.0912;-0.7457;
306.6000;0.0912;-0.7391;
306.9000;0.0912;-0.7391;
307.2000;0.0904;-0.7457;
307.5000;0.0912;-0.7457;
307.8000;0.0928;-0.7457;
308.1000;0.0887;-0.7501;
308.4000;0.0912;-0.7435;
308.7000;0.0871;-0.7524;
309.0000;0.0895;-0.7524;
309.3000;0.0904;-0.7435;
309.6000;0.0920;-0.7347;
309.9000;0.0912;-0.7347;
310.2000;0.0904;-0.7413;
310.5000;0.0904;-0.7324;
310.8000;0.0904;-0.7192;
311.1000;0.0904;-0.7236;
311.4000;0.0887;-0.7280;
311.7000;0.0904;-0.7236;
312.0000;0.0920;-0.7258;
312.3000;0.0887;-0.7369;
312.6000;0.0871;-0.7457;
312.9000;0.0887;-0.7501;
313.2000;0.0912;-0.7413;
313.5000;0.0904;-0.7435;
313.8000;0.0912;-0.7457;
314.1000;0.0895;-0.7590;
314.4000;0.0904;-0.7568;
314.7000;0.0887;-0.7568;
315.0000;0.0904;-0.7457;
315.3000;0.0912;-0.7479;
315.6000;0.0944;-0.7457;
315.9000;0.0871;-0.7546;
316.2000;0.0904;-0.7524;
316.5000;0.0985;-0.7280;
316.8000;0.0912;-0.7457;
317.1000;0.0952;-0.7369;
317.4000;0.0871;-0.7568;
317.7000;0.0871;-0.7612;
318.0000;0.0887;-0.7634;
318.3000;0.0928;-0.7524;
318.6000;0.0912;-0.7524;
318.9000;0.0855;-0.7612;
319.2000;0.0895;-0.7634;
319.5000;0.0879;-0.7701;
319.8000;0.0904;-0.7590;
320.1000;0.0904;-0.7590;
320.4000;0.0920;-0.7546;
320.7000;0.0985;-0.7324;
321.0000;0.0920;-0.7568;
321.3000;0.0871;-0.7612;
321.6000;0.0985;-0.7435;
321.9000;0.0871;-0.7656;
322.2000;0.0912;-0.7634;
322.5000;0.0895;-0.7678;
322.8000;0.0920;-0.7612;
323.1000;0.0887;-0.7590;
323.4000;0.0822;-0.7745;
323.7000;0.0904;-0.7590;
324.0000;0.0847;-0.7678;
324.3000;0.0733;-0.7900;
324.6000;0.0904;-0.7435;
324.9000;0.0920;-0.7369;
325.2000;0.0838;-0.7590;
325.5000;0.0871;-0.7391;
325.8000;0.0920;-0.7258;
326.1000;0.0904;-0.7280;
326.4000;0.0904;-0.7280;
326.7000;0.0895;-0.7369;
327.0000;0.0912;-0.7258;
327.3000;0.0879;-0.7302;
327.6000;0.0977;-0.7059;
327.9000;0.0895;-0.7280;
328.2000;0.0887;-0.7214;
328.5000;0.0904;-0.7236;
328.8000;0.0904;-0.7258;
329.1000;0.0863;-0.7391;
329.4000;0.0855;-0.7369;
329.7000;0.0912;-0.7192;
330.0000;0.0904;-0.7236;
330.3000;0.0895;-0.7347;
330.6000;0.0904;-0.7280;
330.9000;0.0863;-0.7347;
331.2000;0.0936;-0.7214;
331.5000;0.0887;-0.7479;
331.8000;0.0887;-0.7457;
332.1000;0.0838;-0.7612;
332.4000;0.0887;-0.7435;
332.7000;0.0879;-0.7391;
333.0000;0.0887;-0.7347;
333.3000;0.0847;-0.7435;
333.6000;0.0879;-0.7258;
333.9000;0.0895;-0.7236;
334.2000;0.0904;-0.7147;
334.5000;0.0887;-0.7192;
334.8000;0.0912;-0.7258;
335.1000;0.0822;-0.7546;
335.4000;0.0879;-0.7435;
335.7000;0.0871;-0.7457;
336.0000;0.0887;-0.7501;
336.3000;0.0863;-0.7479;
336.6000;0.0863;-0.7369;
336.9000;0.0895;-0.7324;
337.2000;0.0887;-0.7324;
337.5000;0.0928;-0.7192;
337.8000;0.0895;-0.7347;
338.1000;0.0879;-0.7413;
338.4000;0.0887;-0.7435;
338.7000;0.0920;-0.7413;
339.0000;0.0912;-0.7324;
339.3000;0.0871;-0.7457;
339.6000;0.0920;-0.7324;
339.9000;0.0928;-0.7435;
340.2000;0.0912;-0.7568;
340.5000;0.0871;-0.7612;
340.8000;0.0895;-0.7568;
341.1000;0.0912;-0.7524;
341.4000;0.0920;-0.7457;
341.7000;0.0830;-0.7656;
342.0000;0.0879;-0.7501;
342.3000;0.0912;-0.7435;
342.6000;0.0895;-0.7457;
342.9000;0.0895;-0.7457;
343.2000;0.0806;-0.7612;
343.5000;0.0838;-0.7590;
343.8000;0.0904;-0.7391;
344.1000;0.0822;-0.7612;
344.4000;0.0895;-0.7568;
344.7000;0.0871;-0.7612;
345.0000;0.0895;-0.7568;
345.3000;0.0936;-0.7435;
345.6000;0.0952;-0.7324;
345.9000;0.0887;-0.7413;
346.2000;0.0879;-0.7391;
346.5000;0.0879;-0.7479;
346.8000;0.0863;-0.7524;
347.1000;0.0871;-0.7457;
347.4000;0.0904;-0.7501;
347.7000;0.0952;-0.7435;
348.0000;0.0920;-0.7546;
348.3000;0.0887;-0.7656;
348.6000;0.0912;-0.7568;
348.9000;0.0838;-0.7701;
349.2000;0.0895;-0.7568;
349.5000;0.0879;-0.7501;
349.8000;0.0895;-0.7546;
350.1000;0.0920;-0.7435;
350.4000;0.0879;-0.7546;
350.7000;0.0912;-0.7501;
351.0000;0.0798;-0.7701;
351.3000;0.0920;-0.7435;
351.6000;0.0887;-0.7435;
351.9000;0.0887;-0.7369;
352.2000;0.0920;-0.7324;
352.5000;0.0904;-0.7324;
352.8000;0.0920;-0.7280;
353.1000;0.0879;-0.7413;
353.4000;0.0871;-0.7501;
353.7000;0.0879;-0.7457;
354.0000;0.0879;-0.7413;
354.3000;0.0879;-0.7347;
354.6000;0.0912;-0.7302;
354.9000;0.0928;-0.7347;
355.2000;0.0871;-0.7479;
355.5000;0.0895;-0.7435;
355.8000;0.0912;-0.7457;
356.1000;0.0879;-0.7568;
356.4000;0.0912;-0.7501;
356.7000;0.0895;-0.7524;
357.0000;0.0887;-0.7546;
357.3000;0.0985;-0.7214;
357.6000;0.0887;-0.7347;
357.9000;0.0912;-0.7369;
358.2000;0.0838;-0.7479;
358.5000;0.0912;-0.7391;
358.8000;0.0879;-0.7501;
359.1000;0.0887;-0.7391;
359.4000;0.0961;-0.7280;
359.7000;0.0879;-0.7413;
360.0000;0.0928;-0.7347;
360.3000;0.0904;-0.7435;
360.6000;0.0904;-0.7501;
360.9000;0.0912;-0.7524;
361.2000;0.0863;-0.7612;
361.5000;0.0895;-0.7568;
361.8000;0.0912;-0.7568;
362.1000;0.0879;-0.7524;
362.4000;0.0920;-0.7457;
362.7000;0.0920;-0.7435;
363.0000;0.0847;-0.7612;
363.3000;0.0912;-0.7479;
363.6000;0.0879;-0.7524;
363.9000;0.0895;-0.7479;
364.2000;0.0879;-0.7479;
364.5000;0.0871;-0.7457;
364.8000;0.0887;-0.7413;
365.1000;0.0904;-0.7391;
365.4000;0.0895;-0.7435;
365.7000;0.0879;-0.7457;
366.0000;0.0822;-0.7568;
366.3000;0.0887;-0.7435;
366.6000;0.0912;-0.7479;
366.9000;0.0912;-0.7501;
367.2000;0.0895;-0.7656;
367.5000;0.0904;-0.7634;
367.8000;0.0879;-0.7656;
368.1000;0.0904;-0.7745;
368.4000;0.0895;-0.7701;
368.7000;0.0887;-0.7678;
369.0000;0.0904;-0.7568;
369.3000;0.0895;-0.7568;
369.6000;0.0920;-0.7457;
369.9000;0.0904;-0.7391;
370.2000;0.0920;-0.7457;
370.5000;0.0936;-0.7369;
370.8000;0.0887;-0.7546;
371.1000;0.0928;-0.7479;
371.4000;0.0904;-0.7568;
371.7000;0.0904;-0.7546;
372.0000;0.0830;-0.7723;
372.3000;0.0920;-0.7701;
372.6000;0.0879;-0.7811;
372.9000;0.0985;-0.7568;
373.2000;0.0887;-0.7767;
373.5000;0.0879;-0.7656;
373.8000;0.0920;-0.7590;
374.1000;0.0912;-0.7634;
374.4000;0.0928;-0.7590;
374.7000;0.0920;-0.7590;
375.0000;0.0847;-0.7745;
375.3000;0.0912;-0.7656;
375.6000;0.0944;-0.7501;
375.9000;0.0904;-0.7590;
376.2000;0.0895;-0.7634;
376.5000;0.0920;-0.7612;
376.8000;0.0920;-0.7612;
377.1000;0.0879;-0.7656;
377.4000;0.0928;-0.7546;
377.7000;0.0871;-0.7612;
378.0000;0.0887;-0.7590;
378.3000;0.0887;-0.7634;
378.6000;0.0863;-0.7656;
378.9000;0.0904;-0.7546;
379.2000;0.0895;-0.7612;
379.5000;0.0879;-0.7634;
379.8000;0.0887;-0.7612;
380.1000;0.0904;-0.7612;
380.4000;0.0887;-0.7590;
380.7000;0.0904;-0.7546;
381.0000;0.0895;-0.7590;
381.3000;0.0895;-0.7568;
381.6000;0.0871;-0.7524;
381.9000;0.0879;-0.7524;
382.2000;0.0912;-0.7413;
382.5000;0.0887;-0.7546;
382.8000;0.0887;-0.7546;
383.1000;0.0887;-0.7479;
383.4000;0.0895;-0.7568;
383.7000;0.0887;-0.7524;
384.0000;0.0887;-0.7590;
384.3000;0.0879;-0.7612;
384.6000;0.0993;-0.7347;
384.9000;0.0912;-0.7546;
385.2000;0.0904;-0.7546;
385.5000;0.0879;-0.7568;
385.8000;0.0887;-0.7568;
386.1000;0.0952;-0.7435;
386.4000;0.0895;-0.7568;
386.7000;0.0895;-0.7568;
387.0000;0.0895;-0.7546;
387.3000;0.0904;-0.7546;
387.6000;0.0765;-0.7944;
387.9000;0.0895;-0.7568;
388.2000;0.0904;-0.7612;
388.5000;0.0904;-0.7501;
388.8000;0.0879;-0.7413;
389.1000;0.0904;-0.7435;
389.4000;0.0887;-0.7435;
389.7000;0.0830;-0.7546;
390.0000;0.0904;-0.7413;
390.3000;0.0887;-0.7501;
390.6000;0.0920;-0.7524;
390.9000;0.0887;-0.7568;
391.2000;0.0895;-0.7590;
391.5000;0.0879;-0.7634;
391.8000;0.0904;-0.7479;
392.1000;0.0912;-0.7479;
392.4000;0.0887;-0.7457;
392.7000;0.0879;-0.7479;
393.0000;0.0871;-0.7479;
393.3000;0.0895;-0.7435;
393.6000;0.0969;-0.7324;
393.9000;0.0895;-0.7457;
394.2000;0.0969;-0.7258;
394.5000;0.0928;-0.7369;
394.8000;0.0879;-0.7457;
395.1000;0.0887;-0.7457;
395.4000;0.0904;-0.7391;
395.7000;0.0904;-0.7435;
396.0000;0.0895;-0.7435;
396.3000;0.0904;-0.7391;
396.6000;0.0879;-0.7501;
396.9000;0.0887;-0.7546;
397.2000;0.0912;-0.7457;
397.5000;0.0912;-0.7479;
397.8000;0.0887;-0.7479;
398.1000;0.0887;-0.7457;
398.4000;0.0944;-0.7280;
398.7000;0.0879;-0.7435;
399.0000;0.0895;-0.7457;
399.3000;0.0887;-0.7457;
399.6000;0.0895;-0.7479;
399.9000;0.0920;-0.7435;
400.2000;0.0887;-0.7435;
400.5000;0.0912;-0.7435;
400.8000;0.0904;-0.7546;
401.1000;0.0895;-0.7590;
401.4000;0.0936;-0.7524;
401.7000;0.0871;-0.7612;
402.0000;0.0887;-0.7546;
402.3000;0.0887;-0.7568;
402.6000;0.0887;-0.7568;
402.9000;0.0879;-0.7656;
403.2000;0.0912;-0.7612;
403.5000;0.0928;-0.7546;
403.8000;0.0904;-0.7568;
404.1000;0.0912;-0.7479;
404.4000;0.0904;-0.7479;
404.7000;0.0928;-0.7457;
405.0000;0.0895;-0.7568;
405.3000;0.0912;-0.7501;
405.6000;0.0904;-0.7435;
405.9000;0.0904;-0.7435;
406.2000;0.0928;-0.7347;
406.5000;0.0928;-0.7435;
406.8000;0.0871;-0.7546;
407.1000;0.0822;-0.7723;
407.4000;0.0871;-0.7656;
407.7000;0.0879;-0.7634;
408.0000;0.0895;-0.7612;
408.3000;0.0904;-0.7568;
408.6000;0.0904;-0.7612;
408.9000;0.0904;-0.7612;
409.2000;0.0887;-0.7612;
409.5000;0.0887;-0.7590;
409.8000;0.0920;-0.7479;
410.1000;0.0993;-0.7258;
410.4000;0.0912;-0.7479;
410.7000;0.0895;-0.7501;
411.0000;0.0887;-0.7546;
411.3000;0.0912;-0.7568;
411.6000;0.0879;-0.7590;
411.9000;0.0961;-0.7391;
412.2000;0.0895;-0.7590;
412.5000;0.0822;-0.7745;
412.8000;0.0904;-0.7634;
413.1000;0.0871;-0.7656;
413.4000;0.0887;-0.7568;
413.7000;0.1009;-0.7302;
414.0000;0.0904;-0.7634;
414.3000;0.0879;-0.7634;
414.6000;0.0879;-0.7656;
414.9000;0.0887;-0.7678;
415.2000;0.0904;-0.7701;
415.5000;0.0912;-0.7701;
415.8000;0.0887;-0.7745;
416.1000;0.0895;-0.7656;
416.4000;0.0920;-0.7568;
416.7000;0.0936;-0.7457;
417.0000;0.0936;-0.7568;
417.3000;0.0887;-0.7568;
417.6000;0.0928;-0.7479;
417.9000;0.0879;-0.7612;
418.2000;0.0887;-0.7701;
418.5000;0.0904;-0.7723;
418.8000;0.0765;-0.8010;
419.1000;0.0879;-0.7723;
419.4000;0.0871;-0.7789;
419.7000;0.0936;-0.7612;
420.0000;0.0904;-0.7656;
420.3000;0.0855;-0.7701;
420.6000;0.0895;-0.7634;
420.9000;0.0871;-0.7678;
421.2000;0.0912;-0.7656;
421.5000;0.0871;-0.7723;
421.8000;0.0838;-0.7811;
422.1000;0.0855;-0.7723;
422.4000;0.0879;-0.7701;
422.7000;0.0912;-0.7612;
423.0000;0.0895;-0.7701;
423.3000;0.0863;-0.7678;
423.6000;0.0879;-0.7723;
423.9000;0.0928;-0.7656;
424.2000;0.0895;-0.7723;
424.5000;0.0871;-0.7701;
424.8000;0.0887;-0.7656;
425.1000;0.0895;-0.7634;
425.4000;0.0985;-0.7457;
425.7000;0.0904;-0.7568;
426.0000;0.0928;-0.7546;
426.3000;0.0904;-0.7634;
426.6000;0.0920;-0.7590;
426.9000;0.0879;-0.7656;
427.2000;0.0863;-0.7745;
427.5000;0.0904;-0.7634;
427.8000;0.0904;-0.7568;
428.1000;0.0887;-0.7546;
428.4000;0.0871;-0.7546;
428.7000;0.0928;-0.7501;
429.0000;0.0936;-0.7479;
429.3000;0.0912;-0.7546;
429.6000;0.0838;-0.7701;
429.9000;0.0904;-0.7590;
430.2000;0.0920;-0.7634;
430.5000;0.0879;-0.7656;
430.8000;0.0895;-0.7612;
431.1000;0.0887;-0.7612;
431.4000;0.0944;-0.7479;
431.7000;0.0895;-0.7568;
432.0000;0.0879;-0.7634;
432.3000;0.0879;-0.7656;
432.6000;0.0879;-0.7590;
432.9000;0.0871;-0.7590;
433.2000;0.0912;-0.7524;
433.5000;0.0904;-0.7656;
433.8000;0.0887;-0.7612;
434.1000;0.0912;-0.7479;
434.4000;0.0904;-0.7457;
434.7000;0.1083;-0.7015;
435.0000;0.0904;-0.7435;
435.3000;0.0912;-0.7501;
435.6000;0.0944;-0.7501;
435.9000;0.0887;-0.7612;
436.2000;0.0928;-0.7546;
436.5000;0.0944;-0.7546;
436.8000;0.0863;-0.7701;
437.1000;0.0895;-0.7546;
437.4000;0.0887;-0.7546;
437.7000;0.0904;-0.7568;
438.0000;0.0879;-0.7612;
438.3000;0.0879;-0.7590;
438.6000;0.0871;-0.7634;
438.9000;0.0887;-0.7612;
439.2000;0.0904;-0.7546;
439.5000;0.0847;-0.7634;
439.8000;0.0863;-0.7678;
440.1000;0.0904;-0.7590;
440.4000;0.0912;-0.7590;
440.7000;0.0895;-0.7656;
441.0000;0.0781;-0.7900;
441.3000;0.0855;-0.7678;
441.6000;0.0895;-0.7546;
441.9000;0.0895;-0.7590;
442.2000;0.0871;-0.7678;
442.5000;0.0887;-0.7723;
442.8000;0.0993;-0.7457;
443.1000;0.0887;-0.7745;
443.4000;0.0887;-0.7701;
443.7000;0.0879;-0.7767;
444.0000;0.0977;-0.7546;
444.3000;0.0912;-0.7745;
444.6000;0.0920;-0.7656;
444.9000;0.0887;-0.7656;
445.2000;0.0895;-0.7612;
445.5000;0.0912;-0.7590;
445.8000;0.0912;-0.7546;
446.1000;0.0887;-0.7612;
446.4000;0.0904;-0.7590;
446.7000;0.0952;-0.7501;
447.0000;0.0912;-0.7678;
447.3000;0.0895;-0.7678;
447.6000;0.0912;-0.7612;
447.9000;0.0961;-0.7347;
448.2000;0.0871;-0.7656;
448.5000;0.0895;-0.7723;
448.8000;0.0887;-0.7723;
449.1000;0.0920;-0.7701;
449.4000;0.0871;-0.7723;
449.7000;0.0879;-0.7701;
450.0000;0.0904;-0.7634;
450.3000;0.0895;-0.7634;
450.6000;0.0887;-0.7634;
450.9000;0.0895;-0.7590;
451.2000;0.0920;-0.7612;
451.5000;0.0912;-0.7590;
451.8000;0.0904;-0.7678;
452.1000;0.0904;-0.7745;
452.4000;0.0895;-0.7833;
452.7000;0.0879;-0.7878;
453.0000;0.0895;-0.7833;
453.3000;0.0887;-0.7811;
453.6000;0.0895;-0.7723;
453.9000;0.0887;-0.7634;
454.2000;0.0904;-0.7701;
454.5000;0.0863;-0.7701;
454.8000;0.0904;-0.7590;
455.1000;0.0887;-0.7656;
455.4000;0.0936;-0.7457;
455.7000;0.0871;-0.7678;
456.0000;0.0920;-0.7568;
456.3000;0.0879;-0.7634;
456.6000;0.0806;-0.7789;
456.9000;0.0871;-0.7546;
457.2000;0.0887;-0.7501;
457.5000;0.0895;-0.7590;
457.8000;0.0928;-0.7524;
458.1000;0.0895;-0.7568;
458.4000;0.0904;-0.7590;
458.7000;0.0944;-0.7501;
459.0000;0.0879;-0.7656;
459.3000;0.0912;-0.7568;
459.6000;0.0961;-0.7391;
459.9000;0.0969;-0.7347;
460.2000;0.0904;-0.7612;
460.5000;0.0838;-0.7767;
460.8000;0.0920;-0.7678;
461.1000;0.0871;-0.7723;
461.4000;0.0895;-0.7678;
461.7000;0.0977;-0.7457;
462.0000;0.0912;-0.7656;
462.3000;0.0838;-0.7811;
462.6000;0.0895;-0.7634;
462.9000;0.0895;-0.7634;
463.2000;0.0887;-0.7568;
463.5000;0.0830;-0.7634;
463.8000;0.0895;-0.7546;
464.1000;0.0961;-0.7413;
464.4000;0.0871;-0.7590;
464.7000;0.0887;-0.7568;
465.0000;0.0887;-0.7524;
465.3000;0.0895;-0.7435;
465.6000;0.0895;-0.7457;
465.9000;0.0904;-0.7501;
466.2000;0.0887;-0.7524;
466.5000;0.0887;-0.7634;
466.8000;0.0887;-0.7678;
467.1000;0.0895;-0.7701;
467.4000;0.0887;-0.7745;
467.7000;0.0904;-0.7701;
468.0000;0.0961;-0.7546;
468.3000;0.0863;-0.7833;
468.6000;0.0863;-0.7789;
468.9000;0.0887;-0.7745;
469.2000;0.0887;-0.7745;
469.5000;0.0887;-0.7745;
469.8000;0.0830;-0.7855;
470.1000;0.0863;-0.7701;
470.4000;0.0912;-0.7634;
470.7000;0.0871;-0.7656;
471.0000;0.0765;-0.7900;
471.3000;0.0895;-0.7546;
471.6000;0.0879;-0.7546;
471.9000;0.0887;-0.7612;
472.2000;0.0912;-0.7590;
472.5000;0.0879;-0.7678;
472.8000;0.0895;-0.7656;
473.1000;0.0895;-0.7656;
473.4000;0.0887;-0.7546;
473.7000;0.0904;-0.7435;
474.0000;0.0879;-0.7457;
474.3000;0.0879;-0.7413;
474.6000;0.0879;-0.7369;
474.9000;0.0920;-0.7192;
475.2000;0.0895;-0.7236;
475.5000;0.0895;-0.7236;
475.8000;0.0895;-0.7214;
476.1000;0.0895;-0.7324;
476.4000;0.0904;-0.7302;
476.7000;0.0895;-0.7302;
477.0000;0.0879;-0.7258;
477.3000;0.0895;-0.7280;
477.6000;0.0871;-0.7369;
477.9000;0.0879;-0.7391;
478.2000;0.0904;-0.7324;
478.5000;0.0920;-0.7170;
478.8000;0.0904;-0.7125;
479.1000;0.0912;-0.7147;
479.4000;0.0879;-0.7192;
479.7000;0.0904;-0.7236;
480.0000;0.0895;-0.7170;
480.3000;0.0871;-0.7258;
480.6000;0.0847;-0.7258;
480.9000;0.0879;-0.7214;
481.2000;0.0895;-0.7236;
481.5000;0.0847;-0.7369;
481.8000;0.0936;-0.7192;
482.1000;0.0895;-0.7280;
482.4000;0.0895;-0.7147;
482.7000;0.0879;-0.7236;
483.0000;0.0871;-0.7324;
483.3000;0.0895;-0.7302;
483.6000;0.0904;-0.7192;
483.9000;0.0879;-0.7236;
484.2000;0.0912;-0.7214;
484.5000;0.0887;-0.7280;
484.8000;0.0920;-0.7280;
485.1000;0.0912;-0.7302;
485.4000;0.0879;-0.7236;
485.7000;0.0830;-0.7435;
486.0000;0.0928;-0.7324;
486.3000;0.0871;-0.7435;
486.6000;0.0863;-0.7501;
486.9000;0.0977;-0.7170;
487.2000;0.0912;-0.7391;
487.5000;0.0879;-0.7413;
487.8000;0.0912;-0.7280;
488.1000;0.0895;-0.7347;
488.4000;0.0895;-0.7324;
488.7000;0.0871;-0.7236;
489.0000;0.0993;-0.6970;
489.3000;0.0895;-0.7347;
489.6000;0.0920;-0.7280;
489.9000;0.0912;-0.7347;
490.2000;0.0904;-0.7302;
490.5000;0.0912;-0.7302;
490.8000;0.0855;-0.7391;
491.1000;0.0895;-0.7280;
491.4000;0.0895;-0.7369;
491.7000;0.0871;-0.7479;
492.0000;0.0969;-0.7192;
492.3000;0.0904;-0.7435;
492.6000;0.0920;-0.7391;
492.9000;0.0887;-0.7501;
493.2000;0.0895;-0.7413;
493.5000;0.0871;-0.7413;
493.8000;0.0879;-0.7302;
494.1000;0.0904;-0.7280;
494.4000;0.0879;-0.7302;
494.7000;0.0879;-0.7236;
495.0000;0.0904;-0.7192;
495.3000;0.0920;-0.7103;
495.6000;0.0879;-0.7280;
495.9000;0.0814;-0.7369;
496.2000;0.0895;-0.7324;
496.5000;0.0879;-0.7369;
496.8000;0.0879;-0.7369;
497.1000;0.0904;-0.7391;
497.4000;0.0871;-0.7435;
497.7000;0.0895;-0.7347;
498.0000;0.0887;-0.7435;
498.3000;0.0895;-0.7347;
498.6000;0.0895;-0.7324;
498.9000;0.0887;-0.7347;
499.2000;0.0920;-0.7170;
499.5000;0.0904;-0.7170;
499.8000;0.0879;-0.7302;
500.1000;0.0912;-0.7192;
500.4000;0.0928;-0.7192;
500.7000;0.0887;-0.7236;
501.0000;0.0887;-0.7302;
501.3000;0.0895;-0.7302;
501.6000;0.0879;-0.7280;
501.9000;0.0928;-0.7103;
502.2000;0.0863;-0.7170;
502.5000;0.0895;-0.7125;
502.8000;0.0879;-0.7214;
503.1000;0.0855;-0.7236;
503.4000;0.0952;-0.7037;
503.7000;0.0944;-0.7081;
504.0000;0.0879;-0.7192;
504.3000;0.0912;-0.7103;
504.6000;0.0830;-0.7280;
504.9000;0.0855;-0.7170;
505.2000;0.0895;-0.7103;
505.5000;0.0887;-0.7170;
505.8000;0.0806;-0.7435;
506.1000;0.0887;-0.7258;
506.4000;0.0879;-0.7214;
506.7000;0.0830;-0.7369;
507.0000;0.0895;-0.7324;
507.3000;0.0879;-0.7302;
507.6000;0.0830;-0.7457;
507.9000;0.0863;-0.7391;
508.2000;0.0879;-0.7347;
508.5000;0.0895;-0.7369;
508.8000;0.0936;-0.7324;
509.1000;0.0773;-0.7656;
509.4000;0.0887;-0.7324;
509.7000;0.0895;-0.7302;
510.0000;0.0904;-0.7258;
510.3000;0.0895;-0.7280;
510.6000;0.0944;-0.7170;
510.9000;0.0920;-0.7324;
511.2000;0.0887;-0.7369;
511.5000;0.0887;-0.7324;
511.8000;0.0757;-0.7745;
512.1000;0.0879;-0.7457;
512.4000;0.0822;-0.7590;
512.7000;0.0822;-0.7568;
513.0000;0.0904;-0.7347;
513.3000;0.0887;-0.7413;
513.6000;0.0887;-0.7435;
513.9000;0.0936;-0.7258;
514.2000;0.0912;-0.7324;
514.5000;0.0904;-0.7457;
514.8000;0.0798;-0.7723;
515.1000;0.0871;-0.7457;
515.4000;0.0838;-0.7524;
515.7000;0.0871;-0.7524;
516.0000;0.0871;-0.7413;
516.3000;0.0928;-0.7324;
516.6000;0.0895;-0.7369;
516.9000;0.0798;-0.7546;
517.2000;0.0887;-0.7369;
517.5000;0.0887;-0.7391;
517.8000;0.0822;-0.7501;
518.1000;0.0904;-0.7280;
518.4000;0.0895;-0.7324;
518.7000;0.0887;-0.7369;
519.0000;0.0912;-0.7369;
519.3000;0.0887;-0.7391;
519.6000;0.0887;-0.7435;
519.9000;0.0887;-0.7457;
520.2000;0.0895;-0.7457;
520.5000;0.0879;-0.7546;
520.8000;0.0887;-0.7546;
521.1000;0.0879;-0.7524;
521.4000;0.0887;-0.7457;
521.7000;0.0895;-0.7435;
522.0000;0.0912;-0.7391;
522.3000;0.0871;-0.7457;
522.6000;0.0871;-0.7391;
522.9000;0.0879;-0.7347;
523.2000;0.0895;-0.7347;
523.5000;0.0879;-0.7479;
523.8000;0.0912;-0.7457;
524.1000;0.0928;-0.7369;
524.4000;0.0977;-0.7236;
524.7000;0.0895;-0.7413;
525.0000;0.0887;-0.7391;
525.3000;0.0904;-0.7324;
525.6000;0.0879;-0.7302;
525.9000;0.0944;-0.7192;
526.2000;0.0871;-0.7413;
526.5000;0.0887;-0.7324;
526.8000;0.0879;-0.7324;
527.1000;0.0855;-0.7347;
527.4000;0.0871;-0.7236;
527.7000;0.0961;-0.7015;
528.0000;0.0887;-0.7192;
528.3000;0.0879;-0.7192;
528.6000;0.0920;-0.7059;
528.9000;0.0806;-0.7324;
529.2000;0.0895;-0.7258;
529.5000;0.0879;-0.7324;
529.8000;0.0920;-0.7280;
530.1000;0.0912;-0.7391;
530.4000;0.0912;-0.7369;
530.7000;0.0838;-0.7612;
531.0000;0.0904;-0.7524;
531.3000;0.0895;-0.7524;
531.6000;0.0871;-0.7546;
531.9000;0.0904;-0.7457;
532.2000;0.0871;-0.7546;
532.5000;0.0904;-0.7457;
532.8000;0.0920;-0.7347;
533.1000;0.1034;-0.6948;
533.4000;0.0855;-0.7391;
533.7000;0.0879;-0.7347;
534.0000;0.0887;-0.7347;
534.3000;0.0887;-0.7369;
534.6000;0.0904;-0.7302;
534.9000;0.0912;-0.7280;
535.2000;0.0895;-0.7324;
535.5000;0.0895;-0.7258;
535.8000;0.0895;-0.7302;
536.1000;0.0887;-0.7324;
536.4000;0.0879;-0.7347;
536.7000;0.0952;-0.7192;
537.0000;0.0895;-0.7391;
537.3000;0.0912;-0.7302;
537.6000;0.0887;-0.7324;
537.9000;0.0895;-0.7324;
538.2000;0.0920;-0.7302;
538.5000;0.0887;-0.7369;
538.8000;0.0904;-0.7324;
539.1000;0.0904;-0.7391;
539.4000;0.0790;-0.7656;
539.7000;0.0863;-0.7435;
540.0000;0.0887;-0.7457;
540.3000;0.0887;-0.7391;
540.6000;0.0871;-0.7457;
540.9000;0.0863;-0.7546;
541.2000;0.0887;-0.7413;
541.5000;0.0822;-0.7479;
541.8000;0.0904;-0.7369;
542.1000;0.0928;-0.7369;
542.4000;0.0887;-0.7546;
542.7000;0.0887;-0.7546;
543.0000;0.0912;-0.7413;
543.3000;0.0887;-0.7369;
543.6000;0.0912;-0.7413;
543.9000;0.0879;-0.7435;
544.2000;0.0887;-0.7435;
544.5000;0.0920;-0.7324;
544.8000;0.0887;-0.7457;
545.1000;0.0871;-0.7457;
545.4000;0.0871;-0.7457;
545.7000;0.0904;-0.7391;
546.0000;0.1058;-0.6992;
546.3000;0.0912;-0.7413;
546.6000;0.0904;-0.7435;
546.9000;0.0806;-0.7634;
547.2000;0.0879;-0.7479;
547.5000;0.0904;-0.7413;
547.8000;0.0912;-0.7413;
548.1000;0.1001;-0.7170;
548.4000;0.0871;-0.7590;
548.7000;0.0895;-0.7546;
549.0000;0.0855;-0.7634;
549.3000;0.0871;-0.7612;
549.6000;0.0887;-0.7568;
549.9000;0.0887;-0.7501;
550.2000;0.0879;-0.7546;
550.5000;0.0830;-0.7612;
550.8000;0.0814;-0.7656;
551.1000;0.0879;-0.7612;
551.4000;0.0904;-0.7524;
551.7000;0.0830;-0.7634;
552.0000;0.1018;-0.7192;
552.3000;0.0895;-0.7479;
552.6000;0.0838;-0.7568;
552.9000;0.0936;-0.7347;
553.2000;0.0961;-0.7324;
553.5000;0.0969;-0.7324;
553.8000;0.0969;-0.7258;
554.1000;0.0871;-0.7457;
554.4000;0.0887;-0.7413;
554.7000;0.0895;-0.7324;
555.0000;0.0765;-0.7590;
555.3000;0.0895;-0.7236;
555.6000;0.0895;-0.7258;
555.9000;0.0887;-0.7192;
556.2000;0.0920;-0.7147;
556.5000;0.0895;-0.7302;
556.8000;0.0887;-0.7302;
557.1000;0.0871;-0.7302;
557.4000;0.0871;-0.7258;
557.7000;0.0928;-0.7103;
558.0000;0.0871;-0.7280;
558.3000;0.0895;-0.7258;
558.6000;0.0887;-0.7347;
558.9000;0.0985;-0.7103;
559.2000;0.0952;-0.7324;
559.5000;0.0904;-0.7457;
559.8000;0.0912;-0.7435;
560.1000;0.0912;-0.7501;
560.4000;0.0830;-0.7656;
560.7000;0.0895;-0.7501;
561.0000;0.0895;-0.7479;
561.3000;0.0855;-0.7546;
561.6000;0.0912;-0.7479;
561.9000;0.0887;-0.7435;
562.2000;0.0887;-0.7347;
562.5000;0.0871;-0.7391;
562.8000;0.0863;-0.7435;
563.1000;0.0879;-0.7347;
563.4000;0.0895;-0.7236;
563.7000;0.0887;-0.7236;
564.0000;0.0871;-0.7302;
564.3000;0.0895;-0.7236;
564.6000;0.0904;-0.7192;
564.9000;0.0887;-0.7192;
565.2000;0.0912;-0.7081;
565.5000;0.0847;-0.7192;
565.8000;0.0871;-0.7258;
566.1000;0.0887;-0.7214;
566.4000;0.0904;-0.7125;
566.7000;0.0887;-0.7170;
567.0000;0.0887;-0.7236;
567.3000;0.0887;-0.7258;
567.6000;0.0863;-0.7413;
567.9000;0.1009;-0.7059;
568.2000;0.0879;-0.7369;
568.5000;0.0871;-0.7369;
568.8000;0.0863;-0.7435;
569.1000;0.0887;-0.7369;
569.4000;0.0952;-0.7214;
569.7000;0.0912;-0.7347;
570.0000;0.0895;-0.7302;
570.3000;0.0847;-0.7324;
570.6000;0.0936;-0.7192;
570.9000;0.0887;-0.7324;
571.2000;0.0895;-0.7280;
571.5000;0.0912;-0.7280;
571.8000;0.0855;-0.7413;
572.1000;0.0887;-0.7302;
572.4000;0.0928;-0.7192;
572.7000;0.0863;-0.7347;
573.0000;0.0879;-0.7258;
573.3000;0.0879;-0.7214;
573.6000;0.0855;-0.7258;
573.9000;0.0863;-0.7280;
574.2000;0.0887;-0.7147;
574.5000;0.0887;-0.7147;
574.8000;0.0863;-0.7147;
575.1000;0.0895;-0.7081;
575.4000;0.0895;-0.7170;
575.7000;0.0920;-0.7081;
576.0000;0.0871;-0.7214;
576.3000;0.0887;-0.7170;
576.6000;0.0904;-0.7236;
576.9000;0.0822;-0.7391;
577.2000;0.0977;-0.7037;
577.5000;0.0895;-0.7280;
577.8000;0.0879;-0.7258;
578.1000;0.0863;-0.7236;
578.4000;0.0895;-0.7170;
578.7000;0.0887;-0.7302;
579.0000;0.0904;-0.7302;
579.3000;0.0887;-0.7435;
579.6000;0.0904;-0.7280;
579.9000;0.0895;-0.7302;
580.2000;0.0904;-0.7258;
580.5000;0.0895;-0.7302;
580.8000;0.0855;-0.7435;
581.1000;0.0871;-0.7435;
581.4000;0.0904;-0.7324;
581.7000;0.0920;-0.7258;
582.0000;0.0879;-0.7302;
582.3000;0.0887;-0.7280;
582.6000;0.0912;-0.7170;
582.9000;0.0944;-0.7081;
583.2000;0.0895;-0.7147;
583.5000;0.0920;-0.7125;
583.8000;0.0895;-0.7125;
584.1000;0.0887;-0.7103;
584.4000;0.0969;-0.6838;
584.7000;0.0912;-0.6948;
585.0000;0.0871;-0.7103;
585.3000;0.0904;-0.7192;
585.6000;0.0928;-0.7125;
585.9000;0.0847;-0.7347;
586.2000;0.0904;-0.7258;
586.5000;0.0847;-0.7435;
586.8000;0.0912;-0.7347;
587.1000;0.0879;-0.7369;
587.4000;0.0879;-0.7435;
587.7000;0.0895;-0.7347;
588.0000;0.0895;-0.7391;
588.3000;0.0863;-0.7457;
588.6000;0.0871;-0.7369;
588.9000;0.0863;-0.7435;
589.2000;0.0895;-0.7369;
589.5000;0.0912;-0.7324;
589.8000;0.0904;-0.7347;
590.1000;0.0887;-0.7302;
590.4000;0.0879;-0.7413;
590.7000;0.0879;-0.7457;
591.0000;0.0887;-0.7391;
591.3000;0.0879;-0.7369;
591.6000;0.0920;-0.7258;
591.9000;0.0904;-0.7258;
592.2000;0.0977;-0.7081;
592.5000;0.0887;-0.7125;
592.8000;0.0879;-0.7147;
593.1000;0.0887;-0.7081;
593.4000;0.0871;-0.7103;
593.7000;0.0887;-0.7147;
594.0000;0.0879;-0.7280;
594.3000;0.0773;-0.7501;
594.6000;0.0887;-0.7236;
594.9000;0.0871;-0.7258;
595.2000;0.0733;-0.7568;
595.5000;0.0887;-0.7236;
595.8000;0.0895;-0.7280;
596.1000;0.0904;-0.7324;
596.4000;0.0904;-0.7347;
596.7000;0.0863;-0.7435;
597.0000;0.0895;-0.7324;
597.3000;0.0887;-0.7369;
597.6000;0.0904;-0.7192;
597.9000;0.0830;-0.7369;
598.2000;0.0879;-0.7192;
598.5000;0.0871;-0.7192;
598.8000;0.0887;-0.7192;
599.1000;0.0863;-0.7258;
599.4000;0.0887;-0.7125;
599.7000;0.0904;-0.7103;
600.0000;0.0887;-0.7081;
600.3000;0.0871;-0.7258;
600.6000;0.0871;-0.7258;
600.9000;0.0863;-0.7324;
601.2000;0.0887;-0.7391;
601.5000;0.0871;-0.7568;
601.8000;0.0879;-0.7479;
602.1000;0.0887;-0.7634;
602.4000;0.0847;-0.7811;
602.7000;0.0863;-0.7811;
603.0000;0.0863;-0.7855;
603.3000;0.0871;-0.7855;
603.6000;0.0830;-0.8010;
603.9000;0.0765;-0.8320;
604.2000;0.0814;-0.8232;
604.5000;0.0798;-0.8320;
604.8000;0.0863;-0.8232;
605.1000;0.0855;-0.8276;
605.4000;0.0847;-0.8254;
605.7000;0.0838;-0.8364;
606.0000;0.0814;-0.8409;
606.3000;0.0806;-0.8409;
606.6000;0.0855;-0.8387;
606.9000;0.0798;-0.8564;
607.2000;0.0798;-0.8541;
607.5000;0.0806;-0.8541;
607.8000;0.0716;-0.8807;
608.1000;0.0822;-0.8541;
608.4000;0.0944;-0.8232;
608.7000;0.0798;-0.8586;
609.0000;0.0806;-0.8608;
609.3000;0.0838;-0.8431;
609.6000;0.0822;-0.8453;
609.9000;0.0838;-0.8387;
610.2000;0.0838;-0.8364;
610.5000;0.0855;-0.8364;
610.8000;0.0830;-0.8497;
611.1000;0.0806;-0.8541;
611.4000;0.0822;-0.8453;
611.7000;0.0830;-0.8475;
612.0000;0.0814;-0.8608;
612.3000;0.0806;-0.8564;
612.6000;0.0798;-0.8674;
612.9000;0.0830;-0.8564;
613.2000;0.0855;-0.8519;
613.5000;0.0830;-0.8608;
613.8000;0.0814;-0.8696;
614.1000;0.0814;-0.8608;
614.4000;0.0798;-0.8541;
614.7000;0.0790;-0.8541;
615.0000;0.0822;-0.8519;
615.3000;0.0822;-0.8475;
615.6000;0.0814;-0.8586;
615.9000;0.0806;-0.8475;
616.2000;0.0863;-0.8298;
616.5000;0.0798;-0.8497;
616.8000;0.0757;-0.8630;
617.1000;0.0798;-0.8541;
617.4000;0.0814;-0.8475;
617.7000;0.0757;-0.8564;
618.0000;0.0822;-0.8453;
618.3000;0.0773;-0.8718;
618.6000;0.0790;-0.8741;
618.9000;0.0733;-0.8851;
619.2000;0.0798;-0.8564;
619.5000;0.0765;-0.8630;
619.8000;0.0790;-0.8608;
620.1000;0.0749;-0.8652;
620.4000;0.0806;-0.8519;
620.7000;0.0798;-0.8541;
621.0000;0.0790;-0.8608;
621.3000;0.0773;-0.8674;
621.6000;0.0773;-0.8674;
621.9000;0.0708;-0.8763;
622.2000;0.0773;-0.8608;
622.5000;0.0757;-0.8564;
622.8000;0.0651;-0.8807;
623.1000;0.0790;-0.8409;
623.4000;0.0798;-0.8342;
623.7000;0.0806;-0.8276;
624.0000;0.0757;-0.8497;
624.3000;0.0798;-0.8387;
624.6000;0.0830;-0.8276;
624.9000;0.0781;-0.8364;
625.2000;0.0781;-0.8342;
625.5000;0.0651;-0.8652;
625.8000;0.0806;-0.8342;
626.1000;0.0684;-0.8608;
626.4000;0.0757;-0.8497;
626.7000;0.0781;-0.8497;
627.0000;0.0781;-0.8475;
627.3000;0.0773;-0.8519;
627.6000;0.0741;-0.8630;
627.9000;0.0749;-0.8674;
628.2000;0.0773;-0.8696;
628.5000;0.0790;-0.8586;
628.8000;0.0822;-0.8497;
629.1000;0.0773;-0.8541;
629.4000;0.0790;-0.8475;
629.7000;0.0814;-0.8475;
630.0000;0.0781;-0.8497;
630.3000;0.0724;-0.8652;
630.6000;0.0773;-0.8564;
630.9000;0.0863;-0.8298;
631.2000;0.0773;-0.8497;
631.5000;0.0765;-0.8519;
631.8000;0.0741;-0.8497;
632.1000;0.0773;-0.8276;
632.4000;0.0757;-0.8320;
632.7000;0.0765;-0.8276;
633.0000;0.0692;-0.8564;
633.3000;0.0765;-0.8431;
633.6000;0.0757;-0.8519;
633.9000;0.0749;-0.8541;
634.2000;0.0757;-0.8586;
634.5000;0.0757;-0.8608;
634.8000;0.0765;-0.8564;
635.1000;0.0773;-0.8519;
635.4000;0.0773;-0.8519;
635.7000;0.0749;-0.8541;
636.0000;0.0790;-0.8431;
636.3000;0.0790;-0.8453;
636.6000;0.0733;-0.8608;
636.9000;0.0741;-0.8674;
637.2000;0.0781;-0.8541;
637.5000;0.0781;-0.8519;
637.8000;0.0773;-0.8564;
638.1000;0.0716;-0.8696;
638.4000;0.0806;-0.8431;
638.7000;0.0798;-0.8342;
639.0000;0.0765;-0.8409;
639.3000;0.0773;-0.8431;
639.6000;0.0781;-0.8519;
639.9000;0.0781;-0.8497;
640.2000;0.0798;-0.8519;
640.5000;0.0773;-0.8608;
640.8000;0.0773;-0.8586;
641.1000;0.0773;-0.8519;
641.4000;0.0822;-0.8475;
641.7000;0.0765;-0.8541;
642.0000;0.0814;-0.8475;
642.3000;0.0790;-0.8564;
642.6000;0.0749;-0.8630;
642.9000;0.0757;-0.8652;
643.2000;0.0773;-0.8674;
643.5000;0.0838;-0.8497;
643.8000;0.0741;-0.8696;
644.1000;0.0749;-0.8630;
644.4000;0.0749;-0.8630;
644.7000;0.0741;-0.8586;
645.0000;0.0765;-0.8475;
645.3000;0.0765;-0.8431;
645.6000;0.0724;-0.8519;
645.9000;0.0806;-0.8364;
646.2000;0.0765;-0.8409;
646.5000;0.0822;-0.8254;
646.8000;0.0781;-0.8387;
647.1000;0.0806;-0.8320;
647.4000;0.0765;-0.8364;
647.7000;0.0838;-0.8210;
648.0000;0.0871;-0.8187;
648.3000;0.0773;-0.8409;
648.6000;0.0749;-0.8519;
648.9000;0.0757;-0.8453;
649.2000;0.0757;-0.8431;
649.5000;0.0733;-0.8431;
649.8000;0.0781;-0.8298;
650.1000;0.0781;-0.8210;
650.4000;0.0757;-0.8320;
650.7000;0.0790;-0.8276;
651.0000;0.0855;-0.8232;
651.3000;0.0773;-0.8431;
651.6000;0.0773;-0.8409;
651.9000;0.0765;-0.8453;
652.2000;0.0757;-0.8475;
652.5000;0.0773;-0.8453;
652.8000;0.0765;-0.8519;
653.1000;0.0781;-0.8475;
653.4000;0.0733;-0.8564;
653.7000;0.0781;-0.8497;
654.0000;0.0773;-0.8409;
654.3000;0.0749;-0.8453;
654.6000;0.0765;-0.8409;
654.9000;0.0749;-0.8431;
655.2000;0.0757;-0.8320;
655.5000;0.0806;-0.8187;
655.8000;0.0757;-0.8276;
656.1000;0.0887;-0.7944;
656.4000;0.0765;-0.8320;
656.7000;0.0749;-0.8342;
657.0000;0.0724;-0.8364;
657.3000;0.0749;-0.8254;
657.6000;0.0765;-0.8143;
657.9000;0.0757;-0.8143;
658.2000;0.0757;-0.8121;
658.5000;0.0757;-0.8187;
658.8000;0.0765;-0.8254;
659.1000;0.0749;-0.8232;
659.4000;0.0781;-0.8232;
659.7000;0.0773;-0.8143;
660.0000;0.0863;-0.7966;
660.3000;0.0757;-0.8276;
660.6000;0.0741;-0.8364;
660.9000;0.0757;-0.8342;
661.2000;0.0773;-0.8364;
661.5000;0.0741;-0.8387;
661.8000;0.0765;-0.8387;
662.1000;0.0611;-0.8674;
662.4000;0.0757;-0.8298;
662.7000;0.0757;-0.8232;
663.0000;0.0749;-0.8254;
663.3000;0.0733;-0.8342;
663.6000;0.0749;-0.8276;
663.9000;0.0847;-0.8121;
664.2000;0.0781;-0.8298;
664.5000;0.0773;-0.8387;
664.8000;0.0733;-0.8453;
665.1000;0.0765;-0.8431;
665.4000;0.0790;-0.8320;
665.7000;0.0749;-0.8387;
666.0000;0.0676;-0.8541;
666.3000;0.0765;-0.8320;
666.6000;0.0749;-0.8232;
666.9000;0.0773;-0.8232;
667.2000;0.0765;-0.8232;
667.5000;0.0733;-0.8364;
667.8000;0.0667;-0.8564;
668.1000;0.0749;-0.8210;
668.4000;0.0765;-0.8254;
668.7000;0.0814;-0.8143;
669.0000;0.0667;-0.8541;
669.3000;0.0765;-0.8387;
669.6000;0.0741;-0.8409;
669.9000;0.0822;-0.8232;
670.2000;0.0790;-0.8276;
670.5000;0.0773;-0.8276;
670.8000;0.0708;-0.8320;
671.1000;0.0773;-0.8143;
671.4000;0.0757;-0.8210;
671.7000;0.0773;-0.8320;
672.0000;0.0716;-0.8475;
672.3000;0.0757;-0.8342;
672.6000;0.0741;-0.8342;
672.9000;0.0684;-0.8431;
673.2000;0.0806;-0.8165;
673.5000;0.0773;-0.8298;
673.8000;0.0757;-0.8320;
674.1000;0.0773;-0.8387;
674.4000;0.0757;-0.8453;
674.7000;0.0741;-0.8453;
675.0000;0.0765;-0.8475;
675.3000;0.0684;-0.8718;
675.6000;0.0781;-0.8475;
675.9000;0.0741;-0.8519;
676.2000;0.0765;-0.8453;
676.5000;0.0757;-0.8453;
676.8000;0.0773;-0.8364;
677.1000;0.0814;-0.8165;
677.4000;0.0781;-0.8232;
677.7000;0.0749;-0.8298;
678.0000;0.0773;-0.8210;
678.3000;0.0830;-0.7988;
678.6000;0.0749;-0.8143;
678.9000;0.0749;-0.8121;
679.2000;0.0765;-0.8165;
679.5000;0.0627;-0.8586;
679.8000;0.0741;-0.8320;
680.1000;0.0692;-0.8342;
680.4000;0.0757;-0.8121;
680.7000;0.0733;-0.8143;
681.0000;0.0716;-0.8298;
681.3000;0.0700;-0.8387;
681.6000;0.0749;-0.8276;
681.9000;0.0757;-0.8276;
682.2000;0.0741;-0.8431;
682.5000;0.0741;-0.8497;
682.8000;0.0757;-0.8364;
683.1000;0.0765;-0.8342;
683.4000;0.0733;-0.8409;
683.7000;0.0757;-0.8387;
684.0000;0.0765;-0.8342;
684.3000;0.0765;-0.8298;
684.6000;0.0757;-0.8409;
684.9000;0.0757;-0.8453;
685.2000;0.0724;-0.8519;
685.5000;0.0781;-0.8387;
685.8000;0.0733;-0.8497;
686.1000;0.0741;-0.8519;
686.4000;0.0798;-0.8431;
686.7000;0.0790;-0.8320;
687.0000;0.0716;-0.8497;
687.3000;0.0749;-0.8475;
687.6000;0.0806;-0.8298;
687.9000;0.0643;-0.8652;
688.2000;0.0757;-0.8364;
688.5000;0.0749;-0.8342;
688.8000;0.0741;-0.8232;
689.1000;0.0757;-0.8232;
689.4000;0.0749;-0.8210;
689.7000;0.0773;-0.8165;
690.0000;0.0822;-0.8033;
690.3000;0.0733;-0.8276;
690.6000;0.0790;-0.8099;
690.9000;0.0733;-0.8232;
691.2000;0.0765;-0.8143;
691.5000;0.0757;-0.8143;
691.8000;0.0871;-0.7900;
692.1000;0.0773;-0.8077;
692.4000;0.0724;-0.8210;
692.7000;0.0757;-0.8254;
693.0000;0.0733;-0.8232;
693.3000;0.0724;-0.8320;
693.6000;0.0724;-0.8409;
693.9000;0.0733;-0.8364;
694.2000;0.0724;-0.8232;
694.5000;0.0692;-0.8276;
694.8000;0.0733;-0.8165;
695.1000;0.0724;-0.8210;
695.4000;0.0765;-0.8099;
695.7000;0.0716;-0.8210;
696.0000;0.0781;-0.8055;
696.3000;0.0757;-0.8010;
696.6000;0.0757;-0.8055;
696.9000;0.0887;-0.7811;
697.2000;0.0749;-0.8165;
697.5000;0.0733;-0.8187;
697.8000;0.0790;-0.8187;
698.1000;0.0773;-0.8232;
698.4000;0.0733;-0.8298;
698.7000;0.0741;-0.8254;
699.0000;0.0798;-0.8099;
699.3000;0.0741;-0.8232;
699.6000;0.0773;-0.8143;
699.9000;0.0708;-0.8431;
700.2000;0.0676;-0.8364;
700.5000;0.0741;-0.8187;
700.8000;0.0733;-0.8298;
701.1000;0.0757;-0.8276;
701.4000;0.0765;-0.8210;
701.7000;0.0741;-0.8342;
702.0000;0.0773;-0.8276;
702.3000;0.0602;-0.8630;
702.6000;0.0741;-0.8364;
702.9000;0.0724;-0.8431;
703.2000;0.0757;-0.8298;
703.5000;0.0765;-0.8187;
703.8000;0.0733;-0.8210;
704.1000;0.0798;-0.8055;
704.4000;0.0773;-0.8033;
704.7000;0.0733;-0.8099;
705.0000;0.0724;-0.8121;
705.3000;0.0611;-0.8342;
705.6000;0.0773;-0.8010;
705.9000;0.0757;-0.8099;
706.2000;0.0757;-0.8077;
706.5000;0.0733;-0.8254;
706.8000;0.0741;-0.8210;
707.1000;0.0887;-0.7833;
707.4000;0.0749;-0.8254;
707.7000;0.0773;-0.8232;
708.0000;0.0757;-0.8210;
708.3000;0.0757;-0.8210;
708.6000;0.0757;-0.8187;
708.9000;0.0757;-0.8055;
709.2000;0.0830;-0.7855;
709.5000;0.0676;-0.8276;
709.8000;0.0757;-0.7922;
710.1000;0.0757;-0.7966;
710.4000;0.0806;-0.7833;
710.7000;0.0765;-0.7966;
711.0000;0.0724;-0.8077;
711.3000;0.0765;-0.7966;
711.6000;0.0749;-0.8010;
711.9000;0.0798;-0.7811;
712.2000;0.0733;-0.8033;
712.5000;0.0659;-0.8254;
712.8000;0.0724;-0.8165;
713.1000;0.0765;-0.8099;
713.4000;0.0733;-0.8187;
713.7000;0.0741;-0.8165;
714.0000;0.0708;-0.8254;
714.3000;0.0749;-0.8187;
714.6000;0.0749;-0.8254;
714.9000;0.0700;-0.8475;
715.2000;0.0741;-0.8298;
715.5000;0.0814;-0.8165;
715.8000;0.0749;-0.8342;
716.1000;0.0781;-0.8276;
716.4000;0.0716;-0.8409;
716.7000;0.0741;-0.8387;
717.0000;0.0765;-0.8298;
717.3000;0.0741;-0.8320;
717.6000;0.0749;-0.8387;
717.9000;0.0651;-0.8586;
718.2000;0.0757;-0.8298;
718.5000;0.0757;-0.8187;
718.8000;0.0765;-0.8099;
719.1000;0.0781;-0.8099;
719.4000;0.0741;-0.8298;
719.7000;0.0749;-0.8254;
720.0000;0.0741;-0.8298;
720.3000;0.0733;-0.8298;
720.6000;0.0741;-0.8276;
720.9000;0.0781;-0.8077;
721.2000;0.0749;-0.8165;
721.5000;0.0757;-0.8121;
721.8000;0.0716;-0.8232;
722.1000;0.0765;-0.8121;
722.4000;0.0700;-0.8165;
722.7000;0.0757;-0.7944;
723.0000;0.0708;-0.8033;
723.3000;0.0773;-0.7944;
723.6000;0.0757;-0.7944;
723.9000;0.0749;-0.8033;
724.2000;0.0741;-0.8055;
724.5000;0.0684;-0.8232;
724.8000;0.0822;-0.7833;
725.1000;0.0700;-0.8165;
725.4000;0.0741;-0.8121;
725.7000;0.0798;-0.7944;
726.0000;0.0757;-0.8055;
726.3000;0.0830;-0.7900;
726.6000;0.0765;-0.8099;
726.9000;0.0798;-0.8077;
727.2000;0.0741;-0.8254;
727.5000;0.0749;-0.8298;
727.8000;0.0716;-0.8387;
728.1000;0.0749;-0.8320;
728.4000;0.0716;-0.8409;
728.7000;0.0798;-0.8232;
729.0000;0.0708;-0.8320;
729.3000;0.0733;-0.8276;
729.6000;0.0757;-0.8254;
729.9000;0.0830;-0.8276;
730.2000;0.0847;-0.8165;
730.5000;0.0757;-0.8387;
730.8000;0.0741;-0.8409;
731.1000;0.0765;-0.8342;
731.4000;0.0733;-0.8342;
731.7000;0.0757;-0.8320;
732.0000;0.0765;-0.8342;
732.3000;0.0757;-0.8276;
732.6000;0.0765;-0.8254;
732.9000;0.0741;-0.8342;
733.2000;0.0733;-0.8342;
733.5000;0.0814;-0.8210;
733.8000;0.0790;-0.8187;
734.1000;0.0749;-0.8232;
734.4000;0.0733;-0.8298;
734.7000;0.0773;-0.8187;
735.0000;0.0749;-0.8254;
735.3000;0.0741;-0.8342;
735.6000;0.0716;-0.8320;
735.9000;0.0733;-0.8342;
736.2000;0.0781;-0.8276;
736.5000;0.0749;-0.8364;
736.8000;0.0724;-0.8409;
737.1000;0.0741;-0.8409;
737.4000;0.0749;-0.8387;
737.7000;0.0741;-0.8409;
738.0000;0.0741;-0.8387;
738.3000;0.0773;-0.8364;
738.6000;0.0651;-0.8718;
738.9000;0.0814;-0.8342;
739.2000;0.0749;-0.8564;
739.5000;0.0749;-0.8608;
739.8000;0.0741;-0.8586;
740.1000;0.0773;-0.8586;
740.4000;0.0741;-0.8630;
740.7000;0.0724;-0.8586;
741.0000;0.0733;-0.8497;
741.3000;0.0749;-0.8364;
741.6000;0.0733;-0.8298;
741.9000;0.0822;-0.8077;
742.2000;0.0749;-0.8298;
742.5000;0.0741;-0.8320;
742.8000;0.0716;-0.8387;
743.1000;0.0757;-0.8342;
743.4000;0.0741;-0.8431;
743.7000;0.0741;-0.8387;
744.0000;0.0757;-0.8364;
744.3000;0.0733;-0.8364;
744.6000;0.0765;-0.8298;
744.9000;0.0749;-0.8387;
745.2000;0.0757;-0.8475;
745.5000;0.0741;-0.8453;
745.8000;0.0757;-0.8431;
746.1000;0.0781;-0.8387;
746.4000;0.0749;-0.8431;
746.7000;0.0863;-0.8187;
747.0000;0.0724;-0.8409;
747.3000;0.0651;-0.8630;
747.6000;0.0790;-0.8254;
747.9000;0.0749;-0.8387;
748.2000;0.0765;-0.8364;
748.5000;0.0814;-0.8165;
748.8000;0.0765;-0.8364;
749.1000;0.0757;-0.8364;
749.4000;0.0724;-0.8364;
749.7000;0.0741;-0.8364;
750.0000;0.0790;-0.8298;
750.3000;0.0749;-0.8409;
750.6000;0.0773;-0.8254;
750.9000;0.0733;-0.8409;
751.2000;0.0741;-0.8364;
751.5000;0.0741;-0.8320;
751.8000;0.0757;-0.8298;
752.1000;0.0676;-0.8453;
752.4000;0.0749;-0.8210;
752.7000;0.0765;-0.8143;
753.0000;0.0733;-0.8187;
753.3000;0.0741;-0.8033;
753.6000;0.0724;-0.8010;
753.9000;0.0757;-0.8010;
754.2000;0.0749;-0.8099;
754.5000;0.0757;-0.8121;
754.8000;0.0611;-0.8453;
755.1000;0.0724;-0.8232;
755.4000;0.0757;-0.8187;
755.7000;0.0684;-0.8364;
756.0000;0.0733;-0.8232;
756.3000;0.0708;-0.8387;
756.6000;0.0749;-0.8254;
756.9000;0.0700;-0.8387;
757.2000;0.0765;-0.8165;
757.5000;0.0765;-0.8143;
757.8000;0.0602;-0.8497;
758.1000;0.0741;-0.8187;
758.4000;0.0790;-0.7966;
758.7000;0.0733;-0.8210;
759.0000;0.0814;-0.8143;
759.3000;0.0749;-0.8342;
759.6000;0.0798;-0.8210;
759.9000;0.0659;-0.8564;
760.2000;0.0749;-0.8342;
760.5000;0.0781;-0.8232;
760.8000;0.0781;-0.8210;
761.1000;0.0733;-0.8409;
761.4000;0.0733;-0.8342;
761.7000;0.0757;-0.8210;
762.0000;0.0765;-0.8143;
762.3000;0.0700;-0.8143;
762.6000;0.0847;-0.7789;
762.9000;0.0733;-0.8055;
763.2000;0.0741;-0.8099;
763.5000;0.0716;-0.8232;
763.8000;0.0757;-0.8187;
764.1000;0.0692;-0.8409;
764.4000;0.0741;-0.8254;
764.7000;0.0741;-0.8210;
765.0000;0.0741;-0.8099;
765.3000;0.0773;-0.8099;
765.6000;0.0733;-0.8187;
765.9000;0.0749;-0.8165;
766.2000;0.0733;-0.8232;
766.5000;0.0773;-0.8210;
766.8000;0.0716;-0.8320;
767.1000;0.0741;-0.8276;
767.4000;0.0733;-0.8254;
767.7000;0.0733;-0.8232;
768.0000;0.0749;-0.8232;
768.3000;0.0749;-0.8276;
768.6000;0.0749;-0.8232;
768.9000;0.0716;-0.8210;
769.2000;0.0749;-0.8077;
769.5000;0.0749;-0.8077;
769.8000;0.0724;-0.8165;
770.1000;0.0619;-0.8409;
770.4000;0.0667;-0.8342;
770.7000;0.0765;-0.8210;
771.0000;0.0724;-0.8232;
771.3000;0.0757;-0.8210;
771.6000;0.0749;-0.8276;
771.9000;0.0619;-0.8630;
772.2000;0.0741;-0.8364;
772.5000;0.0733;-0.8254;
772.8000;0.0741;-0.8254;
773.1000;0.0741;-0.8210;
773.4000;0.0749;-0.8143;
773.7000;0.0733;-0.8232;
774.0000;0.0733;-0.8232;
774.3000;0.0741;-0.8187;
774.6000;0.0749;-0.8143;
774.9000;0.0781;-0.8121;
775.2000;0.0733;-0.8187;
775.5000;0.0749;-0.8143;
775.8000;0.0749;-0.8143;
776.1000;0.0602;-0.8497;
776.4000;0.0733;-0.8187;
776.7000;0.0724;-0.8254;
777.0000;0.0749;-0.8210;
777.3000;0.0749;-0.8143;
777.6000;0.0733;-0.8033;
777.9000;0.0749;-0.8010;
778.2000;0.0724;-0.8099;
778.5000;0.0733;-0.8099;
778.8000;0.0700;-0.8254;
779.1000;0.0749;-0.8099;
779.4000;0.0765;-0.8033;
779.7000;0.0773;-0.8033;
780.0000;0.0741;-0.8165;
780.3000;0.0741;-0.8099;
780.6000;0.0724;-0.8232;
780.9000;0.0741;-0.8143;
781.2000;0.0741;-0.8187;
781.5000;0.0741;-0.8143;
781.8000;0.0741;-0.8033;
782.1000;0.0708;-0.8143;
782.4000;0.0741;-0.8055;
782.7000;0.0716;-0.8210;
783.0000;0.0781;-0.8165;
783.3000;0.0749;-0.8143;
783.6000;0.0627;-0.8409;
783.9000;0.0733;-0.8143;
784.2000;0.0741;-0.8033;
784.5000;0.0733;-0.8099;
784.8000;0.0765;-0.8165;
785.1000;0.0741;-0.8187;
785.4000;0.0741;-0.8187;
785.7000;0.0733;-0.8187;
786.0000;0.0741;-0.8099;
786.3000;0.0741;-0.8121;
786.6000;0.0659;-0.8210;
786.9000;0.0724;-0.8077;
787.2000;0.0765;-0.7988;
787.5000;0.0692;-0.8165;
787.8000;0.0733;-0.8099;
788.1000;0.0724;-0.8143;
788.4000;0.0733;-0.8187;
788.7000;0.0765;-0.8187;
789.0000;0.0692;-0.8431;
789.3000;0.0741;-0.8276;
789.6000;0.0781;-0.8143;
789.9000;0.0733;-0.8210;
790.2000;0.0741;-0.8187;
790.5000;0.0749;-0.8099;
790.8000;0.0749;-0.8187;
791.1000;0.0757;-0.8187;
791.4000;0.0733;-0.8298;
791.7000;0.0749;-0.8143;
792.0000;0.0741;-0.8187;
792.3000;0.0741;-0.8232;
792.6000;0.0773;-0.8276;
792.9000;0.0733;-0.8431;
793.2000;0.0724;-0.8364;
793.5000;0.0733;-0.8342;
793.8000;0.0773;-0.8276;
794.1000;0.0724;-0.8320;
794.4000;0.0741;-0.8276;
794.7000;0.0765;-0.8187;
795.0000;0.0741;-0.8121;
795.3000;0.0724;-0.8143;
795.6000;0.0724;-0.8232;
795.9000;0.0757;-0.8232;
796.2000;0.0757;-0.8254;
796.5000;0.0757;-0.8210;
796.8000;0.0684;-0.8387;
797.1000;0.0765;-0.8165;
797.4000;0.0749;-0.8232;
797.7000;0.0741;-0.8364;
798.0000;0.0733;-0.8387;
798.3000;0.0741;-0.8276;
798.6000;0.0733;-0.8210;
798.9000;0.0733;-0.8276;
799.2000;0.0708;-0.8409;
799.5000;0.0741;-0.8387;
799.8000;0.0611;-0.8785;
800.1000;0.0749;-0.8342;
800.4000;0.0749;-0.8364;
800.7000;0.0692;-0.8608;
801.0000;0.0798;-0.8320;
801.3000;0.0749;-0.8431;
801.6000;0.0765;-0.8431;
801.9000;0.0741;-0.8453;
802.2000;0.0708;-0.8497;
802.5000;0.0749;-0.8431;
802.8000;0.0724;-0.8364;
803.1000;0.0733;-0.8298;
803.4000;0.0749;-0.8276;
803.7000;0.0741;-0.8254;
804.0000;0.0733;-0.8210;
804.3000;0.0765;-0.8232;
804.6000;0.0765;-0.8298;
804.9000;0.0806;-0.8187;
805.2000;0.0733;-0.8320;
805.5000;0.0741;-0.8320;
805.8000;0.0757;-0.8364;
806.1000;0.0733;-0.8364;
806.4000;0.0822;-0.8099;
806.7000;0.0724;-0.8342;
807.0000;0.0741;-0.8232;
807.3000;0.0773;-0.8121;
807.6000;0.0757;-0.8165;
807.9000;0.0724;-0.8232;
808.2000;0.0741;-0.8143;
808.5000;0.0716;-0.8165;
808.8000;0.0741;-0.8143;
809.1000;0.0741;-0.8121;
809.4000;0.0741;-0.8121;
809.7000;0.0724;-0.8187;
810.0000;0.0733;-0.8121;
810.3000;0.0765;-0.8055;
810.6000;0.0724;-0.8143;
810.9000;0.0847;-0.7833;
811.2000;0.0765;-0.8055;
811.5000;0.0765;-0.8187;
811.8000;0.0749;-0.8210;
812.1000;0.0692;-0.8342;
812.4000;0.0724;-0.8254;
812.7000;0.0765;-0.8121;
813.0000;0.0757;-0.8165;
813.3000;0.0724;-0.8187;
813.6000;0.0716;-0.8187;
813.9000;0.0741;-0.8121;
814.2000;0.0741;-0.8121;
814.5000;0.0741;-0.8210;
814.8000;0.0765;-0.8143;
815.1000;0.0757;-0.8121;
815.4000;0.0733;-0.8055;
815.7000;0.0749;-0.8055;
816.0000;0.0749;-0.8033;
816.3000;0.0822;-0.7922;
816.6000;0.0741;-0.8210;
816.9000;0.0733;-0.8276;
817.2000;0.0724;-0.8254;
817.5000;0.0733;-0.8165;
817.8000;0.0749;-0.8121;
818.1000;0.0733;-0.8165;
818.4000;0.0765;-0.8055;
818.7000;0.0708;-0.8254;
819.0000;0.0749;-0.8232;
819.3000;0.0733;-0.8254;
819.6000;0.0757;-0.8187;
819.9000;0.0733;-0.8232;
820.2000;0.0716;-0.8254;
820.5000;0.0724;-0.8210;
820.8000;0.0733;-0.8187;
821.1000;0.0716;-0.8165;
821.4000;0.0724;-0.8165;
821.7000;0.0749;-0.8121;
822.0000;0.0733;-0.8254;
822.3000;0.0724;-0.8298;
822.6000;0.0733;-0.8187;
822.9000;0.0741;-0.8210;
823.2000;0.0651;-0.8431;
823.5000;0.0708;-0.8254;
823.8000;0.0733;-0.8210;
824.1000;0.0781;-0.8121;
824.4000;0.0716;-0.8298;
824.7000;0.0716;-0.8254;
825.0000;0.0749;-0.8232;
825.3000;0.0741;-0.8276;
825.6000;0.0830;-0.8099;
825.9000;0.0749;-0.8364;
826.2000;0.0741;-0.8409;
826.5000;0.0724;-0.8320;
826.8000;0.0798;-0.8121;
827.1000;0.0724;-0.8320;
827.4000;0.0749;-0.8276;
827.7000;0.0757;-0.8232;
828.0000;0.0749;-0.8254;
828.3000;0.0724;-0.8276;
828.6000;0.0733;-0.8342;
828.9000;0.0741;-0.8342;
829.2000;0.0741;-0.8364;
829.5000;0.0757;-0.8320;
829.8000;0.0765;-0.8276;
830.1000;0.0733;-0.8342;
830.4000;0.0757;-0.8298;
830.7000;0.0741;-0.8187;
831.0000;0.0602;-0.8475;
831.3000;0.0749;-0.8187;
831.6000;0.0724;-0.8276;
831.9000;0.0822;-0.8121;
832.2000;0.0733;-0.8232;
832.5000;0.0749;-0.8210;
832.8000;0.0619;-0.8475;
833.1000;0.0847;-0.8010;
833.4000;0.0749;-0.8165;
833.7000;0.0578;-0.8475;
834.0000;0.0667;-0.8254;
834.3000;0.0757;-0.8077;
834.6000;0.0741;-0.8121;
834.9000;0.0741;-0.8121;
835.2000;0.0757;-0.8121;
835.5000;0.0733;-0.8210;
835.8000;0.0700;-0.8364;
836.1000;0.0814;-0.8055;
836.4000;0.0733;-0.8187;
836.7000;0.0733;-0.8099;
837.0000;0.0781;-0.8010;
837.3000;0.0733;-0.8121;
837.6000;0.0749;-0.8121;
837.9000;0.0749;-0.8121;
838.2000;0.0733;-0.8077;
838.5000;0.0749;-0.8077;
838.8000;0.0757;-0.8165;
839.1000;0.0757;-0.8143;
839.4000;0.0733;-0.8143;
839.7000;0.0733;-0.8143;
840.0000;0.0716;-0.8187;
840.3000;0.0757;-0.8143;
840.6000;0.0749;-0.8143;
840.9000;0.0741;-0.8187;
841.2000;0.0741;-0.8232;
841.5000;0.0830;-0.8077;
841.8000;0.0765;-0.8232;
842.1000;0.0716;-0.8342;
842.4000;0.0741;-0.8298;
842.7000;0.0716;-0.8254;
843.0000;0.0724;-0.8210;
843.3000;0.0733;-0.8276;
843.6000;0.0749;-0.8232;
843.9000;0.0757;-0.8165;
844.2000;0.0749;-0.8121;
844.5000;0.0724;-0.8210;
844.8000;0.0708;-0.8210;
845.1000;0.0733;-0.8187;
845.4000;0.0757;-0.8232;
845.7000;0.0749;-0.8254;
846.0000;0.0708;-0.8387;
846.3000;0.0733;-0.8320;
846.6000;0.0733;-0.8276;
846.9000;0.0806;-0.8033;
847.2000;0.0749;-0.8121;
847.5000;0.0724;-0.8165;
847.8000;0.0716;-0.8254;
848.1000;0.0635;-0.8409;
848.4000;0.0733;-0.8276;
848.7000;0.0749;-0.8320;
849.0000;0.0741;-0.8210;
849.3000;0.0749;-0.8254;
849.6000;0.0773;-0.8187;
849.9000;0.0757;-0.8187;
850.2000;0.0741;-0.8165;
850.5000;0.0749;-0.8165;
850.8000;0.0741;-0.8077;
851.1000;0.0733;-0.7966;
851.4000;0.0733;-0.7944;
851.7000;0.0757;-0.7966;
852.0000;0.0741;-0.8033;
852.3000;0.0724;-0.8055;
852.6000;0.0676;-0.8254;
852.9000;0.0773;-0.8010;
853.2000;0.0765;-0.8033;
853.5000;0.0749;-0.8099;
853.8000;0.0724;-0.8165;
854.1000;0.0692;-0.8254;
854.4000;0.0749;-0.8187;
854.7000;0.0733;-0.8077;
855.0000;0.0757;-0.7966;
855.3000;0.0716;-0.8033;
855.6000;0.0676;-0.8165;
855.9000;0.0741;-0.8010;
856.2000;0.0692;-0.8165;
856.5000;0.0733;-0.8121;
856.8000;0.0741;-0.8121;
857.1000;0.0594;-0.8497;
857.4000;0.0733;-0.8099;
857.7000;0.0724;-0.8165;
858.0000;0.0733;-0.8121;
858.3000;0.0741;-0.8121;
858.6000;0.0733;-0.8232;
858.9000;0.0724;-0.8254;
859.2000;0.0733;-0.8254;
859.5000;0.0716;-0.8232;
859.8000;0.0733;-0.8210;
860.1000;0.0733;-0.8210;
860.4000;0.0741;-0.8165;
860.7000;0.0733;-0.8143;
861.0000;0.0741;-0.8187;
861.3000;0.0749;-0.8143;
861.6000;0.0716;-0.8210;
861.9000;0.0733;-0.8165;
862.2000;0.0741;-0.8165;
862.5000;0.0741;-0.8143;
862.8000;0.0741;-0.8210;
863.1000;0.0773;-0.8165;
863.4000;0.0659;-0.8431;
863.7000;0.0724;-0.8254;
864.0000;0.0741;-0.8143;
864.3000;0.0749;-0.8143;
864.6000;0.0749;-0.8210;
864.9000;0.0757;-0.8276;
865.2000;0.0749;-0.8276;
865.5000;0.0724;-0.8387;
865.8000;0.0733;-0.8320;
866.1000;0.0741;-0.8298;
866.4000;0.0741;-0.8254;
866.7000;0.0733;-0.8298;
867.0000;0.0733;-0.8298;
867.3000;0.0749;-0.8232;
867.6000;0.0749;-0.8254;
867.9000;0.0749;-0.8232;
868.2000;0.0749;-0.8187;
868.5000;0.0741;-0.8165;
868.8000;0.0765;-0.8121;
869.1000;0.0773;-0.8143;
869.4000;0.0757;-0.8121;
869.7000;0.0741;-0.8121;
870.0000;0.0749;-0.8099;
870.3000;0.0741;-0.8210;
870.6000;0.0692;-0.8320;
870.9000;0.0716;-0.8320;
871.2000;0.0619;-0.8586;
871.5000;0.0741;-0.8232;
871.8000;0.0733;-0.8187;
872.1000;0.0684;-0.8276;
872.4000;0.0676;-0.8232;
872.7000;0.0716;-0.8210;
873.0000;0.0716;-0.8298;
873.3000;0.0733;-0.8276;
873.6000;0.0757;-0.8276;
873.9000;0.0749;-0.8232;
874.2000;0.0741;-0.8232;
874.5000;0.0651;-0.8364;
874.8000;0.0741;-0.8099;
875.1000;0.0757;-0.8033;
875.4000;0.0611;-0.8364;
875.7000;0.0733;-0.8121;
876.0000;0.0741;-0.8165;
876.3000;0.0724;-0.8298;
876.6000;0.0594;-0.8586;
876.9000;0.0700;-0.8320;
877.2000;0.0716;-0.8320;
877.5000;0.0700;-0.8320;
877.8000;0.0708;-0.8342;
878.1000;0.0667;-0.8409;
878.4000;0.0733;-0.8298;
878.7000;0.0749;-0.8254;
879.0000;0.0724;-0.8298;
879.3000;0.0741;-0.8342;
879.6000;0.0749;-0.8298;
879.9000;0.0733;-0.8409;
880.2000;0.0741;-0.8497;
880.5000;0.0781;-0.8298;
880.8000;0.0733;-0.8409;
881.1000;0.0708;-0.8453;
881.4000;0.0733;-0.8431;
881.7000;0.0643;-0.8652;
882.0000;0.0806;-0.8232;
882.3000;0.0724;-0.8387;
882.6000;0.0741;-0.8409;
882.9000;0.0749;-0.8254;
883.2000;0.0733;-0.8387;
883.5000;0.0716;-0.8453;
883.8000;0.0773;-0.8254;
884.1000;0.0741;-0.8320;
884.4000;0.0724;-0.8276;
884.7000;0.0724;-0.8387;
885.0000;0.0749;-0.8232;
885.3000;0.0749;-0.8187;
885.6000;0.0724;-0.8276;
885.9000;0.0773;-0.8254;
886.2000;0.0749;-0.8387;
886.5000;0.0806;-0.8210;
886.8000;0.0741;-0.8276;
887.1000;0.0724;-0.8254;
887.4000;0.0757;-0.8165;
887.7000;0.0724;-0.8187;
888.0000;0.0749;-0.8210;
888.3000;0.0822;-0.8010;
888.6000;0.0724;-0.8276;
888.9000;0.0749;-0.8187;
889.2000;0.0749;-0.8187;
889.5000;0.0765;-0.8210;
889.8000;0.0733;-0.8431;
890.1000;0.0781;-0.8387;
890.4000;0.0765;-0.8453;
890.7000;0.0765;-0.8475;
891.0000;0.0757;-0.8409;
891.3000;0.0741;-0.8564;
891.6000;0.0708;-0.8475;
891.9000;0.0733;-0.8342;
892.2000;0.0708;-0.8387;
892.5000;0.0749;-0.8254;
892.8000;0.0741;-0.8232;
893.1000;0.0765;-0.8232;
893.4000;0.0741;-0.8320;
893.7000;0.0798;-0.8232;
894.0000;0.0838;-0.8165;
894.3000;0.0733;-0.8364;
894.6000;0.0684;-0.8409;
894.9000;0.0749;-0.8187;
895.2000;0.0741;-0.8187;
895.5000;0.0716;-0.8342;
895.8000;0.0733;-0.8364;
896.1000;0.0667;-0.8630;
896.4000;0.0741;-0.8320;
896.7000;0.0749;-0.8298;
897.0000;0.0733;-0.8431;
897.3000;0.0733;-0.8387;
897.6000;0.0724;-0.8409;
897.9000;0.0733;-0.8387;
898.2000;0.0724;-0.8342;
898.5000;0.0733;-0.8276;
898.8000;0.0741;-0.8232;
899.1000;0.0708;-0.8320;
899.4000;0.0757;-0.8187;
899.7000;0.0741;-0.8342;
900.0000;0.0724;-0.8342;
900.3000;0.0724;-0.8320;
900.6000;0.0724;-0.8320;
900.9000;0.0733;-0.8409;
901.2000;0.0741;-0.8519;
901.5000;0.0757;-0.8564;
901.8000;0.0733;-0.8541;
902.1000;0.0651;-0.8652;
902.4000;0.0724;-0.8431;
902.7000;0.0765;-0.8409;
903.0000;0.0716;-0.8541;
903.3000;0.0741;-0.8453;
903.6000;0.0790;-0.8342;
903.9000;0.0724;-0.8497;
904.2000;0.0651;-0.8564;
904.5000;0.0733;-0.8409;
904.8000;0.0741;-0.8298;
905.1000;0.0733;-0.8387;
905.4000;0.0741;-0.8364;
905.7000;0.0716;-0.8431;
906.0000;0.0700;-0.8364;
906.3000;0.0757;-0.8165;
906.6000;0.0724;-0.8232;
906.9000;0.0790;-0.8033;
907.2000;0.0708;-0.8232;
907.5000;0.0741;-0.8121;
907.8000;0.0741;-0.8121;
908.1000;0.0773;-0.8121;
908.4000;0.0757;-0.8187;
908.7000;0.0757;-0.8298;
909.0000;0.0733;-0.8364;
909.3000;0.0757;-0.8276;
909.6000;0.0757;-0.8210;
909.9000;0.0733;-0.8254;
910.2000;0.0733;-0.8342;
910.5000;0.0822;-0.8121;
910.8000;0.0733;-0.8320;
911.1000;0.0733;-0.8387;
911.4000;0.0635;-0.8586;
911.7000;0.0651;-0.8564;
912.0000;0.0733;-0.8364;
912.3000;0.0741;-0.8364;
912.6000;0.0749;-0.8276;
912.9000;0.0733;-0.8387;
913.2000;0.0716;-0.8387;
913.5000;0.0741;-0.8342;
913.8000;0.0724;-0.8364;
914.1000;0.0733;-0.8320;
914.4000;0.0749;-0.8254;
914.7000;0.0765;-0.8187;
915.0000;0.0765;-0.8187;
915.3000;0.0765;-0.8165;
915.6000;0.0757;-0.8165;
915.9000;0.0733;-0.8165;
916.2000;0.0741;-0.8099;
916.5000;0.0773;-0.8055;
916.8000;0.0611;-0.8453;
917.1000;0.0952;-0.7745;
917.4000;0.0749;-0.8320;
917.7000;0.0749;-0.8232;
918.0000;0.0667;-0.8364;
918.3000;0.0733;-0.8210;
918.6000;0.0741;-0.8232;
918.9000;0.0757;-0.8254;
919.2000;0.0741;-0.8276;
919.5000;0.0757;-0.8276;
919.8000;0.0757;-0.8187;
920.1000;0.0749;-0.8143;
920.4000;0.0773;-0.8077;
920.7000;0.0749;-0.8187;
921.0000;0.0676;-0.8320;
921.3000;0.0733;-0.8187;
921.6000;0.0757;-0.8099;
921.9000;0.0724;-0.8187;
922.2000;0.0716;-0.8232;
922.5000;0.0724;-0.8232;
922.8000;0.0765;-0.8165;
923.1000;0.0733;-0.8232;
923.4000;0.0798;-0.8143;
923.7000;0.0733;-0.8298;
924.0000;0.0765;-0.8232;
924.3000;0.0757;-0.8232;
924.6000;0.0749;-0.8276;
924.9000;0.0708;-0.8364;
925.2000;0.0741;-0.8364;
925.5000;0.0676;-0.8541;
925.8000;0.0749;-0.8320;
926.1000;0.0749;-0.8276;
926.4000;0.0773;-0.8320;
926.7000;0.0733;-0.8387;
927.0000;0.0749;-0.8320;
927.3000;0.0749;-0.8364;
927.6000;0.0716;-0.8364;
927.9000;0.0733;-0.8342;
928.2000;0.0733;-0.8320;
928.5000;0.0749;-0.8320;
928.8000;0.0733;-0.8342;
929.1000;0.0847;-0.8055;
929.4000;0.0757;-0.8254;
929.7000;0.0733;-0.8232;
930.0000;0.0676;-0.8320;
930.3000;0.0724;-0.8254;
930.6000;0.0741;-0.8187;
930.9000;0.0684;-0.8320;
931.2000;0.0733;-0.8187;
931.5000;0.0765;-0.8121;
931.8000;0.0741;-0.8298;
932.1000;0.0757;-0.8342;
932.4000;0.0684;-0.8541;
932.7000;0.0716;-0.8453;
933.0000;0.0741;-0.8298;
933.3000;0.0741;-0.8298;
933.6000;0.0757;-0.8320;
933.9000;0.0716;-0.8409;
934.2000;0.0733;-0.8342;
934.5000;0.0806;-0.8099;
934.8000;0.0798;-0.8077;
935.1000;0.0741;-0.8232;
935.4000;0.0741;-0.8254;
935.7000;0.0765;-0.8210;
936.0000;0.0724;-0.8232;
936.3000;0.0733;-0.8232;
936.6000;0.0741;-0.8187;
936.9000;0.0741;-0.8187;
937.2000;0.0773;-0.8099;
937.5000;0.0733;-0.8121;
937.8000;0.0724;-0.8121;
938.1000;0.0724;-0.8143;
938.4000;0.0741;-0.8187;
938.7000;0.0798;-0.8121;
939.0000;0.0724;-0.8276;
939.3000;0.0724;-0.8187;
939.6000;0.0757;-0.8143;
939.9000;0.0781;-0.8055;
940.2000;0.0741;-0.8077;
940.5000;0.0741;-0.7988;
940.8000;0.0806;-0.7988;
941.1000;0.0765;-0.8121;
941.4000;0.0651;-0.8342;
941.7000;0.0741;-0.8055;
942.0000;0.0749;-0.8055;
942.3000;0.0659;-0.8320;
942.6000;0.0716;-0.8187;
942.9000;0.0741;-0.8187;
943.2000;0.0765;-0.8165;
943.5000;0.0765;-0.8165;
943.8000;0.0814;-0.8099;
944.1000;0.0724;-0.8320;
944.4000;0.0627;-0.8608;
944.7000;0.0733;-0.8342;
945.0000;0.0733;-0.8232;
945.3000;0.0716;-0.8342;
945.6000;0.0692;-0.8453;
945.9000;0.0757;-0.8298;
946.2000;0.0749;-0.8298;
946.5000;0.0635;-0.8564;
946.8000;0.0708;-0.8409;
947.1000;0.0822;-0.8143;
947.4000;0.0863;-0.8165;
947.7000;0.0676;-0.8630;
948.0000;0.0700;-0.8541;
948.3000;0.0741;-0.8453;
948.6000;0.0692;-0.8475;
948.9000;0.0773;-0.8232;
949.2000;0.0733;-0.8232;
949.5000;0.0667;-0.8453;
949.8000;0.0741;-0.8187;
950.1000;0.0773;-0.8055;
950.4000;0.0733;-0.8165;
950.7000;0.0733;-0.8232;
951.0000;0.0724;-0.8165;
951.3000;0.0741;-0.8187;
951.6000;0.0749;-0.8121;
951.9000;0.0798;-0.7966;
952.2000;0.0749;-0.8077;
952.5000;0.0749;-0.8187;
952.8000;0.0659;-0.8409;
953.1000;0.0741;-0.8210;
953.4000;0.0765;-0.8143;
953.7000;0.0741;-0.8232;
954.0000;0.0708;-0.8254;
954.3000;0.0716;-0.8232;
954.6000;0.0733;-0.8187;
954.9000;0.0733;-0.8077;
955.2000;0.0765;-0.8010;
955.5000;0.0822;-0.7789;
955.8000;0.0749;-0.7944;
956.1000;0.0708;-0.8055;
956.4000;0.0716;-0.8033;
956.7000;0.0708;-0.8143;
957.0000;0.0733;-0.8055;
957.3000;0.0724;-0.8033;
957.6000;0.0716;-0.8077;
957.9000;0.0733;-0.8099;
958.2000;0.0716;-0.8143;
958.5000;0.0716;-0.8099;
958.8000;0.0708;-0.8143;
959.1000;0.0741;-0.8077;
959.4000;0.0749;-0.8033;
959.7000;0.0741;-0.8033;
960.0000;0.0741;-0.8055;
960.3000;0.0741;-0.8055;
960.6000;0.0757;-0.8010;
960.9000;0.0757;-0.8077;
961.2000;0.0741;-0.8121;
961.5000;0.0741;-0.8121;
961.8000;0.0724;-0.8187;
962.1000;0.0798;-0.8165;
962.4000;0.0733;-0.8276;
962.7000;0.0749;-0.8254;
963.0000;0.0733;-0.8254;
963.3000;0.0733;-0.8210;
963.6000;0.0765;-0.8077;
963.9000;0.0716;-0.8187;
964.2000;0.0724;-0.8121;
964.5000;0.0749;-0.8121;
964.8000;0.0757;-0.8121;
965.1000;0.0619;-0.8497;
965.4000;0.0635;-0.8497;
965.7000;0.0806;-0.8033;
966.0000;0.0733;-0.8320;
966.3000;0.0757;-0.8276;
966.6000;0.0716;-0.8298;
966.9000;0.0765;-0.8165;
967.2000;0.0741;-0.8165;
967.5000;0.0659;-0.8387;
967.8000;0.0708;-0.8276;
968.1000;0.0733;-0.8320;
968.4000;0.0790;-0.8121;
968.7000;0.0724;-0.8210;
969.0000;0.0733;-0.8165;
969.3000;0.0749;-0.8121;
969.6000;0.0741;-0.8121;
969.9000;0.0684;-0.8276;
970.2000;0.0749;-0.8165;
970.5000;0.0757;-0.8099;
970.8000;0.0773;-0.8165;
971.1000;0.0667;-0.8409;
971.4000;0.0838;-0.7922;
971.7000;0.0700;-0.8210;
972.0000;0.0749;-0.8099;
972.3000;0.0733;-0.8210;
972.6000;0.0724;-0.8254;
972.9000;0.0741;-0.8143;
973.2000;0.0781;-0.7988;
973.5000;0.0708;-0.8143;
973.8000;0.0757;-0.8010;
974.1000;0.0765;-0.7922;
974.4000;0.0724;-0.7966;
974.7000;0.0741;-0.7922;
975.0000;0.0765;-0.7944;
975.3000;0.0749;-0.8099;
975.6000;0.0716;-0.8254;
975.9000;0.0741;-0.8143;
976.2000;0.0773;-0.8055;
976.5000;0.0749;-0.8010;
976.8000;0.0765;-0.7988;
977.1000;0.0684;-0.8232;
977.4000;0.0733;-0.8187;
977.7000;0.0700;-0.8187;
978.0000;0.0700;-0.8165;
978.3000;0.0708;-0.8187;
978.6000;0.0749;-0.8121;
978.9000;0.0733;-0.8232;
979.2000;0.0733;-0.8276;
979.5000;0.0724;-0.8276;
979.8000;0.0765;-0.8210;
980.1000;0.0741;-0.8232;
980.4000;0.0741;-0.8254;
980.7000;0.0724;-0.8298;
981.0000;0.0749;-0.8320;
981.3000;0.0700;-0.8519;
981.6000;0.0749;-0.8320;
981.9000;0.0733;-0.8364;
982.2000;0.0733;-0.8254;
982.5000;0.0716;-0.8232;
982.8000;0.0741;-0.8143;
983.1000;0.0749;-0.8143;
983.4000;0.0749;-0.8099;
983.7000;0.0781;-0.8077;
984.0000;0.0749;-0.8121;
984.3000;0.0741;-0.8254;
984.6000;0.0708;-0.8320;
984.9000;0.0733;-0.8254;
985.2000;0.0757;-0.8165;
985.5000;0.0749;-0.8254;
985.8000;0.0749;-0.8409;
986.1000;0.0733;-0.8320;
986.4000;0.0724;-0.8342;
986.7000;0.0741;-0.8320;
987.0000;0.0757;-0.8320;
987.3000;0.0676;-0.8630;
987.6000;0.0757;-0.8387;
987.9000;0.0733;-0.8431;
988.2000;0.0741;-0.8387;
988.5000;0.0741;-0.8320;
988.8000;0.0781;-0.8232;
989.1000;0.0741;-0.8298;
989.4000;0.0838;-0.8099;
989.7000;0.0733;-0.8320;
990.0000;0.0749;-0.8298;
990.3000;0.0733;-0.8453;
990.6000;0.0708;-0.8541;
990.9000;0.0676;-0.8630;
991.2000;0.0716;-0.8431;
991.5000;0.0749;-0.8387;
991.8000;0.0724;-0.8409;
992.1000;0.0700;-0.8364;
992.4000;0.0781;-0.8187;
992.7000;0.0724;-0.8364;
993.0000;0.0757;-0.8342;
993.3000;0.0708;-0.8431;
993.6000;0.0733;-0.8431;
993.9000;0.0733;-0.8364;
994.2000;0.0741;-0.8387;
994.5000;0.0684;-0.8497;
994.8000;0.0741;-0.8409;
995.1000;0.0716;-0.8497;
995.4000;0.0741;-0.8409;
995.7000;0.0814;-0.8232;
996.0000;0.0724;-0.8497;
996.3000;0.0733;-0.8387;
996.6000;0.0733;-0.8387;
996.9000;0.0741;-0.8364;
997.2000;0.0741;-0.8409;
997.5000;0.0716;-0.8320;
997.8000;0.0733;-0.8387;
998.1000;0.0757;-0.8342;
998.4000;0.0733;-0.8519;
998.7000;0.0724;-0.8519;
999.0000;0.0724;-0.8475;
999.3000;0.0741;-0.8453;
999.6000;0.0700;-0.8519;
999.9000;0.0749;-0.8387;
1000.2000;0.0749;-0.8475;
1000.5000;0.0733;-0.8519;
1000.8000;0.0781;-0.8431;
1001.1000;0.0741;-0.8497;
1001.4000;0.0741;-0.8475;
1001.7000;0.0741;-0.8342;
1002.0000;0.0716;-0.8320;
1002.3000;0.0773;-0.8187;
1002.6000;0.0724;-0.8232;
1002.9000;0.0749;-0.8210;
1003.2000;0.0749;-0.8232;
1003.5000;0.0749;-0.8232;
1003.8000;0.0724;-0.8298;
1004.1000;0.0724;-0.8320;
1004.4000;0.0733;-0.8276;
1004.7000;0.0773;-0.8232;
1005.0000;0.0716;-0.8409;
1005.3000;0.0741;-0.8431;
1005.6000;0.0757;-0.8431;
1005.9000;0.0741;-0.8519;
1006.2000;0.0724;-0.8475;
1006.5000;0.0749;-0.8453;
1006.8000;0.0749;-0.8409;
1007.1000;0.0741;-0.8475;
1007.4000;0.0716;-0.8453;
1007.7000;0.0708;-0.8475;
1008.0000;0.0724;-0.8541;
1008.3000;0.0749;-0.8453;
1008.6000;0.0716;-0.8519;
1008.9000;0.0757;-0.8519;
1009.2000;0.0724;-0.8541;
1009.5000;0.0741;-0.8475;
1009.8000;0.0741;-0.8453;
1010.1000;0.0659;-0.8630;
1010.4000;0.0733;-0.8431;
1010.7000;0.0814;-0.8254;
1011.0000;0.0757;-0.8453;
1011.3000;0.0684;-0.8652;
1011.6000;0.0749;-0.8541;
1011.9000;0.0773;-0.8475;
1012.2000;0.0733;-0.8541;
1012.5000;0.0733;-0.8497;
1012.8000;0.0684;-0.8586;
1013.1000;0.0749;-0.8453;
1013.4000;0.0741;-0.8364;
1013.7000;0.0741;-0.8342;
1014.0000;0.0716;-0.8364;
1014.3000;0.0757;-0.8298;
1014.6000;0.0757;-0.8276;
1014.9000;0.0749;-0.8210;
1015.2000;0.0749;-0.8210;
1015.5000;0.0757;-0.8099;
1015.8000;0.0733;-0.8055;
1016.1000;0.0741;-0.8077;
1016.4000;0.0749;-0.8077;
1016.7000;0.0749;-0.8055;
1017.0000;0.0724;-0.8121;
1017.3000;0.0724;-0.8077;
1017.6000;0.0692;-0.8187;
1017.9000;0.0749;-0.8033;
1018.2000;0.0724;-0.8010;
1018.5000;0.0724;-0.8121;
1018.8000;0.0716;-0.8232;
1019.1000;0.0724;-0.8276;
1019.4000;0.0708;-0.8342;
1019.7000;0.0724;-0.8320;
1020.0000;0.0741;-0.8298;
1020.3000;0.0741;-0.8276;
1020.6000;0.0749;-0.8320;
1020.9000;0.0757;-0.8298;
1021.2000;0.0733;-0.8409;
1021.5000;0.0757;-0.8298;
1021.8000;0.0724;-0.8387;
1022.1000;0.0757;-0.8387;
1022.4000;0.0741;-0.8431;
1022.7000;0.0733;-0.8475;
1023.0000;0.0741;-0.8453;
1023.3000;0.0749;-0.8387;
1023.6000;0.0708;-0.8387;
1023.9000;0.0733;-0.8320;
1024.2000;0.0741;-0.8342;
1024.5000;0.0724;-0.8431;
1024.8000;0.0757;-0.8453;
1025.1000;0.0806;-0.8320;
1025.4000;0.0733;-0.8364;
1025.7000;0.0741;-0.8320;
1026.0000;0.0708;-0.8387;
1026.3000;0.0733;-0.8320;
1026.6000;0.0724;-0.8409;
1026.9000;0.0724;-0.8320;
1027.2000;0.0757;-0.8187;
1027.5000;0.0757;-0.8187;
1027.8000;0.0733;-0.8276;
1028.1000;0.0733;-0.8320;
1028.4000;0.0708;-0.8453;
1028.7000;0.0749;-0.8387;
1029.0000;0.0741;-0.8364;
1029.3000;0.0724;-0.8364;
1029.6000;0.0757;-0.8431;
1029.9000;0.0749;-0.8431;
1030.2000;0.0741;-0.8387;
1030.5000;0.0773;-0.8298;
1030.8000;0.0749;-0.8254;
1031.1000;0.0765;-0.8276;
1031.4000;0.0749;-0.8387;
1031.7000;0.0692;-0.8475;
1032.0000;0.0757;-0.8342;
1032.3000;0.0765;-0.8254;
1032.6000;0.0741;-0.8210;
1032.9000;0.0716;-0.8298;
1033.2000;0.0667;-0.8541;
1033.5000;0.0724;-0.8342;
1033.8000;0.0635;-0.8586;
1034.1000;0.0667;-0.8475;
1034.4000;0.0733;-0.8254;
1034.7000;0.0749;-0.8276;
1035.0000;0.0749;-0.8364;
1035.3000;0.0749;-0.8320;
1035.6000;0.0749;-0.8320;
1035.9000;0.0724;-0.8342;
1036.2000;0.0602;-0.8718;
1036.5000;0.0749;-0.8409;
1036.8000;0.0733;-0.8497;
1037.1000;0.0733;-0.8519;
1037.4000;0.0749;-0.8541;
1037.7000;0.0741;-0.8541;
1038.0000;0.0749;-0.8475;
1038.3000;0.0757;-0.8497;
1038.6000;0.0741;-0.8475;
1038.9000;0.0741;-0.8519;
1039.2000;0.0724;-0.8586;
1039.5000;0.0773;-0.8497;
1039.8000;0.0741;-0.8608;
1040.1000;0.0757;-0.8541;
1040.4000;0.0724;-0.8608;
1040.7000;0.0773;-0.8453;
1041.0000;0.0741;-0.8541;
1041.3000;0.0684;-0.8696;
1041.6000;0.0757;-0.8564;
1041.9000;0.0684;-0.8652;
1042.2000;0.0741;-0.8586;
1042.5000;0.0749;-0.8608;
1042.8000;0.0724;-0.8564;
1043.1000;0.0708;-0.8586;
1043.4000;0.0741;-0.8541;
1043.7000;0.0757;-0.8431;
1044.0000;0.0741;-0.8431;
1044.3000;0.0733;-0.8431;
1044.6000;0.0741;-0.8387;
1044.9000;0.0741;-0.8387;
1045.2000;0.0749;-0.8409;
1045.5000;0.0863;-0.8210;
1045.8000;0.0724;-0.8586;
1046.1000;0.0822;-0.8409;
1046.4000;0.0733;-0.8541;
1046.7000;0.0798;-0.8298;
1047.0000;0.0724;-0.8298;
1047.3000;0.0765;-0.8210;
1047.6000;0.0749;-0.8254;
1047.9000;0.0733;-0.8298;
1048.2000;0.0733;-0.8298;
1048.5000;0.0847;-0.7922;
1048.8000;0.0741;-0.8187;
1049.1000;0.0594;-0.8475;
1049.4000;0.0781;-0.8187;
1049.7000;0.0741;-0.8254;
1050.0000;0.0586;-0.8608;
1050.3000;0.0773;-0.8143;
1050.6000;0.0733;-0.8187;
1050.9000;0.0765;-0.8232;
1051.2000;0.0716;-0.8475;
1051.5000;0.0667;-0.8475;
1051.8000;0.0757;-0.8320;
1052.1000;0.0708;-0.8431;
1052.4000;0.0733;-0.8387;
1052.7000;0.0749;-0.8342;
1053.0000;0.0773;-0.8165;
1053.3000;0.0724;-0.8276;
1053.6000;0.0757;-0.8187;
1053.9000;0.0765;-0.8210;
1054.2000;0.0773;-0.8187;
1054.5000;0.0619;-0.8564;
1054.8000;0.0733;-0.8320;
1055.1000;0.0749;-0.8276;
1055.4000;0.0724;-0.8254;
1055.7000;0.0781;-0.8121;
1056.0000;0.0586;-0.8674;
1056.3000;0.0749;-0.8298;
1056.6000;0.0741;-0.8276;
1056.9000;0.0749;-0.8320;
1057.2000;0.0724;-0.8431;
1057.5000;0.0757;-0.8387;
1057.8000;0.0798;-0.8254;
1058.1000;0.0716;-0.8387;
1058.4000;0.0733;-0.8320;
1058.7000;0.0724;-0.8298;
1059.0000;0.0708;-0.8298;
1059.3000;0.0741;-0.8254;
1059.6000;0.0773;-0.8121;
1059.9000;0.0741;-0.8232;
1060.2000;0.0749;-0.8210;
1060.5000;0.0773;-0.8121;
1060.8000;0.0724;-0.8210;
1061.1000;0.0700;-0.8276;
1061.4000;0.0871;-0.7833;
1061.7000;0.0733;-0.8143;
1062.0000;0.0741;-0.8099;
1062.3000;0.0708;-0.8187;
1062.6000;0.0733;-0.8165;
1062.9000;0.0724;-0.8210;
1063.2000;0.0749;-0.8210;
1063.5000;0.0676;-0.8364;
1063.8000;0.0790;-0.8187;
1064.1000;0.0765;-0.8254;
1064.4000;0.0790;-0.8210;
1064.7000;0.0724;-0.8342;
1065.0000;0.0708;-0.8364;
1065.3000;0.0741;-0.8364;
1065.6000;0.0733;-0.8298;
1065.9000;0.0741;-0.8210;
1066.2000;0.0716;-0.8387;
1066.5000;0.0733;-0.8342;
1066.8000;0.0676;-0.8431;
1067.1000;0.0773;-0.8165;
1067.4000;0.0741;-0.8276;
1067.7000;0.0741;-0.8364;
1068.0000;0.0749;-0.8364;
1068.3000;0.0733;-0.8453;
1068.6000;0.0716;-0.8519;
1068.9000;0.0716;-0.8475;
1069.2000;0.0749;-0.8387;
1069.5000;0.0749;-0.8409;
1069.8000;0.0757;-0.8497;
1070.1000;0.0692;-0.8586;
1070.4000;0.0733;-0.8519;
1070.7000;0.0733;-0.8564;
1071.0000;0.0692;-0.8541;
1071.3000;0.0724;-0.8409;
1071.6000;0.0733;-0.8320;
1071.9000;0.0716;-0.8320;
1072.2000;0.0733;-0.8254;
1072.5000;0.0716;-0.8276;
1072.8000;0.0716;-0.8254;
1073.1000;0.0741;-0.8254;
1073.4000;0.0724;-0.8254;
1073.7000;0.0700;-0.8210;
1074.0000;0.0724;-0.8187;
1074.3000;0.0741;-0.8210;
1074.6000;0.0708;-0.8254;
1074.9000;0.0757;-0.8232;
1075.2000;0.0741;-0.8232;
1075.5000;0.0790;-0.8121;
1075.8000;0.0733;-0.8187;
1076.1000;0.0700;-0.8210;
1076.4000;0.0733;-0.8099;
1076.7000;0.0724;-0.8187;
1077.0000;0.0757;-0.8187;
1077.3000;0.0716;-0.8254;
1077.6000;0.0708;-0.8320;
1077.9000;0.0749;-0.8187;
1078.2000;0.0741;-0.8210;
1078.5000;0.0667;-0.8342;
1078.8000;0.0716;-0.8232;
1079.1000;0.0741;-0.8210;
1079.4000;0.0741;-0.8121;
1079.7000;0.0822;-0.7966;
1080.0000;0.0765;-0.8121;
1080.3000;0.0741;-0.8055;
1080.6000;0.0806;-0.7900;
1080.9000;0.0733;-0.8055;
1081.2000;0.0798;-0.7988;
1081.5000;0.0749;-0.8077;
1081.8000;0.0749;-0.8099;
1082.1000;0.0765;-0.8143;
1082.4000;0.0716;-0.8254;
1082.7000;0.0741;-0.8276;
1083.0000;0.0733;-0.8298;
1083.3000;0.0773;-0.8210;
1083.6000;0.0749;-0.8276;
1083.9000;0.0708;-0.8320;
1084.2000;0.0733;-0.8254;
1084.5000;0.0790;-0.8121;
1084.8000;0.0724;-0.8276;
1085.1000;0.0757;-0.8165;
1085.4000;0.0667;-0.8475;
1085.7000;0.0741;-0.8210;
1086.0000;0.0749;-0.8165;
1086.3000;0.0741;-0.8165;
1086.6000;0.0741;-0.8143;
1086.9000;0.0741;-0.8165;
1087.2000;0.0724;-0.8143;
1087.5000;0.0733;-0.8143;
1087.8000;0.0749;-0.8232;
1088.1000;0.0741;-0.8210;
1088.4000;0.0733;-0.8254;
1088.7000;0.0708;-0.8210;
1089.0000;0.0724;-0.8165;
1089.3000;0.0749;-0.8099;
1089.6000;0.0741;-0.8187;
1089.9000;0.0724;-0.8232;
1090.2000;0.0676;-0.8298;
1090.5000;0.0765;-0.8121;
1090.8000;0.0733;-0.8254;
1091.1000;0.0773;-0.8099;
1091.4000;0.0724;-0.8254;
1091.7000;0.0749;-0.8187;
1092.0000;0.0708;-0.8409;
1092.3000;0.0733;-0.8320;
1092.6000;0.0708;-0.8320;
1092.9000;0.0741;-0.8298;
1093.2000;0.0765;-0.8276;
1093.5000;0.0773;-0.8210;
1093.8000;0.0724;-0.8254;
1094.1000;0.0741;-0.8232;
1094.4000;0.0708;-0.8298;
1094.7000;0.0757;-0.8143;
1095.0000;0.0749;-0.8143;
1095.3000;0.0757;-0.8143;
1095.6000;0.0724;-0.8187;
1095.9000;0.0765;-0.8143;
1096.2000;0.0708;-0.8254;
1096.5000;0.0765;-0.8099;
1096.8000;0.0757;-0.8121;
1097.1000;0.0708;-0.8342;
1097.4000;0.0741;-0.8364;
1097.7000;0.0708;-0.8497;
1098.0000;0.0724;-0.8431;
1098.3000;0.0749;-0.8431;
1098.6000;0.0773;-0.8298;
1098.9000;0.0733;-0.8409;
1099.2000;0.0733;-0.8387;
1099.5000;0.0830;-0.8187;
1099.8000;0.0676;-0.8387;
1100.1000;0.0684;-0.8364;
1100.4000;0.0708;-0.8276;
1100.7000;0.0838;-0.7878;
1101.0000;0.0773;-0.8033;
1101.3000;0.0757;-0.8187;
1101.6000;0.0741;-0.8320;
1101.9000;0.0749;-0.8320;
1102.2000;0.0757;-0.8342;
1102.5000;0.0765;-0.8298;
1102.8000;0.0749;-0.8320;
1103.1000;0.0806;-0.8232;
1103.4000;0.0724;-0.8364;
1103.7000;0.0749;-0.8320;
1104.0000;0.0724;-0.8364;
1104.3000;0.0667;-0.8541;
1104.6000;0.0708;-0.8541;
1104.9000;0.0724;-0.8431;
1105.2000;0.0733;-0.8342;
1105.5000;0.0749;-0.8254;
1105.8000;0.0765;-0.8187;
1106.1000;0.0798;-0.8165;
1106.4000;0.0757;-0.8298;
1106.7000;0.0741;-0.8320;
1107.0000;0.0635;-0.8652;
1107.3000;0.0765;-0.8254;
1107.6000;0.0757;-0.8276;
1107.9000;0.0749;-0.8320;
1108.2000;0.0741;-0.8320;
1108.5000;0.0733;-0.8320;
1108.8000;0.0749;-0.8364;
1109.1000;0.0773;-0.8298;
1109.4000;0.0724;-0.8409;
1109.7000;0.0749;-0.8364;
1110.0000;0.0724;-0.8431;
1110.3000;0.0724;-0.8387;
1110.6000;0.0708;-0.8475;
1110.9000;0.0733;-0.8409;
1111.2000;0.0749;-0.8298;
1111.5000;0.0708;-0.8364;
1111.8000;0.0887;-0.7988;
1112.1000;0.0724;-0.8364;
1112.4000;0.0757;-0.8254;
1112.7000;0.0724;-0.8320;
1113.0000;0.0741;-0.8254;
1113.3000;0.0733;-0.8232;
1113.6000;0.0773;-0.8121;
1113.9000;0.0733;-0.8298;
1114.2000;0.0708;-0.8364;
1114.5000;0.0733;-0.8320;
1114.8000;0.0741;-0.8320;
1115.1000;0.0741;-0.8342;
1115.4000;0.0724;-0.8431;
1115.7000;0.0749;-0.8320;
1116.0000;0.0716;-0.8342;
1116.3000;0.0733;-0.8364;
1116.6000;0.0716;-0.8409;
1116.9000;0.0724;-0.8387;
1117.2000;0.0708;-0.8276;
1117.5000;0.0716;-0.8232;
1117.8000;0.0749;-0.8210;
1118.1000;0.0749;-0.8187;
1118.4000;0.0708;-0.8298;
1118.7000;0.0733;-0.8276;
1119.0000;0.0716;-0.8364;
1119.3000;0.0822;-0.8187;
1119.6000;0.0757;-0.8387;
1119.9000;0.0749;-0.8298;
1120.2000;0.0741;-0.8276;
1120.5000;0.0684;-0.8364;
1120.8000;0.0757;-0.8232;
1121.1000;0.0659;-0.8431;
1121.4000;0.0757;-0.8187;
1121.7000;0.0757;-0.8254;
1122.0000;0.0781;-0.8276;
1122.3000;0.0684;-0.8541;
1122.6000;0.0741;-0.8409;
1122.9000;0.0773;-0.8320;
1123.2000;0.0724;-0.8320;
1123.5000;0.0790;-0.8187;
1123.8000;0.0724;-0.8342;
1124.1000;0.0733;-0.8364;
1124.4000;0.0741;-0.8387;
1124.7000;0.0741;-0.8409;
1125.0000;0.0733;-0.8431;
1125.3000;0.0741;-0.8475;
1125.6000;0.0749;-0.8409;
1125.9000;0.0757;-0.8364;
1126.2000;0.0757;-0.8298;
1126.5000;0.0692;-0.8453;
1126.8000;0.0741;-0.8387;
1127.1000;0.0724;-0.8342;
1127.4000;0.0741;-0.8320;
1127.7000;0.0741;-0.8342;
1128.0000;0.0692;-0.8453;
1128.3000;0.0733;-0.8387;
1128.6000;0.0798;-0.8298;
1128.9000;0.0724;-0.8409;
1129.2000;0.0724;-0.8342;
1129.5000;0.0716;-0.8387;
1129.8000;0.0749;-0.8298;
1130.1000;0.0684;-0.8519;
1130.4000;0.0733;-0.8342;
1130.7000;0.0724;-0.8276;
1131.0000;0.0724;-0.8254;
1131.3000;0.0676;-0.8364;
1131.6000;0.0741;-0.8187;
1131.9000;0.0822;-0.8033;
1132.2000;0.0749;-0.8276;
1132.5000;0.0741;-0.8254;
1132.8000;0.0765;-0.8210;
1133.1000;0.0716;-0.8320;
1133.4000;0.0741;-0.8453;
1133.7000;0.0724;-0.8409;
1134.0000;0.0741;-0.8320;
1134.3000;0.0741;-0.8254;
1134.6000;0.0741;-0.8342;
1134.9000;0.0749;-0.8232;
1135.2000;0.0724;-0.8298;
1135.5000;0.0749;-0.8276;
1135.8000;0.0708;-0.8298;
1136.1000;0.0708;-0.8276;
1136.4000;0.0757;-0.8210;
1136.7000;0.0741;-0.8232;
1137.0000;0.0765;-0.8143;
1137.3000;0.0716;-0.8210;
1137.6000;0.0741;-0.8143;
1137.9000;0.0741;-0.8099;
1138.2000;0.0749;-0.8187;
1138.5000;0.0741;-0.8187;
1138.8000;0.0724;-0.8187;
1139.1000;0.0741;-0.8254;
1139.4000;0.0733;-0.8320;
1139.7000;0.0765;-0.8254;
1140.0000;0.0757;-0.8320;
1140.3000;0.0749;-0.8409;
1140.6000;0.0749;-0.8541;
1140.9000;0.0733;-0.8608;
1141.2000;0.0838;-0.8298;
1141.5000;0.0749;-0.8497;
1141.8000;0.0765;-0.8453;
1142.1000;0.0700;-0.8630;
1142.4000;0.0733;-0.8586;
1142.7000;0.0822;-0.8298;
1143.0000;0.0822;-0.8342;
1143.3000;0.0716;-0.8564;
1143.6000;0.0741;-0.8497;
1143.9000;0.0684;-0.8564;
1144.2000;0.0781;-0.8431;
1144.5000;0.0830;-0.8364;
1144.8000;0.0741;-0.8519;
1145.1000;0.0830;-0.8298;
1145.4000;0.0749;-0.8387;
1145.7000;0.0781;-0.8298;
1146.0000;0.0667;-0.8608;
1146.3000;0.0676;-0.8630;
1146.6000;0.0806;-0.8276;
1146.9000;0.0716;-0.8541;
1147.2000;0.0716;-0.8519;
1147.5000;0.0757;-0.8387;
1147.8000;0.0733;-0.8320;
1148.1000;0.0716;-0.8298;
1148.4000;0.0724;-0.8298;
1148.7000;0.0708;-0.8431;
1149.0000;0.0765;-0.8320;
1149.3000;0.0749;-0.8298;
1149.6000;0.0724;-0.8298;
1149.9000;0.0773;-0.8232;
1150.2000;0.0798;-0.8165;
1150.5000;0.0765;-0.8210;
1150.8000;0.0781;-0.8121;
1151.1000;0.0659;-0.8387;
1151.4000;0.0757;-0.8121;
1151.7000;0.0773;-0.8143;
1152.0000;0.0765;-0.8165;
1152.3000;0.0716;-0.8254;
1152.6000;0.0733;-0.8210;
1152.9000;0.0733;-0.8187;
1153.2000;0.0741;-0.8232;
1153.5000;0.0741;-0.8276;
1153.8000;0.0724;-0.8254;
1154.1000;0.0741;-0.8254;
1154.4000;0.0733;-0.8298;
1154.7000;0.0708;-0.8387;
1155.0000;0.0724;-0.8320;
1155.3000;0.0741;-0.8276;
1155.6000;0.0651;-0.8431;
1155.9000;0.0749;-0.8055;
1156.2000;0.0741;-0.8210;
1156.5000;0.0627;-0.8497;
1156.8000;0.0806;-0.8143;
1157.1000;0.0733;-0.8298;
1157.4000;0.0749;-0.8298;
1157.7000;0.0716;-0.8364;
1158.0000;0.0716;-0.8276;
1158.3000;0.0700;-0.8342;
1158.6000;0.0724;-0.8254;
1158.9000;0.0741;-0.8254;
1159.2000;0.0765;-0.8165;
1159.5000;0.0733;-0.8187;
1159.8000;0.0659;-0.8409;
1160.1000;0.0749;-0.8276;
1160.4000;0.0741;-0.8254;
1160.7000;0.0716;-0.8232;
1161.0000;0.0724;-0.8210;
1161.3000;0.0724;-0.8165;
1161.6000;0.0724;-0.8165;
1161.9000;0.0749;-0.8210;
1162.2000;0.0708;-0.8298;
1162.5000;0.0741;-0.8254;
1162.8000;0.0733;-0.8298;
1163.1000;0.0684;-0.8342;
1163.4000;0.0741;-0.8276;
1163.7000;0.0741;-0.8276;
1164.0000;0.0765;-0.8143;
1164.3000;0.0741;-0.8254;
1164.6000;0.0741;-0.8232;
1164.9000;0.0749;-0.8187;
1165.2000;0.0741;-0.8121;
1165.5000;0.0773;-0.8077;
1165.8000;0.0757;-0.8099;
1166.1000;0.0724;-0.8165;
1166.4000;0.0724;-0.8165;
1166.7000;0.0724;-0.8210;
1167.0000;0.0749;-0.8187;
1167.3000;0.0749;-0.8298;
1167.6000;0.0733;-0.8342;
1167.9000;0.0765;-0.8232;
1168.2000;0.0733;-0.8364;
1168.5000;0.0724;-0.8409;
1168.8000;0.0773;-0.8276;
1169.1000;0.0765;-0.8387;
1169.4000;0.0667;-0.8564;
1169.7000;0.0733;-0.8298;
1170.0000;0.0790;-0.8187;
1170.3000;0.0733;-0.8342;
1170.6000;0.0651;-0.8475;
1170.9000;0.0757;-0.8187;
1171.2000;0.0741;-0.8254;
1171.5000;0.0733;-0.8232;
1171.8000;0.0749;-0.8232;
1172.1000;0.0733;-0.8121;
1172.4000;0.0708;-0.8320;
1172.7000;0.0757;-0.8254;
1173.0000;0.0733;-0.8276;
1173.3000;0.0733;-0.8276;
1173.6000;0.0692;-0.8342;
1173.9000;0.0724;-0.8232;
1174.2000;0.0700;-0.8342;
1174.5000;0.0733;-0.8254;
1174.8000;0.0627;-0.8497;
1175.1000;0.0724;-0.8298;
1175.4000;0.0757;-0.8210;
1175.7000;0.0757;-0.8187;
1176.0000;0.0757;-0.8033;
1176.3000;0.0700;-0.8099;
1176.6000;0.0708;-0.8187;
1176.9000;0.0773;-0.8121;
1177.2000;0.0741;-0.8187;
1177.5000;0.0724;-0.8187;
1177.8000;0.0765;-0.8187;
1178.1000;0.0659;-0.8431;
1178.4000;0.0676;-0.8453;
1178.7000;0.0716;-0.8364;
1179.0000;0.0733;-0.8409;
1179.3000;0.0741;-0.8298;
1179.6000;0.0781;-0.8165;
1179.9000;0.0724;-0.8298;
1180.2000;0.0757;-0.8254;
1180.5000;0.0863;-0.8099;
1180.8000;0.0757;-0.8276;
1181.1000;0.0733;-0.8342;
1181.4000;0.0716;-0.8364;
1181.7000;0.0733;-0.8342;
1182.0000;0.0749;-0.8232;
1182.3000;0.0749;-0.8254;
1182.6000;0.0757;-0.8254;
1182.9000;0.0741;-0.8298;
1183.2000;0.0741;-0.8342;
1183.5000;0.0733;-0.8409;
1183.8000;0.0733;-0.8409;
1184.1000;0.0733;-0.8431;
1184.4000;0.0757;-0.8409;
1184.7000;0.0741;-0.8519;
1185.0000;0.0765;-0.8364;
1185.3000;0.0733;-0.8431;
1185.6000;0.0757;-0.8475;
1185.9000;0.0749;-0.8431;
1186.2000;0.0749;-0.8475;
1186.5000;0.0724;-0.8608;
1186.8000;0.0757;-0.8431;
1187.1000;0.0757;-0.8409;
1187.4000;0.0757;-0.8320;
1187.7000;0.0741;-0.8254;
1188.0000;0.0741;-0.8320;
1188.3000;0.0708;-0.8342;
1188.6000;0.0700;-0.8298;
1188.9000;0.0692;-0.8298;
1189.2000;0.0708;-0.8320;
1189.5000;0.0708;-0.8232;
1189.8000;0.0724;-0.8276;
1190.1000;0.0757;-0.8254;
1190.4000;0.0733;-0.8409;
1190.7000;0.0716;-0.8431;
1191.0000;0.0724;-0.8453;
1191.3000;0.0619;-0.8718;
1191.6000;0.0749;-0.8453;
1191.9000;0.0724;-0.8519;
1192.2000;0.0749;-0.8475;
1192.5000;0.0741;-0.8475;
1192.8000;0.0692;-0.8564;
1193.1000;0.0724;-0.8541;
1193.4000;0.0716;-0.8541;
1193.7000;0.0724;-0.8541;
1194.0000;0.0757;-0.8453;
1194.3000;0.0757;-0.8387;
1194.6000;0.0700;-0.8497;
1194.9000;0.0773;-0.8409;
1195.2000;0.0757;-0.8342;
1195.5000;0.0749;-0.8364;
1195.8000;0.0749;-0.8453;
1196.1000;0.0790;-0.8320;
1196.4000;0.0741;-0.8342;
1196.7000;0.0741;-0.8298;
1197.0000;0.0830;-0.8055;
1197.3000;0.0692;-0.8342;
1197.6000;0.0798;-0.8121;
1197.9000;0.0765;-0.8254;
1198.2000;0.0781;-0.8320;
1198.5000;0.0724;-0.8497;
1198.8000;0.0716;-0.8608;
1199.1000;0.0700;-0.8541;
1199.4000;0.0708;-0.8497;
1199.7000;0.0806;-0.8210;
1200.0000;0.0757;-0.8320;
1200.3000;0.0733;-0.8387;
1200.6000;0.0733;-0.8298;
1200.9000;0.0724;-0.8342;
1201.2000;0.0741;-0.8387;
1201.5000;0.0724;-0.8475;
1201.8000;0.0724;-0.8431;
1202.1000;0.0822;-0.8187;
1202.4000;0.0724;-0.8431;
1202.7000;0.0749;-0.8364;
1203.0000;0.0733;-0.8387;
1203.3000;0.0741;-0.8497;
1203.6000;0.0733;-0.8541;
1203.9000;0.0724;-0.8519;
1204.2000;0.0716;-0.8497;
1204.5000;0.0724;-0.8475;
1204.8000;0.0724;-0.8541;
1205.1000;0.0741;-0.8541;
1205.4000;0.0741;-0.8519;
1205.7000;0.0798;-0.8453;
1206.0000;0.0757;-0.8586;
1206.3000;0.0733;-0.8674;
1206.6000;0.0749;-0.8541;
1206.9000;0.0708;-0.8586;
1207.2000;0.0733;-0.8541;
1207.5000;0.0724;-0.8519;
1207.8000;0.0741;-0.8497;
1208.1000;0.0741;-0.8387;
1208.4000;0.0733;-0.8387;
1208.7000;0.0724;-0.8387;
1209.0000;0.0724;-0.8431;
1209.3000;0.0765;-0.8232;
1209.6000;0.0733;-0.8342;
1209.9000;0.0773;-0.8276;
1210.2000;0.0741;-0.8409;
1210.5000;0.0757;-0.8431;
1210.8000;0.0757;-0.8453;
1211.1000;0.0716;-0.8497;
1211.4000;0.0765;-0.8254;
1211.7000;0.0741;-0.8276;
1212.0000;0.0733;-0.8364;
1212.3000;0.0659;-0.8541;
1212.6000;0.0749;-0.8342;
1212.9000;0.0749;-0.8298;
1213.2000;0.0741;-0.8342;
1213.5000;0.0716;-0.8364;
1213.8000;0.0741;-0.8276;
1214.1000;0.0773;-0.8254;
1214.4000;0.0733;-0.8298;
1214.7000;0.0749;-0.8276;
1215.0000;0.0667;-0.8409;
1215.3000;0.0741;-0.8232;
1215.6000;0.0749;-0.8210;
1215.9000;0.0724;-0.8254;
1216.2000;0.0749;-0.8254;
1216.5000;0.0765;-0.8187;
1216.8000;0.0749;-0.8232;
1217.1000;0.0700;-0.8342;
1217.4000;0.0733;-0.8320;
1217.7000;0.0757;-0.8232;
1218.0000;0.0806;-0.8099;
1218.3000;0.0716;-0.8254;
1218.6000;0.0716;-0.8254;
1218.9000;0.0749;-0.8276;
1219.2000;0.0798;-0.8187;
1219.5000;0.0716;-0.8387;
1219.8000;0.0749;-0.8298;
1220.1000;0.0749;-0.8187;
1220.4000;0.0741;-0.8210;
1220.7000;0.0724;-0.8298;
1221.0000;0.0724;-0.8320;
1221.3000;0.0773;-0.8165;
1221.6000;0.0716;-0.8254;
1221.9000;0.0757;-0.8143;
1222.2000;0.0781;-0.8121;
1222.5000;0.0741;-0.8342;
1222.8000;0.0733;-0.8364;
1223.1000;0.0716;-0.8431;
1223.4000;0.0749;-0.8409;
1223.7000;0.0741;-0.8431;
1224.0000;0.0724;-0.8409;
1224.3000;0.0733;-0.8387;
1224.6000;0.0733;-0.8453;
1224.9000;0.0733;-0.8475;
1225.2000;0.0765;-0.8342;
1225.5000;0.0757;-0.8276;
1225.8000;0.0741;-0.8320;
1226.1000;0.0781;-0.8232;
1226.4000;0.0749;-0.8298;
1226.7000;0.0700;-0.8453;
1227.0000;0.0716;-0.8409;
1227.3000;0.0733;-0.8387;
1227.6000;0.0724;-0.8342;
1227.9000;0.0765;-0.8232;
1228.2000;0.0741;-0.8298;
1228.5000;0.0724;-0.8298;
1228.8000;0.0741;-0.8187;
1229.1000;0.0765;-0.8232;
1229.4000;0.0741;-0.8342;
1229.7000;0.0733;-0.8320;
1230.0000;0.0749;-0.8276;
1230.3000;0.0733;-0.8187;
1230.6000;0.0757;-0.8187;
1230.9000;0.0716;-0.8276;
1231.2000;0.0773;-0.8210;
1231.5000;0.0765;-0.8276;
1231.8000;0.0749;-0.8364;
1232.1000;0.0716;-0.8364;
1232.4000;0.0716;-0.8364;
1232.7000;0.0749;-0.8232;
1233.0000;0.0733;-0.8210;
1233.3000;0.0724;-0.8210;
1233.6000;0.0757;-0.8210;
1233.9000;0.0692;-0.8364;
1234.2000;0.0741;-0.8187;
1234.5000;0.0733;-0.8143;
1234.8000;0.0708;-0.8210;
1235.1000;0.0733;-0.8254;
1235.4000;0.0733;-0.8276;
1235.7000;0.0733;-0.8254;
1236.0000;0.0749;-0.8143;
1236.3000;0.0684;-0.8364;
1236.6000;0.0716;-0.8276;
1236.9000;0.0733;-0.8298;
1237.2000;0.0619;-0.8608;
1237.5000;0.0716;-0.8409;
1237.8000;0.0749;-0.8364;
1238.1000;0.0700;-0.8453;
1238.4000;0.0676;-0.8564;
1238.7000;0.0733;-0.8320;
1239.0000;0.0733;-0.8320;
1239.3000;0.0822;-0.8143;
1239.6000;0.0676;-0.8541;
1239.9000;0.0708;-0.8387;
1240.2000;0.0733;-0.8276;
1240.5000;0.0741;-0.8254;
1240.8000;0.0765;-0.8210;
1241.1000;0.0765;-0.8232;
1241.4000;0.0749;-0.8232;
1241.7000;0.0822;-0.8077;
1242.0000;0.0716;-0.8320;
1242.3000;0.0749;-0.8276;
1242.6000;0.0814;-0.8033;
1242.9000;0.0781;-0.8033;
1243.2000;0.0806;-0.7988;
1243.5000;0.0741;-0.8143;
1243.8000;0.0749;-0.8232;
1244.1000;0.0741;-0.8298;
1244.4000;0.0757;-0.8210;
1244.7000;0.0822;-0.8077;
1245.0000;0.0749;-0.8232;
1245.3000;0.0635;-0.8630;
1245.6000;0.0619;-0.8718;
1245.9000;0.0733;-0.8387;
1246.2000;0.0733;-0.8475;
1246.5000;0.0733;-0.8497;
1246.8000;0.0749;-0.8320;
1247.1000;0.0733;-0.8409;
1247.4000;0.0733;-0.8364;
1247.7000;0.0676;-0.8652;
1248.0000;0.0643;-0.8674;
1248.3000;0.0724;-0.8586;
1248.6000;0.0814;-0.8320;
1248.9000;0.0733;-0.8564;
1249.2000;0.0757;-0.8475;
1249.5000;0.0741;-0.8431;
1249.8000;0.0708;-0.8497;
1250.1000;0.0741;-0.8364;
1250.4000;0.0741;-0.8409;
1250.7000;0.0749;-0.8409;
1251.0000;0.0733;-0.8364;
1251.3000;0.0741;-0.8364;
1251.6000;0.0757;-0.8364;
1251.9000;0.0798;-0.8254;
1252.2000;0.0757;-0.8298;
1252.5000;0.0733;-0.8364;
1252.8000;0.0741;-0.8387;
1253.1000;0.0741;-0.8320;
1253.4000;0.0749;-0.8320;
1253.7000;0.0822;-0.8077;
1254.0000;0.0716;-0.8276;
1254.3000;0.0749;-0.8210;
1254.6000;0.0757;-0.8121;
1254.9000;0.0749;-0.8077;
1255.2000;0.0724;-0.8165;
1255.5000;0.0765;-0.7966;
1255.8000;0.0765;-0.8010;
1256.1000;0.0757;-0.8010;
1256.4000;0.0724;-0.8099;
1256.7000;0.0733;-0.8143;
1257.0000;0.0692;-0.8254;
1257.3000;0.0716;-0.8254;
1257.6000;0.0708;-0.8210;
1257.9000;0.0741;-0.8143;
1258.2000;0.0733;-0.8121;
1258.5000;0.0708;-0.8187;
1258.8000;0.0822;-0.7966;
1259.1000;0.0790;-0.8055;
1259.4000;0.0757;-0.8254;
1259.7000;0.0724;-0.8254;
1260.0000;0.0627;-0.8519;
1260.3000;0.0741;-0.8298;
1260.6000;0.0757;-0.8276;
1260.9000;0.0708;-0.8387;
1261.2000;0.0838;-0.8121;
1261.5000;0.0806;-0.8187;
1261.8000;0.0773;-0.8320;
1262.1000;0.0724;-0.8364;
1262.4000;0.0733;-0.8342;
1262.7000;0.0724;-0.8298;
1263.0000;0.0602;-0.8564;
1263.3000;0.0724;-0.8232;
1263.6000;0.0741;-0.8210;
1263.9000;0.0724;-0.8210;
1264.2000;0.0716;-0.8187;
1264.5000;0.0684;-0.8254;
1264.8000;0.0724;-0.8232;
1265.1000;0.0749;-0.8143;
1265.4000;0.0708;-0.8298;
1265.7000;0.0741;-0.8276;
1266.0000;0.0749;-0.8232;
1266.3000;0.0741;-0.8298;
1266.6000;0.0757;-0.8187;
1266.9000;0.0741;-0.8276;
1267.2000;0.0659;-0.8364;
1267.5000;0.0733;-0.8165;
1267.8000;0.0749;-0.8099;
1268.1000;0.0667;-0.8320;
1268.4000;0.0733;-0.8187;
1268.7000;0.0855;-0.7944;
1269.0000;0.0765;-0.8187;
1269.3000;0.0627;-0.8475;
1269.6000;0.0684;-0.8387;
1269.9000;0.0627;-0.8497;
1270.2000;0.0749;-0.8121;
1270.5000;0.0773;-0.8099;
1270.8000;0.0781;-0.8033;
1271.1000;0.0765;-0.8055;
1271.4000;0.0904;-0.7767;
1271.7000;0.0716;-0.8232;
1272.0000;0.0724;-0.8165;
1272.3000;0.0724;-0.8143;
1272.6000;0.0765;-0.8077;
1272.9000;0.0749;-0.8232;
1273.2000;0.0733;-0.8254;
1273.5000;0.0708;-0.8276;
1273.8000;0.0724;-0.8298;
1274.1000;0.0724;-0.8298;
1274.4000;0.0757;-0.8254;
1274.7000;0.0749;-0.8254;
1275.0000;0.0724;-0.8342;
1275.3000;0.0724;-0.8298;
1275.6000;0.0749;-0.8232;
1275.9000;0.0741;-0.8276;
1276.2000;0.0741;-0.8254;
1276.5000;0.0724;-0.8431;
1276.8000;0.0773;-0.8320;
1277.1000;0.0741;-0.8320;
1277.4000;0.0692;-0.8320;
1277.7000;0.0749;-0.8210;
1278.0000;0.0724;-0.8320;
1278.3000;0.0733;-0.8364;
1278.6000;0.0724;-0.8276;
1278.9000;0.0733;-0.8276;
1279.2000;0.0700;-0.8232;
1279.5000;0.0741;-0.8099;
1279.8000;0.0781;-0.8033;
1280.1000;0.0741;-0.8121;
1280.4000;0.0716;-0.8210;
1280.7000;0.0757;-0.8187;
1281.0000;0.0741;-0.8254;
1281.3000;0.0733;-0.8232;
1281.6000;0.0716;-0.8298;
1281.9000;0.0692;-0.8387;
1282.2000;0.0724;-0.8342;
1282.5000;0.0757;-0.8298;
1282.8000;0.0741;-0.8387;
1283.1000;0.0724;-0.8431;
1283.4000;0.0749;-0.8364;
1283.7000;0.0733;-0.8364;
1284.0000;0.0724;-0.8431;
1284.3000;0.0765;-0.8320;
1284.6000;0.0741;-0.8387;
1284.9000;0.0749;-0.8276;
1285.2000;0.0724;-0.8387;
1285.5000;0.0700;-0.8409;
1285.8000;0.0700;-0.8320;
1286.1000;0.0741;-0.8210;
1286.4000;0.0765;-0.8143;
1286.7000;0.0733;-0.8232;
1287.0000;0.0757;-0.8187;
1287.3000;0.0716;-0.8342;
1287.6000;0.0708;-0.8364;
1287.9000;0.0741;-0.8232;
1288.2000;0.0733;-0.8276;
1288.5000;0.0790;-0.8077;
1288.8000;0.0716;-0.8254;
1289.1000;0.0708;-0.8276;
1289.4000;0.0741;-0.8187;
1289.7000;0.0822;-0.7988;
1290.0000;0.0724;-0.8232;
1290.3000;0.0724;-0.8254;
1290.6000;0.0733;-0.8210;
1290.9000;0.0773;-0.8099;
1291.2000;0.0692;-0.8232;
1291.5000;0.0749;-0.8143;
1291.8000;0.0765;-0.8143;
1292.1000;0.0749;-0.8187;
1292.4000;0.0716;-0.8232;
1292.7000;0.0741;-0.8165;
1293.0000;0.0716;-0.8364;
1293.3000;0.0814;-0.8143;
1293.6000;0.0757;-0.8298;
1293.9000;0.0716;-0.8453;
1294.2000;0.0741;-0.8387;
1294.5000;0.0716;-0.8431;
1294.8000;0.0741;-0.8364;
1295.1000;0.0757;-0.8254;
1295.4000;0.0798;-0.8187;
1295.7000;0.0781;-0.8210;
1296.0000;0.0741;-0.8232;
1296.3000;0.0781;-0.8099;
1296.6000;0.0765;-0.8077;
1296.9000;0.0684;-0.8276;
1297.2000;0.0716;-0.8143;
1297.5000;0.0733;-0.8143;
1297.8000;0.0700;-0.8232;
1298.1000;0.0724;-0.8276;
1298.4000;0.0724;-0.8232;
1298.7000;0.0708;-0.8320;
1299.0000;0.0733;-0.8187;
1299.3000;0.0749;-0.8187;
1299.6000;0.0716;-0.8276;
1299.9000;0.0757;-0.8254;
1300.2000;0.0765;-0.8187;
1300.5000;0.0716;-0.8320;
1300.8000;0.0692;-0.8232;
1301.1000;0.0724;-0.8121;
1301.4000;0.0724;-0.8143;
1301.7000;0.0749;-0.8165;
1302.0000;0.0741;-0.8187;
1302.3000;0.0733;-0.8254;
1302.6000;0.0724;-0.8298;
1302.9000;0.0749;-0.8210;
1303.2000;0.0749;-0.8276;
1303.5000;0.0724;-0.8431;
1303.8000;0.0733;-0.8475;
1304.1000;0.0741;-0.8497;
1304.4000;0.0749;-0.8475;
1304.7000;0.0749;-0.8497;
1305.0000;0.0773;-0.8409;
1305.3000;0.0749;-0.8431;
1305.6000;0.0765;-0.8453;
1305.9000;0.0716;-0.8630;
1306.2000;0.0749;-0.8475;
1306.5000;0.0741;-0.8564;
1306.8000;0.0741;-0.8586;
1307.1000;0.0798;-0.8387;
1307.4000;0.0741;-0.8475;
1307.7000;0.0708;-0.8519;
1308.0000;0.0749;-0.8387;
1308.3000;0.0692;-0.8497;
1308.6000;0.0724;-0.8475;
1308.9000;0.0741;-0.8409;
1309.2000;0.0749;-0.8431;
1309.5000;0.0773;-0.8409;
1309.8000;0.0741;-0.8519;
1310.1000;0.0757;-0.8409;
1310.4000;0.0749;-0.8475;
1310.7000;0.0724;-0.8453;
1311.0000;0.0781;-0.8165;
1311.3000;0.0741;-0.8298;
1311.6000;0.0741;-0.8320;
1311.9000;0.0806;-0.8276;
1312.2000;0.0716;-0.8453;
1312.5000;0.0863;-0.8121;
1312.8000;0.0749;-0.8409;
1313.1000;0.0814;-0.8232;
1313.4000;0.0724;-0.8497;
1313.7000;0.0749;-0.8431;
1314.0000;0.0749;-0.8409;
1314.3000;0.0773;-0.8320;
1314.6000;0.0757;-0.8409;
1314.9000;0.0798;-0.8298;
1315.2000;0.0749;-0.8364;
1315.5000;0.0724;-0.8409;
1315.8000;0.0716;-0.8409;
1316.1000;0.0806;-0.8232;
1316.4000;0.0765;-0.8387;
1316.7000;0.0724;-0.8541;
1317.0000;0.0716;-0.8586;
1317.3000;0.0749;-0.8519;
1317.6000;0.0741;-0.8475;
1317.9000;0.0741;-0.8475;
1318.2000;0.0724;-0.8475;
1318.5000;0.0716;-0.8475;
1318.8000;0.0724;-0.8431;
1319.1000;0.0749;-0.8298;
1319.4000;0.0757;-0.8254;
1319.7000;0.0741;-0.8276;
1320.0000;0.0749;-0.8298;
1320.3000;0.0724;-0.8342;
1320.6000;0.0700;-0.8409;
1320.9000;0.0741;-0.8364;
1321.2000;0.0741;-0.8431;
1321.5000;0.0733;-0.8519;
1321.8000;0.0822;-0.8232;
1322.1000;0.0724;-0.8387;
1322.4000;0.0749;-0.8320;
1322.7000;0.0708;-0.8342;
1323.0000;0.0724;-0.8320;
1323.3000;0.0749;-0.8232;
1323.6000;0.0733;-0.8342;
1323.9000;0.0749;-0.8276;
1324.2000;0.0757;-0.8276;
1324.5000;0.0773;-0.8210;
1324.8000;0.0684;-0.8475;
1325.1000;0.0724;-0.8409;
1325.4000;0.0749;-0.8342;
1325.7000;0.0733;-0.8431;
1326.0000;0.0749;-0.8409;
1326.3000;0.0716;-0.8497;
1326.6000;0.0757;-0.8387;
1326.9000;0.0724;-0.8431;
1327.2000;0.0724;-0.8475;
1327.5000;0.0716;-0.8431;
1327.8000;0.0733;-0.8453;
1328.1000;0.0733;-0.8431;
1328.4000;0.0822;-0.8254;
1328.7000;0.0741;-0.8519;
1329.0000;0.0749;-0.8475;
1329.3000;0.0741;-0.8652;
1329.6000;0.0749;-0.8564;
1329.9000;0.0741;-0.8564;
1330.2000;0.0798;-0.8409;
1330.5000;0.0667;-0.8608;
1330.8000;0.0733;-0.8431;
1331.1000;0.0765;-0.8387;
1331.4000;0.0635;-0.8718;
1331.7000;0.0733;-0.8453;
1332.0000;0.0733;-0.8431;
1332.3000;0.0798;-0.8254;
1332.6000;0.0733;-0.8387;
1332.9000;0.0733;-0.8409;
1333.2000;0.0757;-0.8320;
1333.5000;0.0781;-0.8276;
1333.8000;0.0724;-0.8497;
1334.1000;0.0684;-0.8564;
1334.4000;0.0749;-0.8298;
1334.7000;0.0724;-0.8320;
1335.0000;0.0749;-0.8298;
1335.3000;0.0651;-0.8608;
1335.6000;0.0741;-0.8453;
1335.9000;0.0741;-0.8387;
1336.2000;0.0692;-0.8541;
1336.5000;0.0790;-0.8276;
1336.8000;0.0716;-0.8475;
1337.1000;0.0814;-0.8165;
1337.4000;0.0708;-0.8364;
1337.7000;0.0733;-0.8364;
1338.0000;0.0749;-0.8409;
1338.3000;0.0741;-0.8431;
1338.6000;0.0733;-0.8409;
1338.9000;0.0838;-0.8165;
1339.2000;0.0733;-0.8431;
1339.5000;0.0757;-0.8387;
1339.8000;0.0716;-0.8497;
1340.1000;0.0830;-0.8298;
1340.4000;0.0741;-0.8475;
1340.7000;0.0749;-0.8431;
1341.0000;0.0765;-0.8387;
1341.3000;0.0733;-0.8475;
1341.6000;0.0716;-0.8409;
1341.9000;0.0733;-0.8431;
1342.2000;0.0733;-0.8497;
1342.5000;0.0733;-0.8586;
1342.8000;0.0733;-0.8586;
1343.1000;0.0733;-0.8630;
1343.4000;0.0773;-0.8541;
1343.7000;0.0757;-0.8652;
1344.0000;0.0724;-0.8674;
1344.3000;0.0700;-0.8652;
1344.6000;0.0733;-0.8608;
1344.9000;0.0749;-0.8564;
1345.2000;0.0733;-0.8630;
1345.5000;0.0724;-0.8608;
1345.8000;0.0765;-0.8541;
1346.1000;0.0757;-0.8564;
1346.4000;0.0716;-0.8652;
1346.7000;0.0749;-0.8497;
1347.0000;0.0765;-0.8475;
1347.3000;0.0724;-0.8519;
1347.6000;0.0716;-0.8431;
1347.9000;0.0749;-0.8342;
1348.2000;0.0724;-0.8453;
1348.5000;0.0749;-0.8497;
1348.8000;0.0708;-0.8630;
1349.1000;0.0708;-0.8586;
1349.4000;0.0708;-0.8497;
1349.7000;0.0757;-0.8431;
1350.0000;0.0741;-0.8497;
1350.3000;0.0733;-0.8541;
1350.6000;0.0733;-0.8475;
1350.9000;0.0733;-0.8453;
1351.2000;0.0749;-0.8409;
1351.5000;0.0716;-0.8453;
1351.8000;0.0733;-0.8276;
1352.1000;0.0724;-0.8254;
1352.4000;0.0741;-0.8210;
1352.7000;0.0716;-0.8364;
1353.0000;0.0651;-0.8541;
1353.3000;0.0659;-0.8630;
1353.6000;0.0749;-0.8475;
1353.9000;0.0716;-0.8431;
1354.2000;0.0863;-0.8121;
1354.5000;0.0741;-0.8409;
1354.8000;0.0790;-0.8254;
1355.1000;0.0724;-0.8320;
1355.4000;0.0798;-0.8143;
1355.7000;0.0724;-0.8254;
1356.0000;0.0741;-0.8298;
1356.3000;0.0847;-0.8010;
1356.6000;0.0716;-0.8298;
1356.9000;0.0741;-0.8320;
1357.2000;0.0790;-0.8165;
1357.5000;0.0733;-0.8254;
1357.8000;0.0716;-0.8254;
1358.1000;0.0741;-0.8254;
1358.4000;0.0847;-0.8055;
1358.7000;0.0757;-0.8187;
1359.0000;0.0724;-0.8254;
1359.3000;0.0741;-0.8210;
1359.6000;0.0741;-0.8187;
1359.9000;0.0733;-0.8210;
1360.2000;0.0741;-0.8254;
1360.5000;0.0733;-0.8298;
1360.8000;0.0741;-0.8254;
1361.1000;0.0749;-0.8187;
1361.4000;0.0781;-0.8210;
1361.7000;0.0733;-0.8364;
1362.0000;0.0733;-0.8453;
1362.3000;0.0676;-0.8586;
1362.6000;0.0724;-0.8409;
1362.9000;0.0757;-0.8320;
1363.2000;0.0733;-0.8387;
1363.5000;0.0749;-0.8342;
1363.8000;0.0765;-0.8342;
1364.1000;0.0741;-0.8342;
1364.4000;0.0733;-0.8276;
1364.7000;0.0733;-0.8210;
1365.0000;0.0741;-0.8143;
1365.3000;0.0724;-0.8232;
1365.6000;0.0724;-0.8143;
1365.9000;0.0749;-0.8099;
1366.2000;0.0741;-0.8055;
1366.5000;0.0724;-0.8099;
1366.8000;0.0733;-0.8232;
1367.1000;0.0724;-0.8232;
1367.4000;0.0765;-0.8143;
1367.7000;0.0733;-0.8121;
1368.0000;0.0724;-0.8187;
1368.3000;0.0733;-0.8165;
1368.6000;0.0733;-0.8165;
1368.9000;0.0749;-0.8210;
1369.2000;0.0757;-0.8143;
1369.5000;0.0741;-0.8232;
1369.8000;0.0741;-0.8254;
1370.1000;0.0733;-0.8232;
1370.4000;0.0749;-0.8165;
1370.7000;0.0708;-0.8254;
1371.0000;0.0741;-0.8232;
1371.3000;0.0757;-0.8210;
1371.6000;0.0749;-0.8210;
1371.9000;0.0733;-0.8387;
1372.2000;0.0724;-0.8409;
1372.5000;0.0757;-0.8387;
1372.8000;0.0757;-0.8342;
1373.1000;0.0733;-0.8387;
1373.4000;0.0716;-0.8298;
1373.7000;0.0741;-0.8298;
1374.0000;0.0724;-0.8387;
1374.3000;0.0708;-0.8409;
1374.6000;0.0733;-0.8276;
1374.9000;0.0716;-0.8276;
1375.2000;0.0724;-0.8254;
1375.5000;0.0741;-0.8276;
1375.8000;0.0733;-0.8210;
1376.1000;0.0757;-0.8165;
1376.4000;0.0757;-0.8232;
1376.7000;0.0684;-0.8431;
1377.0000;0.0643;-0.8475;
1377.3000;0.0667;-0.8519;
1377.6000;0.0871;-0.7944;
1377.9000;0.0733;-0.8254;
1378.2000;0.0741;-0.8298;
1378.5000;0.0741;-0.8298;
1378.8000;0.0741;-0.8298;
1379.1000;0.0741;-0.8342;
1379.4000;0.0716;-0.8364;
1379.7000;0.0806;-0.8099;
1380.0000;0.0733;-0.8320;
1380.3000;0.0814;-0.8099;
1380.6000;0.0741;-0.8232;
1380.9000;0.0749;-0.8232;
1381.2000;0.0806;-0.8165;
1381.5000;0.0741;-0.8342;
1381.8000;0.0749;-0.8409;
1382.1000;0.0749;-0.8409;
1382.4000;0.0741;-0.8453;
1382.7000;0.0781;-0.8364;
1383.0000;0.0741;-0.8497;
1383.3000;0.0684;-0.8674;
1383.6000;0.0724;-0.8630;
1383.9000;0.0733;-0.8586;
1384.2000;0.0757;-0.8475;
1384.5000;0.0724;-0.8519;
1384.8000;0.0692;-0.8586;
1385.1000;0.0716;-0.8453;
1385.4000;0.0733;-0.8409;
1385.7000;0.0749;-0.8387;
1386.0000;0.0700;-0.8541;
1386.3000;0.0708;-0.8475;
1386.6000;0.0733;-0.8453;
1386.9000;0.0757;-0.8364;
1387.2000;0.0724;-0.8453;
1387.5000;0.0676;-0.8541;
1387.8000;0.0676;-0.8608;
1388.1000;0.0757;-0.8431;
1388.4000;0.0757;-0.8409;
1388.7000;0.0757;-0.8431;
1389.0000;0.0724;-0.8409;
1389.3000;0.0716;-0.8409;
1389.6000;0.0741;-0.8298;
1389.9000;0.0708;-0.8320;
1390.2000;0.0741;-0.8320;
1390.5000;0.0765;-0.8342;
1390.8000;0.0790;-0.8210;
1391.1000;0.0790;-0.8187;
1391.4000;0.0757;-0.8254;
1391.7000;0.0724;-0.8364;
1392.0000;0.0716;-0.8409;
1392.3000;0.0700;-0.8453;
1392.6000;0.0716;-0.8320;
1392.9000;0.0733;-0.8320;
1393.2000;0.0716;-0.8497;
1393.5000;0.0733;-0.8519;
1393.8000;0.0749;-0.8541;
1394.1000;0.0749;-0.8497;
1394.4000;0.0716;-0.8519;
1394.7000;0.0757;-0.8431;
1395.0000;0.0765;-0.8409;
1395.3000;0.0733;-0.8497;
1395.6000;0.0749;-0.8519;
1395.9000;0.0684;-0.8718;
1396.2000;0.0733;-0.8630;
1396.5000;0.0724;-0.8696;
1396.8000;0.0724;-0.8586;
1397.1000;0.0765;-0.8497;
1397.4000;0.0757;-0.8564;
1397.7000;0.0757;-0.8497;
1398.0000;0.0733;-0.8564;
1398.3000;0.0724;-0.8674;
1398.6000;0.0724;-0.8696;
1398.9000;0.0724;-0.8652;
1399.2000;0.0773;-0.8564;
1399.5000;0.0822;-0.8453;
1399.8000;0.0716;-0.8652;
