time/ms;Fluo/V;P700 deltaI/I x10³;
-199.8000;0.0716;-0.8807;
-199.5000;0.0733;-0.8896;
-199.2000;0.0749;-0.8940;
-198.9000;0.0749;-0.8940;
-198.6000;0.0765;-0.8896;
-198.3000;0.0733;-0.9006;
-198.0000;0.0781;-0.8896;
-197.7000;0.0757;-0.8984;
-197.4000;0.0765;-0.9028;
-197.1000;0.0749;-0.9028;
-196.8000;0.0757;-0.9028;
-196.5000;0.0716;-0.9117;
-196.2000;0.0741;-0.8962;
-195.9000;0.0749;-0.9006;
-195.6000;0.0757;-0.9006;
-195.3000;0.0781;-0.8962;
-195.0000;0.0757;-0.9095;
-194.7000;0.0716;-0.9139;
-194.4000;0.0757;-0.9028;
-194.1000;0.0741;-0.9050;
-193.8000;0.0773;-0.8940;
-193.5000;0.0708;-0.9139;
-193.2000;0.0765;-0.8984;
-192.9000;0.0741;-0.9050;
-192.6000;0.0765;-0.9028;
-192.3000;0.0765;-0.9028;
-192.0000;0.0733;-0.9139;
-191.7000;0.0757;-0.9050;
-191.4000;0.0733;-0.9139;
-191.1000;0.0741;-0.9183;
-190.8000;0.0773;-0.9205;
-190.5000;0.0733;-0.9272;
-190.2000;0.0741;-0.9227;
-189.9000;0.0757;-0.9139;
-189.6000;0.0765;-0.9095;
-189.3000;0.0749;-0.9117;
-189.0000;0.0757;-0.9161;
-188.7000;0.0781;-0.9117;
-188.4000;0.0757;-0.9161;
-188.1000;0.0716;-0.9250;
-187.8000;0.0651;-0.9427;
-187.5000;0.0749;-0.9183;
-187.2000;0.0749;-0.9183;
-186.9000;0.0741;-0.9205;
-186.6000;0.0724;-0.9272;
-186.3000;0.0741;-0.9227;
-186.0000;0.0741;-0.9183;
-185.7000;0.0741;-0.9183;
-185.4000;0.0741;-0.9139;
-185.1000;0.0733;-0.9183;
-184.8000;0.0733;-0.9161;
-184.5000;0.0773;-0.8918;
-184.2000;0.0757;-0.8962;
-183.9000;0.0708;-0.9117;
-183.6000;0.0749;-0.9073;
-183.3000;0.0765;-0.9117;
-183.0000;0.0741;-0.9050;
-182.7000;0.0757;-0.8962;
-182.4000;0.0749;-0.8984;
-182.1000;0.0749;-0.8984;
-181.8000;0.0733;-0.9050;
-181.5000;0.0716;-0.9139;
-181.2000;0.0741;-0.9050;
-180.9000;0.0798;-0.8873;
-180.6000;0.0741;-0.9028;
-180.3000;0.0741;-0.9028;
-180.0000;0.0757;-0.9028;
-179.7000;0.0757;-0.9073;
-179.4000;0.0765;-0.9050;
-179.1000;0.0749;-0.9006;
-178.8000;0.0749;-0.8984;
-178.5000;0.0749;-0.8962;
-178.2000;0.0781;-0.8896;
-177.9000;0.0741;-0.9006;
-177.6000;0.0781;-0.8962;
-177.3000;0.0765;-0.8984;
-177.0000;0.0773;-0.8918;
-176.7000;0.0749;-0.8918;
-176.4000;0.0733;-0.8918;
-176.1000;0.0716;-0.9050;
-175.8000;0.0757;-0.8984;
-175.5000;0.0749;-0.9028;
-175.2000;0.0741;-0.9006;
-174.9000;0.0716;-0.9073;
-174.6000;0.0757;-0.9117;
-174.3000;0.0773;-0.9073;
-174.0000;0.0757;-0.9117;
-173.7000;0.0733;-0.9205;
-173.4000;0.0733;-0.9139;
-173.1000;0.0749;-0.9161;
-172.8000;0.0741;-0.9183;
-172.5000;0.0741;-0.9183;
-172.2000;0.0765;-0.9161;
-171.9000;0.0806;-0.8940;
-171.6000;0.0765;-0.9006;
-171.3000;0.0724;-0.9095;
-171.0000;0.0749;-0.9073;
-170.7000;0.0741;-0.9073;
-170.4000;0.0741;-0.9028;
-170.1000;0.0749;-0.9028;
-169.8000;0.0724;-0.9139;
-169.5000;0.0749;-0.9117;
-169.2000;0.0676;-0.9227;
-168.9000;0.0749;-0.9050;
-168.6000;0.0741;-0.9073;
-168.3000;0.0741;-0.9050;
-168.0000;0.0749;-0.9073;
-167.7000;0.0749;-0.9028;
-167.4000;0.0757;-0.8984;
-167.1000;0.0741;-0.8940;
-166.8000;0.0749;-0.8962;
-166.5000;0.0773;-0.8918;
-166.2000;0.0741;-0.8984;
-165.9000;0.0757;-0.8984;
-165.6000;0.0741;-0.9028;
-165.3000;0.0749;-0.9006;
-165.0000;0.0757;-0.8984;
-164.7000;0.0749;-0.9028;
-164.4000;0.0790;-0.8962;
-164.1000;0.0733;-0.9183;
-163.8000;0.0733;-0.9205;
-163.5000;0.0757;-0.9161;
-163.2000;0.0765;-0.9183;
-162.9000;0.0814;-0.9006;
-162.6000;0.0765;-0.9095;
-162.3000;0.0757;-0.9095;
-162.0000;0.0749;-0.9006;
-161.7000;0.0749;-0.8940;
-161.4000;0.0643;-0.9250;
-161.1000;0.0741;-0.8962;
-160.8000;0.0749;-0.8896;
-160.5000;0.0733;-0.8918;
-160.2000;0.0741;-0.8984;
-159.9000;0.0684;-0.9095;
-159.6000;0.0749;-0.8940;
-159.3000;0.0757;-0.8896;
-159.0000;0.0749;-0.8896;
-158.7000;0.0765;-0.8829;
-158.4000;0.0757;-0.8807;
-158.1000;0.0757;-0.8896;
-157.8000;0.0773;-0.9050;
-157.5000;0.0676;-0.9338;
-157.2000;0.0733;-0.9183;
-156.9000;0.0741;-0.9161;
-156.6000;0.0733;-0.9161;
-156.3000;0.0692;-0.9183;
-156.0000;0.0724;-0.9050;
-155.7000;0.0749;-0.8984;
-155.4000;0.0676;-0.9050;
-155.1000;0.0757;-0.8785;
-154.8000;0.0724;-0.8851;
-154.5000;0.0757;-0.8873;
-154.2000;0.0765;-0.8984;
-153.9000;0.0822;-0.8873;
-153.6000;0.0765;-0.9006;
-153.3000;0.0741;-0.9161;
-153.0000;0.0749;-0.9183;
-152.7000;0.0830;-0.9006;
-152.4000;0.0757;-0.9117;
-152.1000;0.0757;-0.9050;
-151.8000;0.0643;-0.9205;
-151.5000;0.0757;-0.8962;
-151.2000;0.0684;-0.9139;
-150.9000;0.0741;-0.8940;
-150.6000;0.0724;-0.8984;
-150.3000;0.0757;-0.8896;
-150.0000;0.0749;-0.8873;
-149.7000;0.0733;-0.8896;
-149.4000;0.0814;-0.8696;
-149.1000;0.0757;-0.8807;
-148.8000;0.0724;-0.8873;
-148.5000;0.0684;-0.8962;
-148.2000;0.0798;-0.8696;
-147.9000;0.0708;-0.8940;
-147.6000;0.0651;-0.9073;
-147.3000;0.0790;-0.8785;
-147.0000;0.0757;-0.8851;
-146.7000;0.0676;-0.9050;
-146.4000;0.0749;-0.8873;
-146.1000;0.0749;-0.8918;
-145.8000;0.0684;-0.9139;
-145.5000;0.0700;-0.9028;
-145.2000;0.0781;-0.8785;
-144.9000;0.0700;-0.9073;
-144.6000;0.0904;-0.8564;
-144.3000;0.0757;-0.8918;
-144.0000;0.0781;-0.8962;
-143.7000;0.0741;-0.8984;
-143.4000;0.0757;-0.8918;
-143.1000;0.0700;-0.9006;
-142.8000;0.0830;-0.8674;
-142.5000;0.0749;-0.8851;
-142.2000;0.0700;-0.9006;
-141.9000;0.0790;-0.8918;
-141.6000;0.0749;-0.8984;
-141.3000;0.0724;-0.9050;
-141.0000;0.0611;-0.9272;
-140.7000;0.0757;-0.8896;
-140.4000;0.0773;-0.8763;
-140.1000;0.0855;-0.8541;
-139.8000;0.0733;-0.8807;
-139.5000;0.0692;-0.8896;
-139.2000;0.0708;-0.8807;
-138.9000;0.0757;-0.8718;
-138.6000;0.0749;-0.8829;
-138.3000;0.0741;-0.8940;
-138.0000;0.0741;-0.8918;
-137.7000;0.0749;-0.8962;
-137.4000;0.0611;-0.9294;
-137.1000;0.0716;-0.9073;
-136.8000;0.0773;-0.8940;
-136.5000;0.0741;-0.9050;
-136.2000;0.0684;-0.9183;
-135.9000;0.0741;-0.9050;
-135.6000;0.0733;-0.9006;
-135.3000;0.0798;-0.8896;
-135.0000;0.0741;-0.9006;
-134.7000;0.0741;-0.9028;
-134.4000;0.0741;-0.9006;
-134.1000;0.0757;-0.8984;
-133.8000;0.0765;-0.8962;
-133.5000;0.0765;-0.8984;
-133.2000;0.0749;-0.8918;
-132.9000;0.0724;-0.8940;
-132.6000;0.0724;-0.8940;
-132.3000;0.0806;-0.8741;
-132.0000;0.0724;-0.8962;
-131.7000;0.0790;-0.8873;
-131.4000;0.0749;-0.9006;
-131.1000;0.0749;-0.9006;
-130.8000;0.0708;-0.9073;
-130.5000;0.0757;-0.9073;
-130.2000;0.0765;-0.9139;
-129.9000;0.0741;-0.9117;
-129.6000;0.0741;-0.9006;
-129.3000;0.0724;-0.8962;
-129.0000;0.0724;-0.8962;
-128.7000;0.0724;-0.8962;
-128.4000;0.0757;-0.8918;
-128.1000;0.0749;-0.8962;
-127.8000;0.0700;-0.9117;
-127.5000;0.0733;-0.9028;
-127.2000;0.0741;-0.9006;
-126.9000;0.0749;-0.8940;
-126.6000;0.0749;-0.8940;
-126.3000;0.0757;-0.8918;
-126.0000;0.0741;-0.8962;
-125.7000;0.0749;-0.8962;
-125.4000;0.0749;-0.9006;
-125.1000;0.0749;-0.8962;
-124.8000;0.0733;-0.9028;
-124.5000;0.0757;-0.8984;
-124.2000;0.0733;-0.9050;
-123.9000;0.0741;-0.9006;
-123.6000;0.0749;-0.9028;
-123.3000;0.0765;-0.9050;
-123.0000;0.0757;-0.9183;
-122.7000;0.0765;-0.9117;
-122.4000;0.0659;-0.9294;
-122.1000;0.0741;-0.9117;
-121.8000;0.0733;-0.9073;
-121.5000;0.0741;-0.9006;
-121.2000;0.0749;-0.9050;
-120.9000;0.0733;-0.9139;
-120.6000;0.0773;-0.8918;
-120.3000;0.0749;-0.8940;
-120.0000;0.0733;-0.9006;
-119.7000;0.0724;-0.9028;
-119.4000;0.0773;-0.8940;
-119.1000;0.0773;-0.8962;
-118.8000;0.0757;-0.9028;
-118.5000;0.0716;-0.9183;
-118.2000;0.0733;-0.9095;
-117.9000;0.0741;-0.8962;
-117.6000;0.0757;-0.8896;
-117.3000;0.0871;-0.8630;
-117.0000;0.0757;-0.9006;
-116.7000;0.0781;-0.8918;
-116.4000;0.0765;-0.8940;
-116.1000;0.0757;-0.8984;
-115.8000;0.0741;-0.8918;
-115.5000;0.0724;-0.8829;
-115.2000;0.0741;-0.8630;
-114.9000;0.0733;-0.8763;
-114.6000;0.0757;-0.8785;
-114.3000;0.0773;-0.8763;
-114.0000;0.0700;-0.9006;
-113.7000;0.0749;-0.8962;
-113.4000;0.0733;-0.8984;
-113.1000;0.0814;-0.8851;
-112.8000;0.0716;-0.9006;
-112.5000;0.0741;-0.8962;
-112.2000;0.0749;-0.8984;
-111.9000;0.0765;-0.8984;
-111.6000;0.0757;-0.8940;
-111.3000;0.0724;-0.8984;
-111.0000;0.0798;-0.8807;
-110.7000;0.0757;-0.8940;
-110.4000;0.0741;-0.8940;
-110.1000;0.0757;-0.8851;
-109.8000;0.0757;-0.8807;
-109.5000;0.0790;-0.8696;
-109.2000;0.0749;-0.8763;
-108.9000;0.0684;-0.9073;
-108.6000;0.0749;-0.8829;
-108.3000;0.0822;-0.8652;
-108.0000;0.0749;-0.8896;
-107.7000;0.0684;-0.9095;
-107.4000;0.0708;-0.9117;
-107.1000;0.0806;-0.8851;
-106.8000;0.0765;-0.9073;
-106.5000;0.0733;-0.9161;
-106.2000;0.0741;-0.9205;
-105.9000;0.0871;-0.8873;
-105.6000;0.0733;-0.9205;
-105.3000;0.0765;-0.9050;
-105.0000;0.0765;-0.9117;
-104.7000;0.0676;-0.9250;
-104.4000;0.0757;-0.9139;
-104.1000;0.0733;-0.9227;
-103.8000;0.0749;-0.9227;
-103.5000;0.0741;-0.9360;
-103.2000;0.0757;-0.9382;
-102.9000;0.0733;-0.9427;
-102.6000;0.0749;-0.9449;
-102.3000;0.0765;-0.9382;
-102.0000;0.0765;-0.9360;
-101.7000;0.0749;-0.9338;
-101.4000;0.0627;-0.9692;
-101.1000;0.0741;-0.9360;
-100.8000;0.0724;-0.9404;
-100.5000;0.0700;-0.9493;
-100.2000;0.0749;-0.9338;
-99.9000;0.0757;-0.9360;
-99.6000;0.0733;-0.9360;
-99.3000;0.0757;-0.9338;
-99.0000;0.0757;-0.9294;
-98.7000;0.0814;-0.9073;
-98.4000;0.0757;-0.9095;
-98.1000;0.0765;-0.9095;
-97.8000;0.0594;-0.9449;
-97.5000;0.0814;-0.8984;
-97.2000;0.0757;-0.9095;
-96.9000;0.0716;-0.9139;
-96.6000;0.0741;-0.9050;
-96.3000;0.0716;-0.9073;
-96.0000;0.0830;-0.8807;
-95.7000;0.0798;-0.8873;
-95.4000;0.0757;-0.8984;
-95.1000;0.0741;-0.9006;
-94.8000;0.0708;-0.8984;
-94.5000;0.0790;-0.8763;
-94.2000;0.0781;-0.8718;
-93.9000;0.0765;-0.8785;
-93.6000;0.0716;-0.8940;
-93.3000;0.0757;-0.8873;
-93.0000;0.0781;-0.8785;
-92.7000;0.0716;-0.8851;
-92.4000;0.0733;-0.8807;
-92.1000;0.0741;-0.8785;
-91.8000;0.0773;-0.8785;
-91.5000;0.0790;-0.8718;
-91.2000;0.0757;-0.8741;
-90.9000;0.0733;-0.8807;
-90.6000;0.0733;-0.8785;
-90.3000;0.0765;-0.8674;
-90.0000;0.0773;-0.8630;
-89.7000;0.0733;-0.8741;
-89.4000;0.0749;-0.8741;
-89.1000;0.0716;-0.8829;
-88.8000;0.0757;-0.8785;
-88.5000;0.0708;-0.8873;
-88.2000;0.0651;-0.9117;
-87.9000;0.0692;-0.8896;
-87.6000;0.0773;-0.8785;
-87.3000;0.0814;-0.8718;
-87.0000;0.0733;-0.8873;
-86.7000;0.0749;-0.8829;
-86.4000;0.0749;-0.8851;
-86.1000;0.0667;-0.9117;
-85.8000;0.0708;-0.9050;
-85.5000;0.0659;-0.9183;
-85.2000;0.0716;-0.8962;
-84.9000;0.0724;-0.8984;
-84.6000;0.0781;-0.8873;
-84.3000;0.0757;-0.8940;
-84.0000;0.0749;-0.8984;
-83.7000;0.0708;-0.9139;
-83.4000;0.0676;-0.9139;
-83.1000;0.0741;-0.8940;
-82.8000;0.0733;-0.9006;
-82.5000;0.0749;-0.8873;
-82.2000;0.0741;-0.8918;
-81.9000;0.0733;-0.9028;
-81.6000;0.0741;-0.8984;
-81.3000;0.0757;-0.8984;
-81.0000;0.0741;-0.9117;
-80.7000;0.0708;-0.9272;
-80.4000;0.0724;-0.9227;
-80.1000;0.0749;-0.9205;
-79.8000;0.0773;-0.9139;
-79.5000;0.0822;-0.9028;
-79.2000;0.0822;-0.9117;
-78.9000;0.0757;-0.9250;
-78.6000;0.0716;-0.9338;
-78.3000;0.0733;-0.9227;
-78.0000;0.0749;-0.9183;
-77.7000;0.0757;-0.9073;
-77.4000;0.0692;-0.9205;
-77.1000;0.0741;-0.9050;
-76.8000;0.0741;-0.9028;
-76.5000;0.0708;-0.9183;
-76.2000;0.0733;-0.9161;
-75.9000;0.0708;-0.9117;
-75.6000;0.0749;-0.9050;
-75.3000;0.0716;-0.9117;
-75.0000;0.0798;-0.8851;
-74.7000;0.0765;-0.9006;
-74.4000;0.0773;-0.8984;
-74.1000;0.0765;-0.9006;
-73.8000;0.0741;-0.9006;
-73.5000;0.0749;-0.9028;
-73.2000;0.0741;-0.9139;
-72.9000;0.0757;-0.9095;
-72.6000;0.0765;-0.9095;
-72.3000;0.0757;-0.9161;
-72.0000;0.0790;-0.9139;
-71.7000;0.0765;-0.9205;
-71.4000;0.0627;-0.9404;
-71.1000;0.0757;-0.9050;
-70.8000;0.0765;-0.9050;
-70.5000;0.0724;-0.9183;
-70.2000;0.0741;-0.9183;
-69.9000;0.0757;-0.9183;
-69.6000;0.0733;-0.9183;
-69.3000;0.0757;-0.9183;
-69.0000;0.0749;-0.9161;
-68.7000;0.0765;-0.9117;
-68.4000;0.0822;-0.8918;
-68.1000;0.0757;-0.9073;
-67.8000;0.0757;-0.9073;
-67.5000;0.0741;-0.9073;
-67.2000;0.0765;-0.8962;
-66.9000;0.0765;-0.8984;
-66.6000;0.0749;-0.8984;
-66.3000;0.0757;-0.9050;
-66.0000;0.0741;-0.9028;
-65.7000;0.0708;-0.9095;
-65.4000;0.0765;-0.9006;
-65.1000;0.0757;-0.8962;
-64.8000;0.0838;-0.8807;
-64.5000;0.0741;-0.9050;
-64.2000;0.0757;-0.8962;
-63.9000;0.0757;-0.8984;
-63.6000;0.0765;-0.8984;
-63.3000;0.0667;-0.9205;
-63.0000;0.0790;-0.8962;
-62.7000;0.0757;-0.9095;
-62.4000;0.0749;-0.9139;
-62.1000;0.0724;-0.9205;
-61.8000;0.0708;-0.9294;
-61.5000;0.0708;-0.9272;
-61.2000;0.0676;-0.9382;
-60.9000;0.0749;-0.9205;
-60.6000;0.0716;-0.9227;
-60.3000;0.0667;-0.9449;
-60.0000;0.0757;-0.9227;
-59.7000;0.0757;-0.9227;
-59.4000;0.0733;-0.9250;
-59.1000;0.0700;-0.9316;
-58.8000;0.0781;-0.9050;
-58.5000;0.0757;-0.9139;
-58.2000;0.0749;-0.9117;
-57.9000;0.0757;-0.9095;
-57.6000;0.0773;-0.9050;
-57.3000;0.0757;-0.9095;
-57.0000;0.0716;-0.9161;
-56.7000;0.0879;-0.8785;
-56.4000;0.0741;-0.9205;
-56.1000;0.0716;-0.9272;
-55.8000;0.0757;-0.9183;
-55.5000;0.0773;-0.9006;
-55.2000;0.0733;-0.9028;
-54.9000;0.0749;-0.9006;
-54.6000;0.0741;-0.9028;
-54.3000;0.0757;-0.9006;
-54.0000;0.0733;-0.8940;
-53.7000;0.0757;-0.8829;
-53.4000;0.0757;-0.8896;
-53.1000;0.0757;-0.8962;
-52.8000;0.0757;-0.8851;
-52.5000;0.0667;-0.9095;
-52.2000;0.0749;-0.8984;
-51.9000;0.0749;-0.9117;
-51.6000;0.0757;-0.9183;
-51.3000;0.0741;-0.9139;
-51.0000;0.0773;-0.9050;
-50.7000;0.0700;-0.9205;
-50.4000;0.0749;-0.9006;
-50.1000;0.0733;-0.8984;
-49.8000;0.0724;-0.9028;
-49.5000;0.0781;-0.8873;
-49.2000;0.0757;-0.8918;
-48.9000;0.0741;-0.8873;
-48.6000;0.0741;-0.8918;
-48.3000;0.0765;-0.8918;
-48.0000;0.0757;-0.8940;
-47.7000;0.0757;-0.8962;
-47.4000;0.0757;-0.9117;
-47.1000;0.0749;-0.9073;
-46.8000;0.0847;-0.8807;
-46.5000;0.0741;-0.9050;
-46.2000;0.0757;-0.8873;
-45.9000;0.0749;-0.8829;
-45.6000;0.0757;-0.8807;
-45.3000;0.0667;-0.9073;
-45.0000;0.0757;-0.8829;
-44.7000;0.0733;-0.8940;
-44.4000;0.0838;-0.8741;
-44.1000;0.0757;-0.9006;
-43.8000;0.0724;-0.9050;
-43.5000;0.0765;-0.8984;
-43.2000;0.0838;-0.8741;
-42.9000;0.0790;-0.8896;
-42.6000;0.0757;-0.9028;
-42.3000;0.0773;-0.8984;
-42.0000;0.0741;-0.8984;
-41.7000;0.0757;-0.8873;
-41.4000;0.0757;-0.8873;
-41.1000;0.0733;-0.8873;
-40.8000;0.0708;-0.8918;
-40.5000;0.0773;-0.8741;
-40.2000;0.0749;-0.8807;
-39.9000;0.0757;-0.8829;
-39.6000;0.0724;-0.8984;
-39.3000;0.0863;-0.8785;
-39.0000;0.0749;-0.9073;
-38.7000;0.0798;-0.8984;
-38.4000;0.0684;-0.9183;
-38.1000;0.0749;-0.8962;
-37.8000;0.0830;-0.8741;
-37.5000;0.0741;-0.8962;
-37.2000;0.0741;-0.8962;
-36.9000;0.0724;-0.8940;
-36.6000;0.0741;-0.8940;
-36.3000;0.0806;-0.8763;
-36.0000;0.0749;-0.8962;
-35.7000;0.0757;-0.8918;
-35.4000;0.0684;-0.9095;
-35.1000;0.0749;-0.8940;
-34.8000;0.0757;-0.8962;
-34.5000;0.0724;-0.9006;
-34.2000;0.0741;-0.9006;
-33.9000;0.0741;-0.8918;
-33.6000;0.0757;-0.8918;
-33.3000;0.0724;-0.9050;
-33.0000;0.0741;-0.9050;
-32.7000;0.0724;-0.9050;
-32.4000;0.0814;-0.8896;
-32.1000;0.0757;-0.9050;
-31.8000;0.0733;-0.9117;
-31.5000;0.0749;-0.9117;
-31.2000;0.0741;-0.9161;
-30.9000;0.0749;-0.9183;
-30.6000;0.0741;-0.9183;
-30.3000;0.0773;-0.9073;
-30.0000;0.0741;-0.9161;
-29.7000;0.0741;-0.9117;
-29.4000;0.0765;-0.9073;
-29.1000;0.0757;-0.9095;
-28.8000;0.0757;-0.9117;
-28.5000;0.0643;-0.9360;
-28.2000;0.0773;-0.9073;
-27.9000;0.0708;-0.9205;
-27.6000;0.0733;-0.9161;
-27.3000;0.0765;-0.9095;
-27.0000;0.0741;-0.9139;
-26.7000;0.0733;-0.9117;
-26.4000;0.0724;-0.9073;
-26.1000;0.0716;-0.9117;
-25.8000;0.0749;-0.9073;
-25.5000;0.0724;-0.9139;
-25.2000;0.0757;-0.9006;
-24.9000;0.0757;-0.9073;
-24.6000;0.0765;-0.9028;
-24.3000;0.0765;-0.9028;
-24.0000;0.0741;-0.9050;
-23.7000;0.0757;-0.9028;
-23.4000;0.0781;-0.9050;
-23.1000;0.0757;-0.9117;
-22.8000;0.0619;-0.9427;
-22.5000;0.0741;-0.9095;
-22.2000;0.0757;-0.9117;
-21.9000;0.0790;-0.9006;
-21.6000;0.0651;-0.9382;
-21.3000;0.0757;-0.9161;
-21.0000;0.0773;-0.9095;
-20.7000;0.0822;-0.8940;
-20.4000;0.0806;-0.8940;
-20.1000;0.0749;-0.9050;
-19.8000;0.0733;-0.9095;
-19.5000;0.0773;-0.9073;
-19.2000;0.0765;-0.9183;
-18.9000;0.0757;-0.9161;
-18.6000;0.0781;-0.9095;
-18.3000;0.0757;-0.9095;
-18.0000;0.0627;-0.9360;
-17.7000;0.0741;-0.9073;
-17.4000;0.0773;-0.8918;
-17.1000;0.0879;-0.8652;
-16.8000;0.0757;-0.8896;
-16.5000;0.0749;-0.8940;
-16.2000;0.0749;-0.9028;
-15.9000;0.0724;-0.9117;
-15.6000;0.0716;-0.9117;
-15.3000;0.0749;-0.9117;
-15.0000;0.0741;-0.9050;
-14.7000;0.0814;-0.8940;
-14.4000;0.0765;-0.9028;
-14.1000;0.0749;-0.8984;
-13.8000;0.0676;-0.9161;
-13.5000;0.0798;-0.8896;
-13.2000;0.0757;-0.9006;
-12.9000;0.0790;-0.8918;
-12.6000;0.0895;-0.8652;
-12.3000;0.0741;-0.9006;
-12.0000;0.0741;-0.8984;
-11.7000;0.0757;-0.9028;
-11.4000;0.0676;-0.9250;
-11.1000;0.0757;-0.9028;
-10.8000;0.0757;-0.9006;
-10.5000;0.0765;-0.9050;
-10.2000;0.0733;-0.9117;
-9.9000;0.0733;-0.9073;
-9.6000;0.0765;-0.8851;
-9.3000;0.0741;-0.9006;
-9.0000;0.0741;-0.9006;
-8.7000;0.0708;-0.9028;
-8.4000;0.0716;-0.9117;
-8.1000;0.0757;-0.9006;
-7.8000;0.0855;-0.8829;
-7.5000;0.0765;-0.8984;
-7.2000;0.0733;-0.9050;
-6.9000;0.0757;-0.9028;
-6.6000;0.0716;-0.9117;
-6.3000;0.0749;-0.8984;
-6.0000;0.0733;-0.9073;
-5.7000;0.0741;-0.9117;
-5.4000;0.0724;-0.9073;
-5.1000;0.0749;-0.9050;
-4.8000;0.0733;-0.9006;
-4.5000;0.0619;-0.9316;
-4.2000;0.0749;-0.9073;
-3.9000;0.0749;-0.9028;
-3.6000;0.0749;-0.9006;
-3.3000;0.0741;-0.9006;
-3.0000;0.0749;-0.9095;
-2.7000;0.0806;-0.8918;
-2.4000;0.0749;-0.9028;
-2.1000;0.0757;-0.9095;
-1.8000;0.0716;-0.9205;
-1.5000;0.0765;-0.9073;
-1.2000;0.0781;-0.9006;
-0.9000;0.0724;-0.9028;
-0.6000;0.0749;-0.8962;
-0.3000;0.0781;-0.8962;
0.0000;0.0781;-0.8962;
0.3000;0.0741;-0.9183;
0.6000;0.0757;-0.9117;
0.9000;0.0781;-0.8940;
1.2000;0.0781;-0.8785;
1.5000;0.0798;-0.8652;
1.8000;0.0806;-0.8541;
2.1000;0.0822;-0.8431;
2.4000;0.0830;-0.8320;
2.7000;0.0855;-0.8232;
3.0000;0.0781;-0.8298;
3.3000;0.0855;-0.8077;
3.6000;0.0830;-0.8121;
3.9000;0.0855;-0.8033;
4.2000;0.0838;-0.8055;
4.5000;0.0855;-0.8055;
4.8000;0.0879;-0.7966;
5.1000;0.0855;-0.8033;
5.4000;0.0847;-0.8121;
5.7000;0.0879;-0.8099;
6.0000;0.0855;-0.8099;
6.3000;0.0863;-0.8165;
6.6000;0.0855;-0.8143;
6.9000;0.0814;-0.8232;
7.2000;0.0700;-0.8497;
7.5000;0.0798;-0.8298;
7.8000;0.0863;-0.8099;
8.1000;0.0847;-0.8077;
8.4000;0.0863;-0.7966;
8.7000;0.0879;-0.7745;
9.0000;0.0847;-0.7767;
9.3000;0.0871;-0.7767;
9.6000;0.0830;-0.7922;
9.9000;0.0847;-0.7855;
10.2000;0.0855;-0.7878;
10.5000;0.0887;-0.7811;
10.8000;0.0871;-0.7855;
11.1000;0.0871;-0.7855;
11.4000;0.0887;-0.7833;
11.7000;0.0871;-0.7855;
12.0000;0.0871;-0.7900;
12.3000;0.0928;-0.7811;
12.6000;0.0855;-0.8033;
12.9000;0.0855;-0.8077;
13.2000;0.0952;-0.7789;
13.5000;0.0920;-0.7900;
13.8000;0.0855;-0.8055;
14.1000;0.0863;-0.8077;
14.4000;0.0887;-0.8099;
14.7000;0.0887;-0.8055;
15.0000;0.0993;-0.7745;
15.3000;0.0952;-0.7900;
15.6000;0.1001;-0.7789;
15.9000;0.0879;-0.8099;
16.2000;0.0879;-0.8143;
16.5000;0.0855;-0.8187;
16.8000;0.0863;-0.8010;
17.1000;0.0798;-0.8121;
17.4000;0.0871;-0.7922;
17.7000;0.0806;-0.8077;
18.0000;0.0855;-0.7944;
18.3000;0.0904;-0.7855;
18.6000;0.0847;-0.8010;
18.9000;0.0847;-0.8033;
19.2000;0.0855;-0.8033;
19.5000;0.0855;-0.8010;
19.8000;0.0879;-0.7944;
20.1000;0.0871;-0.7944;
20.4000;0.0863;-0.7966;
20.7000;0.0855;-0.8033;
21.0000;0.0847;-0.8055;
21.3000;0.0855;-0.7988;
21.6000;0.0863;-0.7900;
21.9000;0.0847;-0.7922;
22.2000;0.0895;-0.7767;
22.5000;0.0863;-0.7833;
22.8000;0.0863;-0.7833;
23.1000;0.0847;-0.7833;
23.4000;0.0879;-0.7811;
23.7000;0.0895;-0.7767;
24.0000;0.0887;-0.7878;
24.3000;0.0895;-0.7878;
24.6000;0.0920;-0.7900;
24.9000;0.0863;-0.8033;
25.2000;0.0879;-0.7922;
25.5000;0.0895;-0.7811;
25.8000;0.0944;-0.7656;
26.1000;0.0822;-0.7988;
26.4000;0.0895;-0.7701;
26.7000;0.0871;-0.7767;
27.0000;0.0895;-0.7789;
27.3000;0.0879;-0.7767;
27.6000;0.0879;-0.7789;
27.9000;0.0871;-0.7855;
28.2000;0.0879;-0.7833;
28.5000;0.0895;-0.7811;
28.8000;0.0863;-0.7944;
29.1000;0.0806;-0.8121;
29.4000;0.0871;-0.7988;
29.7000;0.0879;-0.8033;
30.0000;0.0879;-0.8077;
30.3000;0.0863;-0.8010;
30.6000;0.0871;-0.7922;
30.9000;0.0863;-0.7922;
31.2000;0.0863;-0.7833;
31.5000;0.0895;-0.7811;
31.8000;0.1018;-0.7457;
32.1000;0.0871;-0.7855;
32.4000;0.0895;-0.7811;
32.7000;0.0847;-0.7966;
33.0000;0.0887;-0.7922;
33.3000;0.0863;-0.7944;
33.6000;0.0871;-0.7811;
33.9000;0.0879;-0.7811;
34.2000;0.0855;-0.7944;
34.5000;0.0977;-0.7678;
34.8000;0.0806;-0.8055;
35.1000;0.0879;-0.7855;
35.4000;0.0895;-0.7833;
35.7000;0.0895;-0.7833;
36.0000;0.0879;-0.7900;
36.3000;0.0863;-0.7811;
36.6000;0.0765;-0.7988;
36.9000;0.0830;-0.7811;
37.2000;0.0920;-0.7701;
37.5000;0.0904;-0.7745;
37.8000;0.0879;-0.7789;
38.1000;0.0871;-0.7878;
38.4000;0.0871;-0.7878;
38.7000;0.0871;-0.7922;
39.0000;0.0895;-0.7833;
39.3000;0.0985;-0.7678;
39.6000;0.0871;-0.7966;
39.9000;0.0863;-0.7878;
40.2000;0.0895;-0.7767;
40.5000;0.0895;-0.7811;
40.8000;0.0863;-0.7878;
41.1000;0.0887;-0.7745;
41.4000;0.0855;-0.7789;
41.7000;0.0879;-0.7723;
42.0000;0.0879;-0.7745;
42.3000;0.0757;-0.8033;
42.6000;0.0904;-0.7634;
42.9000;0.0904;-0.7701;
43.2000;0.0887;-0.7745;
43.5000;0.0847;-0.7789;
43.8000;0.0887;-0.7701;
44.1000;0.0895;-0.7701;
44.4000;0.0879;-0.7701;
44.7000;0.0855;-0.7789;
45.0000;0.0871;-0.7855;
45.3000;0.0871;-0.7900;
45.6000;0.0887;-0.7900;
45.9000;0.0879;-0.7944;
46.2000;0.0863;-0.7922;
46.5000;0.0912;-0.7855;
46.8000;0.0961;-0.7811;
47.1000;0.0887;-0.7922;
47.4000;0.0895;-0.7855;
47.7000;0.0879;-0.7900;
48.0000;0.0895;-0.7855;
48.3000;0.0879;-0.7878;
48.6000;0.0871;-0.7878;
48.9000;0.0887;-0.7855;
49.2000;0.0887;-0.7833;
49.5000;0.0863;-0.7878;
49.8000;0.0887;-0.7833;
50.1000;0.0895;-0.7767;
50.4000;0.0912;-0.7678;
50.7000;0.0895;-0.7723;
51.0000;0.0887;-0.7723;
51.3000;0.0887;-0.7767;
51.6000;0.0887;-0.7789;
51.9000;0.0895;-0.7789;
52.2000;0.0895;-0.7833;
52.5000;0.0969;-0.7634;
52.8000;0.0887;-0.7833;
53.1000;0.0993;-0.7501;
53.4000;0.0838;-0.7966;
53.7000;0.0879;-0.7900;
54.0000;0.0879;-0.7966;
54.3000;0.0879;-0.7878;
54.6000;0.0887;-0.7900;
54.9000;0.0879;-0.7988;
55.2000;0.0863;-0.7944;
55.5000;0.0871;-0.7833;
55.8000;0.0871;-0.7789;
56.1000;0.0863;-0.7811;
56.4000;0.0879;-0.7745;
56.7000;0.0895;-0.7723;
57.0000;0.0879;-0.7745;
57.3000;0.0887;-0.7789;
57.6000;0.1026;-0.7590;
57.9000;0.0969;-0.7634;
58.2000;0.0895;-0.7789;
58.5000;0.0904;-0.7723;
58.8000;0.0887;-0.7701;
59.1000;0.0895;-0.7723;
59.4000;0.0895;-0.7701;
59.7000;0.0895;-0.7656;
60.0000;0.0895;-0.7745;
60.3000;0.0887;-0.7745;
60.6000;0.0822;-0.7944;
60.9000;0.0895;-0.7723;
61.2000;0.0830;-0.7833;
61.5000;0.0895;-0.7723;
61.8000;0.0895;-0.7767;
62.1000;0.0871;-0.7789;
62.4000;0.0863;-0.7767;
62.7000;0.0887;-0.7701;
63.0000;0.0904;-0.7745;
63.3000;0.0952;-0.7612;
63.6000;0.0895;-0.7855;
63.9000;0.0879;-0.7900;
64.2000;0.0928;-0.7833;
64.5000;0.0879;-0.7922;
64.8000;0.0887;-0.7855;
65.1000;0.0879;-0.7944;
65.4000;0.0895;-0.7900;
65.7000;0.0895;-0.7966;
66.0000;0.0887;-0.8010;
66.3000;0.0871;-0.8010;
66.6000;0.0904;-0.7944;
66.9000;0.0928;-0.7833;
67.2000;0.0887;-0.7900;
67.5000;0.0904;-0.7900;
67.8000;0.0887;-0.7944;
68.1000;0.0895;-0.8010;
68.4000;0.0887;-0.8010;
68.7000;0.0879;-0.8010;
69.0000;0.0887;-0.7988;
69.3000;0.0887;-0.8010;
69.6000;0.0879;-0.7944;
69.9000;0.0863;-0.7966;
70.2000;0.0863;-0.7988;
70.5000;0.0887;-0.7988;
70.8000;0.0871;-0.7988;
71.1000;0.0887;-0.7966;
71.4000;0.0912;-0.7966;
71.7000;0.0936;-0.7878;
72.0000;0.0895;-0.8033;
72.3000;0.0887;-0.8077;
72.6000;0.0871;-0.7988;
72.9000;0.0887;-0.7855;
73.2000;0.1034;-0.7435;
73.5000;0.0895;-0.7745;
73.8000;0.0887;-0.7900;
74.1000;0.0871;-0.7944;
74.4000;0.0920;-0.7767;
74.7000;0.0895;-0.7723;
75.0000;0.0879;-0.7767;
75.3000;0.0871;-0.7922;
75.6000;0.0904;-0.7922;
75.9000;0.0904;-0.7878;
76.2000;0.0895;-0.7811;
76.5000;0.0895;-0.7833;
76.8000;0.0847;-0.7878;
77.1000;0.0912;-0.7811;
77.4000;0.0936;-0.7723;
77.7000;0.0887;-0.7811;
78.0000;0.0887;-0.7767;
78.3000;0.0887;-0.7811;
78.6000;0.0904;-0.7789;
78.9000;0.0879;-0.7855;
79.2000;0.0863;-0.7944;
79.5000;0.0879;-0.7900;
79.8000;0.0961;-0.7701;
80.1000;0.0887;-0.7811;
80.4000;0.0871;-0.7855;
80.7000;0.0904;-0.7789;
81.0000;0.0887;-0.7767;
81.3000;0.0887;-0.7723;
81.6000;0.0863;-0.7723;
81.9000;0.0912;-0.7678;
82.2000;0.0904;-0.7656;
82.5000;0.0895;-0.7723;
82.8000;0.0887;-0.7811;
83.1000;0.0879;-0.7789;
83.4000;0.0887;-0.7789;
83.7000;0.0895;-0.7767;
84.0000;0.0895;-0.7723;
84.3000;0.0887;-0.7789;
84.6000;0.0912;-0.7767;
84.9000;0.0871;-0.7878;
85.2000;0.0895;-0.7878;
85.5000;0.0895;-0.7878;
85.8000;0.0904;-0.7878;
86.1000;0.0904;-0.7900;
86.4000;0.0871;-0.7944;
86.7000;0.0798;-0.8055;
87.0000;0.0879;-0.7811;
87.3000;0.0895;-0.7789;
87.6000;0.0936;-0.7833;
87.9000;0.0855;-0.8033;
88.2000;0.0887;-0.8010;
88.5000;0.0847;-0.8210;
88.8000;0.0912;-0.8099;
89.1000;0.0887;-0.8121;
89.4000;0.0912;-0.8010;
89.7000;0.0895;-0.8010;
90.0000;0.0879;-0.7966;
90.3000;0.0912;-0.7966;
90.6000;0.0879;-0.7900;
90.9000;0.0887;-0.7878;
91.2000;0.0920;-0.7811;
91.5000;0.0895;-0.7878;
91.8000;0.0993;-0.7634;
92.1000;0.0912;-0.7789;
92.4000;0.0928;-0.7723;
92.7000;0.0895;-0.7811;
93.0000;0.0895;-0.7855;
93.3000;0.0904;-0.7833;
93.6000;0.0912;-0.7855;
93.9000;0.0895;-0.7878;
94.2000;0.0887;-0.7811;
94.5000;0.0887;-0.7767;
94.8000;0.0895;-0.7833;
95.1000;0.0871;-0.7878;
95.4000;0.0887;-0.7922;
95.7000;0.0871;-0.7855;
96.0000;0.0904;-0.7833;
96.3000;0.0904;-0.7811;
96.6000;0.0928;-0.7767;
96.9000;0.0887;-0.7855;
97.2000;0.0895;-0.7878;
97.5000;0.0920;-0.7789;
97.8000;0.0895;-0.7900;
98.1000;0.0895;-0.7988;
98.4000;0.0887;-0.8033;
98.7000;0.0879;-0.8077;
99.0000;0.0904;-0.7988;
99.3000;0.0879;-0.8010;
99.6000;0.0863;-0.8033;
99.9000;0.0920;-0.7900;
100.2000;0.0904;-0.7833;
100.5000;0.0863;-0.7878;
100.8000;0.0879;-0.7745;
101.1000;0.0895;-0.7745;
101.4000;0.0985;-0.7612;
101.7000;0.0904;-0.7855;
102.0000;0.0904;-0.7811;
102.3000;0.0895;-0.7811;
102.6000;0.0887;-0.7855;
102.9000;0.0895;-0.7900;
103.2000;0.0879;-0.7944;
103.5000;0.0904;-0.7878;
103.8000;0.0920;-0.7811;
104.1000;0.0904;-0.7833;
104.4000;0.0904;-0.7811;
104.7000;0.0920;-0.7833;
105.0000;0.0887;-0.7988;
105.3000;0.0879;-0.8055;
105.6000;0.0855;-0.8187;
105.9000;0.0895;-0.8077;
106.2000;0.0920;-0.7988;
106.5000;0.0887;-0.7966;
106.8000;0.0895;-0.7922;
107.1000;0.0871;-0.7878;
107.4000;0.0895;-0.7833;
107.7000;0.0904;-0.7833;
108.0000;0.0887;-0.7900;
108.3000;0.0895;-0.7900;
108.6000;0.0895;-0.7922;
108.9000;0.0887;-0.7922;
109.2000;0.0895;-0.7900;
109.5000;0.0879;-0.7988;
109.8000;0.0920;-0.7944;
110.1000;0.0895;-0.7966;
110.4000;0.0887;-0.8010;
110.7000;0.0985;-0.7789;
111.0000;0.0895;-0.7944;
111.3000;0.0904;-0.7922;
111.6000;0.1001;-0.7678;
111.9000;0.0912;-0.7855;
112.2000;0.0904;-0.7900;
112.5000;0.0928;-0.7789;
112.8000;0.0904;-0.7922;
113.1000;0.0895;-0.7922;
113.4000;0.0822;-0.8143;
113.7000;0.0887;-0.7944;
114.0000;0.0895;-0.7900;
114.3000;0.0895;-0.7900;
114.6000;0.0871;-0.7966;
114.9000;0.0904;-0.7922;
115.2000;0.0895;-0.7966;
115.5000;0.0912;-0.7922;
115.8000;0.0904;-0.7966;
116.1000;0.0912;-0.7966;
116.4000;0.0879;-0.8143;
116.7000;0.0895;-0.8143;
117.0000;0.0904;-0.8254;
117.3000;0.0847;-0.8320;
117.6000;0.0969;-0.7966;
117.9000;0.0904;-0.8143;
118.2000;0.0879;-0.8165;
118.5000;0.0895;-0.8187;
118.8000;0.0879;-0.8210;
119.1000;0.0904;-0.8254;
119.4000;0.0912;-0.8276;
119.7000;0.0871;-0.8232;
120.0000;0.0887;-0.8210;
120.3000;0.0920;-0.8143;
120.6000;0.0887;-0.8121;
120.9000;0.0887;-0.8077;
121.2000;0.0863;-0.8121;
121.5000;0.0879;-0.7988;
121.8000;0.0904;-0.7944;
122.1000;0.0871;-0.8033;
122.4000;0.0912;-0.7966;
122.7000;0.0863;-0.8121;
123.0000;0.0887;-0.8010;
123.3000;0.0887;-0.7966;
123.6000;0.0904;-0.7966;
123.9000;0.0895;-0.7944;
124.2000;0.0895;-0.7922;
124.5000;0.0863;-0.8055;
124.8000;0.0871;-0.7988;
125.1000;0.0887;-0.8055;
125.4000;0.0863;-0.8077;
125.7000;0.0814;-0.8121;
126.0000;0.0887;-0.7966;
126.3000;0.0912;-0.7833;
126.6000;0.0920;-0.7833;
126.9000;0.0830;-0.8055;
127.2000;0.1001;-0.7612;
127.5000;0.0879;-0.7944;
127.8000;0.1009;-0.7568;
128.1000;0.0887;-0.7833;
128.4000;0.0895;-0.7789;
128.7000;0.0944;-0.7678;
129.0000;0.0944;-0.7612;
129.3000;0.0904;-0.7767;
129.6000;0.0904;-0.7811;
129.9000;0.0895;-0.7878;
130.2000;0.0895;-0.7811;
130.5000;0.0895;-0.7878;
130.8000;0.0871;-0.7988;
131.1000;0.0887;-0.8010;
131.4000;0.0904;-0.7944;
131.7000;0.0895;-0.7966;
132.0000;0.0855;-0.8077;
132.3000;0.0879;-0.7966;
132.6000;0.0928;-0.7855;
132.9000;0.0895;-0.7922;
133.2000;0.0895;-0.7855;
133.5000;0.0871;-0.7855;
133.8000;0.0887;-0.7922;
134.1000;0.0920;-0.7833;
134.4000;0.0895;-0.7878;
134.7000;0.0928;-0.7789;
135.0000;0.0904;-0.7833;
135.3000;0.0887;-0.7878;
135.6000;0.0863;-0.7944;
135.9000;0.0895;-0.7833;
136.2000;0.0928;-0.7811;
136.5000;0.0904;-0.7966;
136.8000;0.0904;-0.7944;
137.1000;0.0855;-0.8077;
137.4000;0.0912;-0.7878;
137.7000;0.0904;-0.7944;
138.0000;0.1001;-0.7701;
138.3000;0.0895;-0.7966;
138.6000;0.0920;-0.7900;
138.9000;0.0887;-0.7966;
139.2000;0.0904;-0.7944;
139.5000;0.0895;-0.7944;
139.8000;0.0879;-0.8055;
140.1000;0.0871;-0.8121;
140.4000;0.0895;-0.8055;
140.7000;0.0904;-0.8033;
141.0000;0.0887;-0.7922;
141.3000;0.0871;-0.7988;
141.6000;0.0895;-0.7988;
141.9000;0.0871;-0.8099;
142.2000;0.0904;-0.7988;
142.5000;0.0904;-0.7966;
142.8000;0.0920;-0.7988;
143.1000;0.0895;-0.8143;
143.4000;0.0847;-0.8232;
143.7000;0.0961;-0.8010;
144.0000;0.0904;-0.8210;
144.3000;0.0977;-0.7922;
144.6000;0.0928;-0.7966;
144.9000;0.0993;-0.7833;
145.2000;0.1009;-0.7878;
145.5000;0.0920;-0.8055;
145.8000;0.0928;-0.8010;
146.1000;0.0887;-0.8033;
146.4000;0.0887;-0.8099;
146.7000;0.0895;-0.8099;
147.0000;0.0904;-0.8077;
147.3000;0.0928;-0.7944;
147.6000;0.0936;-0.7855;
147.9000;0.0904;-0.7922;
148.2000;0.0887;-0.7922;
148.5000;0.0912;-0.7944;
148.8000;0.0838;-0.8055;
149.1000;0.0912;-0.7900;
149.4000;0.0961;-0.7833;
149.7000;0.0904;-0.7922;
150.0000;0.0904;-0.7944;
150.3000;0.0879;-0.8010;
150.6000;0.0887;-0.8099;
150.9000;0.0871;-0.8232;
151.2000;0.0838;-0.8342;
151.5000;0.0895;-0.8099;
151.8000;0.0904;-0.8077;
152.1000;0.0895;-0.8121;
152.4000;0.0904;-0.8055;
152.7000;0.0863;-0.8099;
153.0000;0.0920;-0.7900;
153.3000;0.0928;-0.7966;
153.6000;0.0871;-0.8099;
153.9000;0.0912;-0.7988;
154.2000;0.0887;-0.8077;
154.5000;0.0879;-0.8010;
154.8000;0.0920;-0.7900;
155.1000;0.0895;-0.7966;
155.4000;0.0928;-0.7988;
155.7000;0.0944;-0.7855;
156.0000;0.0904;-0.8010;
156.3000;0.0904;-0.7944;
156.6000;0.0912;-0.7922;
156.9000;0.0904;-0.7988;
157.2000;0.0904;-0.7966;
157.5000;0.0944;-0.7944;
157.8000;0.0879;-0.8121;
158.1000;0.0904;-0.8055;
158.4000;0.0912;-0.7966;
158.7000;0.0904;-0.8033;
159.0000;0.0912;-0.8143;
159.3000;0.0887;-0.8165;
159.6000;0.0887;-0.8187;
159.9000;0.0928;-0.8121;
160.2000;0.0904;-0.8210;
160.5000;0.0904;-0.8254;
160.8000;0.0928;-0.8210;
161.1000;0.0920;-0.8232;
161.4000;0.0936;-0.8077;
161.7000;0.0936;-0.7966;
162.0000;0.0879;-0.7988;
162.3000;0.0904;-0.7966;
162.6000;0.0879;-0.8077;
162.9000;0.0904;-0.8099;
163.2000;0.0928;-0.8077;
163.5000;0.0904;-0.8187;
163.8000;0.0920;-0.8210;
164.1000;0.0895;-0.8165;
164.4000;0.0920;-0.8077;
164.7000;0.0904;-0.8099;
165.0000;0.0904;-0.8077;
165.3000;0.0887;-0.8033;
165.6000;0.0904;-0.8077;
165.9000;0.0969;-0.7855;
166.2000;0.0895;-0.8143;
166.5000;0.0920;-0.8033;
166.8000;0.0814;-0.8342;
167.1000;0.0904;-0.8121;
167.4000;0.0887;-0.8143;
167.7000;0.0895;-0.8121;
168.0000;0.0887;-0.8165;
168.3000;0.0895;-0.8121;
168.6000;0.0936;-0.7900;
168.9000;0.0952;-0.7855;
169.2000;0.0863;-0.8099;
169.5000;0.0912;-0.7988;
169.8000;0.0879;-0.8099;
170.1000;0.0928;-0.8033;
170.4000;0.0961;-0.7944;
170.7000;0.0912;-0.7966;
171.0000;0.0895;-0.8055;
171.3000;0.0952;-0.7988;
171.6000;0.0961;-0.7944;
171.9000;0.0969;-0.7922;
172.2000;0.0928;-0.7966;
172.5000;0.0879;-0.8055;
172.8000;0.0895;-0.8033;
173.1000;0.0904;-0.8033;
173.4000;0.0977;-0.7855;
173.7000;0.0952;-0.7855;
174.0000;0.0912;-0.7900;
174.3000;0.0936;-0.7833;
174.6000;0.0895;-0.7922;
174.9000;0.0871;-0.7944;
175.2000;0.0928;-0.7855;
175.5000;0.0936;-0.7855;
175.8000;0.0887;-0.7988;
176.1000;0.0928;-0.7833;
176.4000;0.0912;-0.7878;
176.7000;0.0920;-0.7900;
177.0000;0.0928;-0.7944;
177.3000;0.0912;-0.7922;
177.6000;0.0920;-0.7878;
177.9000;0.0920;-0.7855;
178.2000;0.0887;-0.7988;
178.5000;0.0895;-0.7988;
178.8000;0.0887;-0.7900;
179.1000;0.0904;-0.7811;
179.4000;0.0887;-0.7833;
179.7000;0.0790;-0.8143;
180.0000;0.0928;-0.7833;
180.3000;0.0895;-0.7922;
180.6000;0.0912;-0.7944;
180.9000;0.0912;-0.7855;
181.2000;0.0912;-0.7878;
181.5000;0.0912;-0.7855;
181.8000;0.0912;-0.7833;
182.1000;0.0904;-0.7855;
182.4000;0.0928;-0.7767;
182.7000;0.0879;-0.7833;
183.0000;0.0920;-0.7678;
183.3000;0.0920;-0.7656;
183.6000;0.0928;-0.7678;
183.9000;0.0928;-0.7656;
184.2000;0.0944;-0.7612;
184.5000;0.0895;-0.7723;
184.8000;0.0879;-0.7767;
185.1000;0.0912;-0.7701;
185.4000;0.0904;-0.7678;
185.7000;0.0887;-0.7701;
186.0000;0.0904;-0.7723;
186.3000;0.0855;-0.7966;
186.6000;0.0887;-0.7833;
186.9000;0.0912;-0.7723;
187.2000;0.0895;-0.7833;
187.5000;0.0920;-0.7833;
187.8000;0.0920;-0.7922;
188.1000;0.0863;-0.8143;
188.4000;0.0879;-0.8099;
188.7000;0.0879;-0.8033;
189.0000;0.0773;-0.8232;
189.3000;0.0887;-0.7922;
189.6000;0.0912;-0.7878;
189.9000;0.0879;-0.7855;
190.2000;0.0904;-0.7833;
190.5000;0.0912;-0.7767;
190.8000;0.0904;-0.7745;
191.1000;0.0904;-0.7767;
191.4000;0.0912;-0.7855;
191.7000;0.0928;-0.7833;
192.0000;0.0895;-0.7944;
192.3000;0.0961;-0.7811;
192.6000;0.0790;-0.8232;
192.9000;0.0895;-0.8033;
193.2000;0.0912;-0.7922;
193.5000;0.0871;-0.8077;
193.8000;0.0920;-0.8010;
194.1000;0.0895;-0.7944;
194.4000;0.0822;-0.8077;
194.7000;0.0895;-0.7855;
195.0000;0.0904;-0.7900;
195.3000;0.0920;-0.7833;
195.6000;0.0814;-0.8033;
195.9000;0.0895;-0.7878;
196.2000;0.0920;-0.7878;
196.5000;0.0887;-0.7900;
196.8000;0.0887;-0.7900;
197.1000;0.0887;-0.7922;
197.4000;0.0895;-0.7922;
197.7000;0.0887;-0.7966;
198.0000;0.0904;-0.7988;
198.3000;0.0887;-0.7966;
198.6000;0.0879;-0.8033;
198.9000;0.0895;-0.7944;
199.2000;0.0887;-0.7855;
199.5000;0.0895;-0.7745;
199.8000;0.0904;-0.7745;
200.1000;0.0920;-0.7855;
200.4000;0.0944;-0.7767;
200.7000;0.0871;-0.7944;
201.0000;0.0887;-0.7944;
201.3000;0.0912;-0.7900;
201.6000;0.0928;-0.7833;
201.9000;0.0912;-0.7900;
202.2000;0.0904;-0.7922;
202.5000;0.0936;-0.7811;
202.8000;0.0879;-0.7878;
203.1000;0.0904;-0.7878;
203.4000;0.0895;-0.7922;
203.7000;0.0928;-0.7833;
204.0000;0.0904;-0.7878;
204.3000;0.0920;-0.7900;
204.6000;0.0912;-0.7855;
204.9000;0.0895;-0.7878;
205.2000;0.0887;-0.7878;
205.5000;0.0904;-0.7900;
205.8000;0.0895;-0.7944;
206.1000;0.0895;-0.7833;
206.4000;0.0904;-0.7811;
206.7000;0.0847;-0.7966;
207.0000;0.0904;-0.7944;
207.3000;0.0977;-0.7745;
207.6000;0.0887;-0.7966;
207.9000;0.0895;-0.8010;
208.2000;0.0847;-0.8055;
208.5000;0.0904;-0.7900;
208.8000;0.0895;-0.7900;
209.1000;0.0863;-0.7988;
209.4000;0.0912;-0.7855;
209.7000;0.0904;-0.7878;
210.0000;0.0895;-0.7833;
210.3000;0.0838;-0.7966;
210.6000;0.0904;-0.7811;
210.9000;0.0920;-0.7833;
211.2000;0.0895;-0.7811;
211.5000;0.0928;-0.7811;
211.8000;0.0969;-0.7745;
212.1000;0.0904;-0.7988;
212.4000;0.0887;-0.8099;
212.7000;0.0879;-0.8055;
213.0000;0.0895;-0.7966;
213.3000;0.0928;-0.7922;
213.6000;0.0969;-0.7878;
213.9000;0.0879;-0.8099;
214.2000;0.0904;-0.8055;
214.5000;0.0904;-0.8033;
214.8000;0.0887;-0.8055;
215.1000;0.0912;-0.8055;
215.4000;0.0920;-0.8010;
215.7000;0.0887;-0.8033;
216.0000;0.0895;-0.7988;
216.3000;0.0904;-0.7922;
216.6000;0.0912;-0.7966;
216.9000;0.0879;-0.7944;
217.2000;0.0887;-0.7944;
217.5000;0.0895;-0.7922;
217.8000;0.0855;-0.8143;
218.1000;0.0871;-0.8099;
218.4000;0.0904;-0.8033;
218.7000;0.0920;-0.8033;
219.0000;0.0879;-0.8143;
219.3000;0.0904;-0.8143;
219.6000;0.0895;-0.8143;
219.9000;0.0887;-0.8033;
220.2000;0.0879;-0.8055;
220.5000;0.0920;-0.7944;
220.8000;0.0822;-0.8099;
221.1000;0.0895;-0.7878;
221.4000;0.0757;-0.8210;
221.7000;0.0969;-0.7701;
222.0000;0.0895;-0.7944;
222.3000;0.0879;-0.8010;
222.6000;0.0912;-0.7944;
222.9000;0.0904;-0.8033;
223.2000;0.0936;-0.7944;
223.5000;0.0887;-0.8077;
223.8000;0.0887;-0.8077;
224.1000;0.0904;-0.8033;
224.4000;0.0993;-0.7811;
224.7000;0.0904;-0.8010;
225.0000;0.0904;-0.7878;
225.3000;0.0838;-0.8033;
225.6000;0.0895;-0.7966;
225.9000;0.0912;-0.7966;
226.2000;0.0879;-0.8010;
226.5000;0.0936;-0.7745;
226.8000;0.0904;-0.7855;
227.1000;0.0895;-0.7767;
227.4000;0.0920;-0.7811;
227.7000;0.0928;-0.7878;
228.0000;0.0920;-0.7833;
228.3000;0.0912;-0.7900;
228.6000;0.0895;-0.8077;
228.9000;0.0887;-0.8165;
229.2000;0.0936;-0.8121;
229.5000;0.0904;-0.8099;
229.8000;0.0904;-0.8033;
230.1000;0.0879;-0.8143;
230.4000;0.0920;-0.8143;
230.7000;0.0928;-0.8099;
231.0000;0.0912;-0.8232;
231.3000;0.0895;-0.8254;
231.6000;0.0879;-0.8232;
231.9000;0.0887;-0.8276;
232.2000;0.0936;-0.8121;
232.5000;0.0863;-0.8232;
232.8000;0.0887;-0.8121;
233.1000;0.0904;-0.8121;
233.4000;0.0928;-0.8033;
233.7000;0.0904;-0.7966;
234.0000;0.0936;-0.7966;
234.3000;0.0798;-0.8298;
234.6000;0.0912;-0.8033;
234.9000;0.0879;-0.8077;
235.2000;0.0895;-0.8077;
235.5000;0.0904;-0.8099;
235.8000;0.0895;-0.8033;
236.1000;0.0895;-0.8077;
236.4000;0.0887;-0.8121;
236.7000;0.0879;-0.8121;
237.0000;0.0928;-0.8033;
237.3000;0.0977;-0.7855;
237.6000;0.0912;-0.8077;
237.9000;0.0895;-0.8077;
238.2000;0.0936;-0.7988;
238.5000;0.0904;-0.8077;
238.8000;0.0936;-0.7944;
239.1000;0.0887;-0.8055;
239.4000;0.0912;-0.7944;
239.7000;0.0920;-0.7922;
240.0000;0.0912;-0.7922;
240.3000;0.1001;-0.7612;
240.6000;0.0871;-0.7878;
240.9000;0.0936;-0.7723;
241.2000;0.1009;-0.7524;
241.5000;0.0871;-0.7767;
241.8000;0.0830;-0.7944;
242.1000;0.0879;-0.7811;
242.4000;0.0912;-0.7678;
242.7000;0.0928;-0.7723;
243.0000;0.0895;-0.7833;
243.3000;0.0863;-0.7988;
243.6000;0.0904;-0.7922;
243.9000;0.0781;-0.8099;
244.2000;0.0822;-0.7988;
244.5000;0.0847;-0.7944;
244.8000;0.0822;-0.8055;
245.1000;0.0944;-0.7678;
245.4000;0.0977;-0.7634;
245.7000;0.0920;-0.7811;
246.0000;0.0904;-0.7922;
246.3000;0.0830;-0.8099;
246.6000;0.0904;-0.7922;
246.9000;0.0904;-0.7922;
247.2000;0.0887;-0.7988;
247.5000;0.0895;-0.7900;
247.8000;0.0912;-0.7833;
248.1000;0.0920;-0.7833;
248.4000;0.0895;-0.7789;
248.7000;0.0871;-0.7855;
249.0000;0.0887;-0.7855;
249.3000;0.0904;-0.7878;
249.6000;0.0830;-0.8055;
249.9000;0.0912;-0.7922;
250.2000;0.0814;-0.8210;
250.5000;0.1034;-0.7634;
250.8000;0.0912;-0.7944;
251.1000;0.0895;-0.7966;
251.4000;0.0920;-0.7922;
251.7000;0.0879;-0.7966;
252.0000;0.0912;-0.7922;
252.3000;0.0920;-0.7922;
252.6000;0.0904;-0.7922;
252.9000;0.0904;-0.7944;
253.2000;0.0895;-0.7966;
253.5000;0.0904;-0.7966;
253.8000;0.0895;-0.7878;
254.1000;0.0904;-0.7878;
254.4000;0.0895;-0.7944;
254.7000;0.0895;-0.7966;
255.0000;0.0887;-0.7988;
255.3000;0.0895;-0.8010;
255.6000;0.0895;-0.7966;
255.9000;0.0895;-0.7900;
256.2000;0.0887;-0.7922;
256.5000;0.0895;-0.7944;
256.8000;0.0920;-0.7966;
257.1000;0.0895;-0.7988;
257.4000;0.0920;-0.7789;
257.7000;0.1058;-0.7435;
258.0000;0.0879;-0.7966;
258.3000;0.0895;-0.7966;
258.6000;0.0879;-0.7944;
258.9000;0.0847;-0.8010;
259.2000;0.0879;-0.7988;
259.5000;0.0887;-0.7966;
259.8000;0.0904;-0.7900;
260.1000;0.0879;-0.7878;
260.4000;0.0871;-0.7855;
260.7000;0.0879;-0.7855;
261.0000;0.0928;-0.7745;
261.3000;0.0936;-0.7745;
261.6000;0.0920;-0.7789;
261.9000;0.0887;-0.7767;
262.2000;0.0920;-0.7678;
262.5000;0.0928;-0.7678;
262.8000;0.0895;-0.7833;
263.1000;0.0904;-0.7767;
263.4000;0.0928;-0.7811;
263.7000;0.0895;-0.7878;
264.0000;0.0887;-0.7944;
264.3000;0.0928;-0.7878;
264.6000;0.0912;-0.7922;
264.9000;0.0871;-0.8010;
265.2000;0.0920;-0.7878;
265.5000;0.0847;-0.7966;
265.8000;0.0895;-0.7855;
266.1000;0.0879;-0.7767;
266.4000;0.0887;-0.7789;
266.7000;0.0904;-0.7723;
267.0000;0.0895;-0.7745;
267.3000;0.0871;-0.7723;
267.6000;0.0928;-0.7612;
267.9000;0.0928;-0.7634;
268.2000;0.0904;-0.7723;
268.5000;0.0871;-0.7789;
268.8000;0.0895;-0.7767;
269.1000;0.0838;-0.7944;
269.4000;0.0871;-0.7855;
269.7000;0.0895;-0.7833;
270.0000;0.0879;-0.7878;
270.3000;0.0887;-0.7878;
270.6000;0.0920;-0.7701;
270.9000;0.0904;-0.7678;
271.2000;0.0920;-0.7723;
271.5000;0.0904;-0.7789;
271.8000;0.0895;-0.7723;
272.1000;0.0871;-0.7701;
272.4000;0.0912;-0.7634;
272.7000;0.0904;-0.7656;
273.0000;0.0871;-0.7745;
273.3000;0.0912;-0.7612;
273.6000;0.0830;-0.7878;
273.9000;0.0904;-0.7745;
274.2000;0.0895;-0.7767;
274.5000;0.0912;-0.7723;
274.8000;0.0887;-0.7767;
275.1000;0.0920;-0.7767;
275.4000;0.0928;-0.7767;
275.7000;0.0855;-0.7944;
276.0000;0.0912;-0.7833;
276.3000;0.0912;-0.7789;
276.6000;0.0904;-0.7767;
276.9000;0.0912;-0.7745;
277.2000;0.0920;-0.7745;
277.5000;0.0822;-0.7944;
277.8000;0.0879;-0.7811;
278.1000;0.0879;-0.7789;
278.4000;0.0887;-0.7878;
278.7000;0.0887;-0.7922;
279.0000;0.0887;-0.7878;
279.3000;0.0912;-0.7811;
279.6000;0.0879;-0.7878;
279.9000;0.0920;-0.7767;
280.2000;0.0895;-0.7944;
280.5000;0.0904;-0.7900;
280.8000;0.1083;-0.7501;
281.1000;0.0895;-0.7944;
281.4000;0.0895;-0.7855;
281.7000;0.0879;-0.7900;
282.0000;0.0895;-0.7900;
282.3000;0.0887;-0.7900;
282.6000;0.0871;-0.7988;
282.9000;0.0944;-0.7811;
283.2000;0.0895;-0.7900;
283.5000;0.0887;-0.7855;
283.8000;0.0871;-0.7855;
284.1000;0.0977;-0.7634;
284.4000;0.0904;-0.7878;
284.7000;0.0887;-0.7878;
285.0000;0.0904;-0.7833;
285.3000;0.0904;-0.7878;
285.6000;0.0920;-0.7833;
285.9000;0.0936;-0.7944;
286.2000;0.0887;-0.8077;
286.5000;0.0871;-0.8077;
286.8000;0.0887;-0.8077;
287.1000;0.0879;-0.8143;
287.4000;0.0936;-0.7966;
287.7000;0.0904;-0.8010;
288.0000;0.0887;-0.8033;
288.3000;0.0887;-0.8033;
288.6000;0.0895;-0.8055;
288.9000;0.0887;-0.8033;
289.2000;0.0904;-0.7944;
289.5000;0.0904;-0.7855;
289.8000;0.0879;-0.7944;
290.1000;0.0887;-0.7966;
290.4000;0.0944;-0.7789;
290.7000;0.0871;-0.7966;
291.0000;0.0895;-0.8010;
291.3000;0.0871;-0.8055;
291.6000;0.0895;-0.7988;
291.9000;0.0895;-0.7988;
292.2000;0.0928;-0.7922;
292.5000;0.0814;-0.8320;
292.8000;0.0904;-0.8099;
293.1000;0.0895;-0.8010;
293.4000;0.0912;-0.7900;
293.7000;0.0904;-0.7878;
294.0000;0.0887;-0.7833;
294.3000;0.0904;-0.7811;
294.6000;0.0904;-0.7833;
294.9000;0.0879;-0.7789;
295.2000;0.0879;-0.7767;
295.5000;0.0887;-0.7922;
295.8000;0.0887;-0.7966;
296.1000;0.0936;-0.7789;
296.4000;0.0887;-0.7855;
296.7000;0.0887;-0.7900;
297.0000;0.0895;-0.7833;
297.3000;0.0863;-0.7855;
297.6000;0.0912;-0.7767;
297.9000;0.0895;-0.7878;
298.2000;0.0912;-0.7855;
298.5000;0.0904;-0.7855;
298.8000;0.0920;-0.7789;
299.1000;0.0879;-0.7878;
299.4000;0.0895;-0.7878;
299.7000;0.0847;-0.7988;
300.0000;0.0887;-0.7833;
300.3000;0.0879;-0.7789;
300.6000;0.0928;-0.7723;
300.9000;0.0895;-0.7811;
301.2000;0.0879;-0.7833;
301.5000;0.0895;-0.7833;
301.8000;0.0887;-0.7811;
302.1000;0.0847;-0.7966;
302.4000;0.0912;-0.7878;
302.7000;0.0887;-0.7922;
303.0000;0.0895;-0.7878;
303.3000;0.0895;-0.8010;
303.6000;0.0912;-0.7878;
303.9000;0.0855;-0.7922;
304.2000;0.0912;-0.7878;
304.5000;0.0895;-0.7878;
304.8000;0.0887;-0.8033;
305.1000;0.0879;-0.8143;
305.4000;0.0904;-0.8077;
305.7000;0.0863;-0.8077;
306.0000;0.0798;-0.8165;
306.3000;0.0838;-0.8165;
306.6000;0.0871;-0.8033;
306.9000;0.0904;-0.7966;
307.2000;0.0920;-0.8033;
307.5000;0.0895;-0.7988;
307.8000;0.0879;-0.8121;
308.1000;0.0904;-0.8033;
308.4000;0.0920;-0.7922;
308.7000;0.0895;-0.7944;
309.0000;0.0830;-0.8298;
309.3000;0.0895;-0.8165;
309.6000;0.0928;-0.8033;
309.9000;0.0904;-0.8077;
310.2000;0.0871;-0.8033;
310.5000;0.0887;-0.7966;
310.8000;0.0920;-0.7944;
311.1000;0.0912;-0.7878;
311.4000;0.0912;-0.7789;
311.7000;0.0920;-0.7745;
312.0000;0.0895;-0.7811;
312.3000;0.0912;-0.7745;
312.6000;0.0887;-0.7944;
312.9000;0.0847;-0.8033;
313.2000;0.0895;-0.7878;
313.5000;0.0895;-0.7878;
313.8000;0.0887;-0.7900;
314.1000;0.0871;-0.7900;
314.4000;0.0993;-0.7656;
314.7000;0.0912;-0.7878;
315.0000;0.0871;-0.7922;
315.3000;0.0871;-0.7988;
315.6000;0.0895;-0.8010;
315.9000;0.0871;-0.8010;
316.2000;0.0855;-0.8099;
316.5000;0.0871;-0.8055;
316.8000;0.0904;-0.7922;
317.1000;0.0895;-0.7878;
317.4000;0.0920;-0.7900;
317.7000;0.0887;-0.7966;
318.0000;0.0895;-0.7944;
318.3000;0.0904;-0.7944;
318.6000;0.0879;-0.8033;
318.9000;0.0879;-0.8033;
319.2000;0.0887;-0.7944;
319.5000;0.0806;-0.8165;
319.8000;0.0879;-0.7855;
320.1000;0.0887;-0.7878;
320.4000;0.0920;-0.7878;
320.7000;0.0904;-0.7878;
321.0000;0.0904;-0.7900;
321.3000;0.0895;-0.7944;
321.6000;0.0863;-0.7988;
321.9000;0.0920;-0.7767;
322.2000;0.0920;-0.7723;
322.5000;0.0912;-0.7811;
322.8000;0.0887;-0.7878;
323.1000;0.0887;-0.7855;
323.4000;0.0887;-0.7767;
323.7000;0.0847;-0.7855;
324.0000;0.0879;-0.7878;
324.3000;0.0887;-0.7900;
324.6000;0.0790;-0.8210;
324.9000;0.0904;-0.7922;
325.2000;0.0887;-0.7944;
325.5000;0.0855;-0.8055;
325.8000;0.0887;-0.8010;
326.1000;0.0879;-0.8033;
326.4000;0.0887;-0.8010;
326.7000;0.0895;-0.7966;
327.0000;0.0895;-0.8033;
327.3000;0.0895;-0.7988;
327.6000;0.0912;-0.7988;
327.9000;0.0830;-0.8121;
328.2000;0.0895;-0.8010;
328.5000;0.0895;-0.7966;
328.8000;0.0920;-0.7944;
329.1000;0.0895;-0.8010;
329.4000;0.0830;-0.8210;
329.7000;0.0904;-0.7944;
330.0000;0.0887;-0.8010;
330.3000;0.0887;-0.8010;
330.6000;0.0895;-0.7900;
330.9000;0.0904;-0.7900;
331.2000;0.0912;-0.7878;
331.5000;0.0904;-0.7833;
331.8000;0.0871;-0.7811;
332.1000;0.0895;-0.7789;
332.4000;0.0871;-0.7878;
332.7000;0.0887;-0.7789;
333.0000;0.0887;-0.7811;
333.3000;0.0887;-0.7855;
333.6000;0.0904;-0.7833;
333.9000;0.0895;-0.7944;
334.2000;0.0879;-0.8033;
334.5000;0.0952;-0.7944;
334.8000;0.0936;-0.8033;
335.1000;0.0887;-0.8121;
335.4000;0.0798;-0.8453;
335.7000;0.1026;-0.7811;
336.0000;0.0895;-0.8165;
336.3000;0.0887;-0.8187;
336.6000;0.0928;-0.8033;
336.9000;0.0944;-0.7966;
337.2000;0.0887;-0.8099;
337.5000;0.0912;-0.7944;
337.8000;0.1009;-0.7767;
338.1000;0.0863;-0.8121;
338.4000;0.0749;-0.8342;
338.7000;0.0879;-0.8099;
339.0000;0.0904;-0.8077;
339.3000;0.0855;-0.8165;
339.6000;0.0912;-0.7988;
339.9000;0.0871;-0.8033;
340.2000;0.0863;-0.8033;
340.5000;0.1018;-0.7723;
340.8000;0.0887;-0.8010;
341.1000;0.0904;-0.7922;
341.4000;0.0879;-0.8077;
341.7000;0.0904;-0.8165;
342.0000;0.0895;-0.8254;
342.3000;0.0879;-0.8342;
342.6000;0.0863;-0.8387;
342.9000;0.0887;-0.8232;
343.2000;0.0977;-0.8055;
343.5000;0.0887;-0.8276;
343.8000;0.0904;-0.8276;
344.1000;0.0895;-0.8232;
344.4000;0.0871;-0.8210;
344.7000;0.0887;-0.8187;
345.0000;0.0887;-0.8143;
345.3000;0.0887;-0.8143;
345.6000;0.0895;-0.8210;
345.9000;0.0895;-0.8232;
346.2000;0.0904;-0.8254;
346.5000;0.0887;-0.8165;
346.8000;0.0895;-0.7988;
347.1000;0.0887;-0.7988;
347.4000;0.0863;-0.8010;
347.7000;0.0895;-0.7900;
348.0000;0.0895;-0.7878;
348.3000;0.0822;-0.8055;
348.6000;0.0904;-0.7878;
348.9000;0.0895;-0.7878;
349.2000;0.0822;-0.8143;
349.5000;0.0895;-0.7900;
349.8000;0.0871;-0.8010;
350.1000;0.0895;-0.8010;
350.4000;0.0895;-0.8077;
350.7000;0.0952;-0.7922;
351.0000;0.0895;-0.8010;
351.3000;0.0904;-0.8010;
351.6000;0.0912;-0.8055;
351.9000;0.0944;-0.7944;
352.2000;0.0904;-0.8077;
352.5000;0.0847;-0.8254;
352.8000;0.0887;-0.8187;
353.1000;0.0920;-0.8099;
353.4000;0.0904;-0.8165;
353.7000;0.0838;-0.8298;
354.0000;0.0969;-0.7966;
354.3000;0.0863;-0.8165;
354.6000;0.0871;-0.8033;
354.9000;0.0895;-0.8055;
355.2000;0.0838;-0.8143;
355.5000;0.0871;-0.8055;
355.8000;0.0912;-0.7988;
356.1000;0.0887;-0.7988;
356.4000;0.0961;-0.7878;
356.7000;0.0895;-0.7922;
357.0000;0.0904;-0.7855;
357.3000;0.0895;-0.7811;
357.6000;0.0895;-0.7811;
357.9000;0.0912;-0.7833;
358.2000;0.0985;-0.7723;
358.5000;0.0887;-0.7922;
358.8000;0.0830;-0.8099;
359.1000;0.0912;-0.7944;
359.4000;0.1042;-0.7656;
359.7000;0.0952;-0.7789;
360.0000;0.0912;-0.7900;
360.3000;0.0871;-0.7988;
360.6000;0.0944;-0.7811;
360.9000;0.0912;-0.7900;
361.2000;0.0879;-0.7988;
361.5000;0.0887;-0.7988;
361.8000;0.0814;-0.8099;
362.1000;0.0887;-0.8010;
362.4000;0.0895;-0.8033;
362.7000;0.0863;-0.8143;
363.0000;0.0895;-0.8033;
363.3000;0.0912;-0.8010;
363.6000;0.0904;-0.8121;
363.9000;0.0904;-0.8143;
364.2000;0.0838;-0.8232;
364.5000;0.0887;-0.8099;
364.8000;0.0895;-0.8077;
365.1000;0.0887;-0.8010;
365.4000;0.0887;-0.8055;
365.7000;0.0904;-0.8033;
366.0000;0.0920;-0.7988;
366.3000;0.0895;-0.8055;
366.6000;0.0912;-0.7900;
366.9000;0.0904;-0.7922;
367.2000;0.0961;-0.7789;
367.5000;0.0863;-0.7944;
367.8000;0.0887;-0.7900;
368.1000;0.0895;-0.7811;
368.4000;0.0895;-0.7745;
368.7000;0.0887;-0.7789;
369.0000;0.0871;-0.7855;
369.3000;0.0895;-0.7878;
369.6000;0.0912;-0.7878;
369.9000;0.0904;-0.7900;
370.2000;0.0904;-0.7900;
370.5000;0.0871;-0.7900;
370.8000;0.0895;-0.7833;
371.1000;0.0855;-0.7966;
371.4000;0.0920;-0.7811;
371.7000;0.0887;-0.7855;
372.0000;0.0895;-0.7855;
372.3000;0.0863;-0.7944;
372.6000;0.0904;-0.7944;
372.9000;0.0887;-0.7922;
373.2000;0.0928;-0.7789;
373.5000;0.0895;-0.7878;
373.8000;0.0838;-0.8055;
374.1000;0.0895;-0.7922;
374.4000;0.0838;-0.7966;
374.7000;0.0969;-0.7745;
375.0000;0.0830;-0.8055;
375.3000;0.0895;-0.7878;
375.6000;0.0895;-0.7988;
375.9000;0.0895;-0.8077;
376.2000;0.0904;-0.8010;
376.5000;0.0879;-0.8143;
376.8000;0.0855;-0.8187;
377.1000;0.0863;-0.8121;
377.4000;0.0904;-0.8077;
377.7000;0.0912;-0.8055;
378.0000;0.0977;-0.7811;
378.3000;0.0879;-0.7988;
378.6000;0.0863;-0.8055;
378.9000;0.0912;-0.7944;
379.2000;0.0969;-0.7811;
379.5000;0.0887;-0.8010;
379.8000;0.0871;-0.8077;
380.1000;0.0904;-0.7944;
380.4000;0.0871;-0.7988;
380.7000;0.0985;-0.7723;
381.0000;0.0912;-0.7878;
381.3000;0.0912;-0.7833;
381.6000;0.0830;-0.8010;
381.9000;0.0879;-0.7900;
382.2000;0.1034;-0.7568;
382.5000;0.0961;-0.7833;
382.8000;0.0887;-0.8077;
383.1000;0.0936;-0.7944;
383.4000;0.0912;-0.8010;
383.7000;0.0879;-0.8099;
384.0000;0.0879;-0.8099;
384.3000;0.0887;-0.8033;
384.6000;0.0895;-0.7966;
384.9000;0.0879;-0.8077;
385.2000;0.0887;-0.8099;
385.5000;0.0895;-0.8143;
385.8000;0.0871;-0.8143;
386.1000;0.0895;-0.8121;
386.4000;0.0871;-0.8121;
386.7000;0.0912;-0.8055;
387.0000;0.0887;-0.8010;
387.3000;0.0912;-0.7900;
387.6000;0.0912;-0.7767;
387.9000;0.0928;-0.7723;
388.2000;0.0887;-0.7878;
388.5000;0.0912;-0.7988;
388.8000;0.0863;-0.8033;
389.1000;0.0887;-0.7944;
389.4000;0.0871;-0.8010;
389.7000;0.0928;-0.7833;
390.0000;0.0904;-0.7833;
390.3000;0.0879;-0.7900;
390.6000;0.0969;-0.7723;
390.9000;0.0928;-0.7811;
391.2000;0.0879;-0.7789;
391.5000;0.0879;-0.7833;
391.8000;0.0904;-0.7855;
392.1000;0.0920;-0.7855;
392.4000;0.0904;-0.7855;
392.7000;0.0904;-0.7833;
393.0000;0.0969;-0.7723;
393.3000;0.0904;-0.7833;
393.6000;0.0895;-0.7789;
393.9000;0.0871;-0.7855;
394.2000;0.0879;-0.7833;
394.5000;0.0920;-0.7811;
394.8000;0.0887;-0.7855;
395.1000;0.0871;-0.7833;
395.4000;0.0887;-0.7833;
395.7000;0.0936;-0.7745;
396.0000;0.0863;-0.7900;
396.3000;0.0904;-0.7789;
396.6000;0.0920;-0.7833;
396.9000;0.0871;-0.7944;
397.2000;0.0920;-0.7878;
397.5000;0.0895;-0.7922;
397.8000;0.0887;-0.7944;
398.1000;0.0904;-0.7922;
398.4000;0.0912;-0.7944;
398.7000;0.0838;-0.8143;
399.0000;0.0928;-0.7855;
399.3000;0.0822;-0.8099;
399.6000;0.0773;-0.8254;
399.9000;0.0895;-0.7855;
400.2000;0.0871;-0.7855;
400.5000;0.0879;-0.7855;
400.8000;0.0863;-0.7878;
401.1000;0.0936;-0.7745;
401.4000;0.0920;-0.7745;
401.7000;0.0879;-0.7855;
402.0000;0.0920;-0.7767;
402.3000;0.0904;-0.7900;
402.6000;0.0920;-0.7833;
402.9000;0.0879;-0.7833;
403.2000;0.0904;-0.7811;
403.5000;0.0928;-0.7745;
403.8000;0.0887;-0.7811;
404.1000;0.0912;-0.7723;
404.4000;0.0879;-0.7767;
404.7000;0.0895;-0.7745;
405.0000;0.0969;-0.7524;
405.3000;0.0879;-0.7745;
405.6000;0.0944;-0.7634;
405.9000;0.0895;-0.7745;
406.2000;0.0838;-0.7900;
406.5000;0.0904;-0.7745;
406.8000;0.0895;-0.7811;
407.1000;0.0871;-0.7855;
407.4000;0.0887;-0.7767;
407.7000;0.0871;-0.7855;
408.0000;0.0863;-0.7878;
408.3000;0.0879;-0.7811;
408.6000;0.0814;-0.7878;
408.9000;0.0887;-0.7767;
409.2000;0.0887;-0.7811;
409.5000;0.0879;-0.7833;
409.8000;0.0887;-0.7767;
410.1000;0.0904;-0.7701;
410.4000;0.0895;-0.7789;
410.7000;0.0904;-0.7878;
411.0000;0.0895;-0.7789;
411.3000;0.0920;-0.7701;
411.6000;0.0887;-0.7811;
411.9000;0.0904;-0.7833;
412.2000;0.0895;-0.7900;
412.5000;0.0895;-0.8010;
412.8000;0.0920;-0.7900;
413.1000;0.0928;-0.7900;
413.4000;0.0895;-0.7966;
413.7000;0.0904;-0.7878;
414.0000;0.0904;-0.7878;
414.3000;0.0920;-0.7966;
414.6000;0.0895;-0.8077;
414.9000;0.0895;-0.8077;
415.2000;0.0904;-0.8033;
415.5000;0.0904;-0.8033;
415.8000;0.0887;-0.8033;
416.1000;0.0904;-0.7966;
416.4000;0.0895;-0.7922;
416.7000;0.0920;-0.7878;
417.0000;0.0904;-0.7966;
417.3000;0.0895;-0.8010;
417.6000;0.0871;-0.8033;
417.9000;0.0879;-0.8055;
418.2000;0.0912;-0.7878;
418.5000;0.0944;-0.7767;
418.8000;0.0895;-0.7878;
419.1000;0.0895;-0.7855;
419.4000;0.0871;-0.7944;
419.7000;0.0904;-0.7878;
420.0000;0.0944;-0.7723;
420.3000;0.0912;-0.7745;
420.6000;0.0928;-0.7723;
420.9000;0.0895;-0.7811;
421.2000;0.0895;-0.7922;
421.5000;0.0895;-0.7922;
421.8000;0.0838;-0.8010;
422.1000;0.0895;-0.7855;
422.4000;0.0904;-0.7878;
422.7000;0.0895;-0.7900;
423.0000;0.0952;-0.7656;
423.3000;0.0895;-0.7767;
423.6000;0.0887;-0.7767;
423.9000;0.0895;-0.7789;
424.2000;0.0912;-0.7789;
424.5000;0.0887;-0.7811;
424.8000;0.1001;-0.7590;
425.1000;0.0879;-0.7811;
425.4000;0.0904;-0.7701;
425.7000;0.0879;-0.7767;
426.0000;0.0904;-0.7701;
426.3000;0.0871;-0.7723;
426.6000;0.0863;-0.7745;
426.9000;0.0887;-0.7789;
427.2000;0.0879;-0.7745;
427.5000;0.0944;-0.7634;
427.8000;0.0895;-0.7855;
428.1000;0.0887;-0.7900;
428.4000;0.0887;-0.7878;
428.7000;0.0912;-0.7855;
429.0000;0.0920;-0.7811;
429.3000;0.0895;-0.7855;
429.6000;0.0814;-0.8055;
429.9000;0.0887;-0.7855;
430.2000;0.0904;-0.7811;
430.5000;0.0798;-0.8010;
430.8000;0.0887;-0.7833;
431.1000;0.0863;-0.7900;
431.4000;0.0879;-0.7855;
431.7000;0.0879;-0.7944;
432.0000;0.0912;-0.7966;
432.3000;0.0912;-0.7988;
432.6000;0.0895;-0.7900;
432.9000;0.0895;-0.7966;
433.2000;0.0879;-0.7966;
433.5000;0.0879;-0.7966;
433.8000;0.0863;-0.8055;
434.1000;0.0904;-0.7922;
434.4000;0.0895;-0.7944;
434.7000;0.0936;-0.8033;
435.0000;0.0904;-0.8033;
435.3000;0.0887;-0.8055;
435.6000;0.0912;-0.8010;
435.9000;0.0879;-0.8033;
436.2000;0.0928;-0.7966;
436.5000;0.0895;-0.8010;
436.8000;0.0920;-0.7922;
437.1000;0.0887;-0.7900;
437.4000;0.0895;-0.7922;
437.7000;0.0952;-0.7723;
438.0000;0.0904;-0.7900;
438.3000;0.0904;-0.7855;
438.6000;0.1018;-0.7634;
438.9000;0.0887;-0.7966;
439.2000;0.0887;-0.7922;
439.5000;0.0912;-0.7900;
439.8000;0.0879;-0.7966;
440.1000;0.0879;-0.8077;
440.4000;0.0822;-0.8276;
440.7000;0.0887;-0.8077;
441.0000;0.0895;-0.8055;
441.3000;0.0904;-0.8055;
441.6000;0.0912;-0.8077;
441.9000;0.0904;-0.8099;
442.2000;0.0895;-0.8121;
442.5000;0.0887;-0.8143;
442.8000;0.0895;-0.8121;
443.1000;0.0895;-0.8165;
443.4000;0.0887;-0.8165;
443.7000;0.0895;-0.8099;
444.0000;0.0904;-0.8055;
444.3000;0.0887;-0.8077;
444.6000;0.0920;-0.8010;
444.9000;0.0814;-0.8210;
445.2000;0.0822;-0.8232;
445.5000;0.0863;-0.8165;
445.8000;0.0904;-0.8033;
446.1000;0.0904;-0.8055;
446.4000;0.0895;-0.8099;
446.7000;0.1018;-0.7723;
447.0000;0.0904;-0.7966;
447.3000;0.0871;-0.8055;
447.6000;0.0904;-0.7966;
447.9000;0.0895;-0.7966;
448.2000;0.0765;-0.8276;
448.5000;0.0887;-0.8099;
448.8000;0.0895;-0.8143;
449.1000;0.0904;-0.8099;
449.4000;0.0871;-0.8165;
449.7000;0.0912;-0.8143;
450.0000;0.0904;-0.8187;
450.3000;0.0920;-0.8165;
450.6000;0.0928;-0.8143;
450.9000;0.0887;-0.8143;
451.2000;0.0969;-0.7922;
451.5000;0.0904;-0.8077;
451.8000;0.0887;-0.7988;
452.1000;0.0920;-0.7988;
452.4000;0.0904;-0.8010;
452.7000;0.0920;-0.7944;
453.0000;0.0879;-0.8055;
453.3000;0.0887;-0.7988;
453.6000;0.0944;-0.7878;
453.9000;0.0887;-0.8055;
454.2000;0.0920;-0.7922;
454.5000;0.0838;-0.8143;
454.8000;0.0904;-0.7922;
455.1000;0.0871;-0.8010;
455.4000;0.0879;-0.8055;
455.7000;0.0887;-0.8010;
456.0000;0.0879;-0.8099;
456.3000;0.0952;-0.7833;
456.6000;0.0838;-0.8055;
456.9000;0.0928;-0.7900;
457.2000;0.0887;-0.7944;
457.5000;0.0887;-0.8077;
457.8000;0.0895;-0.7988;
458.1000;0.0904;-0.7922;
458.4000;0.0838;-0.8033;
458.7000;0.0847;-0.8010;
459.0000;0.0871;-0.8033;
459.3000;0.0871;-0.7988;
459.6000;0.0871;-0.7900;
459.9000;0.0879;-0.7878;
460.2000;0.0871;-0.7988;
460.5000;0.0895;-0.7988;
460.8000;0.0879;-0.7988;
461.1000;0.0887;-0.7922;
461.4000;0.0863;-0.8033;
461.7000;0.0895;-0.8033;
462.0000;0.0904;-0.7922;
462.3000;0.0920;-0.7922;
462.6000;0.0879;-0.8077;
462.9000;0.0887;-0.8077;
463.2000;0.0912;-0.8033;
463.5000;0.0912;-0.8033;
463.8000;0.0887;-0.8143;
464.1000;0.0871;-0.8232;
464.4000;0.0904;-0.8165;
464.7000;0.0944;-0.8033;
465.0000;0.0904;-0.8033;
465.3000;0.0887;-0.8099;
465.6000;0.0936;-0.8010;
465.9000;0.0887;-0.8077;
466.2000;0.0895;-0.7966;
466.5000;0.0879;-0.7944;
466.8000;0.0887;-0.7988;
467.1000;0.0863;-0.8010;
467.4000;0.0887;-0.7944;
467.7000;0.0773;-0.8298;
468.0000;0.0944;-0.7878;
468.3000;0.0887;-0.8077;
468.6000;0.0895;-0.8121;
468.9000;0.0887;-0.8143;
469.2000;0.0912;-0.8099;
469.5000;0.0847;-0.8187;
469.8000;0.0944;-0.7922;
470.1000;0.0912;-0.8010;
470.4000;0.0912;-0.8033;
470.7000;0.0879;-0.8077;
471.0000;0.0879;-0.8055;
471.3000;0.0920;-0.7922;
471.6000;0.0904;-0.7922;
471.9000;0.0904;-0.7922;
472.2000;0.0912;-0.7878;
472.5000;0.1001;-0.7789;
472.8000;0.0887;-0.8055;
473.1000;0.0977;-0.7855;
473.4000;0.0895;-0.8055;
473.7000;0.0912;-0.8010;
474.0000;0.0904;-0.8033;
474.3000;0.0895;-0.8033;
474.6000;0.0863;-0.7988;
474.9000;0.0887;-0.8010;
475.2000;0.0887;-0.7944;
475.5000;0.0936;-0.7789;
475.8000;0.0904;-0.7922;
476.1000;0.0912;-0.7966;
476.4000;0.0871;-0.7944;
476.7000;0.0863;-0.7833;
477.0000;0.0895;-0.7767;
477.3000;0.0895;-0.7789;
477.6000;0.0838;-0.7811;
477.9000;0.0920;-0.7678;
478.2000;0.0887;-0.7767;
478.5000;0.0920;-0.7723;
478.8000;0.0887;-0.7833;
479.1000;0.0912;-0.7855;
479.4000;0.0871;-0.7966;
479.7000;0.0912;-0.7767;
480.0000;0.0895;-0.7723;
480.3000;0.0912;-0.7723;
480.6000;0.0879;-0.7900;
480.9000;0.0904;-0.7878;
481.2000;0.0920;-0.7789;
481.5000;0.0871;-0.7922;
481.8000;0.0879;-0.7811;
482.1000;0.0895;-0.7745;
482.4000;0.0904;-0.7811;
482.7000;0.0838;-0.7988;
483.0000;0.0887;-0.7900;
483.3000;0.0871;-0.7966;
483.6000;0.1009;-0.7678;
483.9000;0.0912;-0.7789;
484.2000;0.0904;-0.7811;
484.5000;0.0904;-0.7767;
484.8000;0.0952;-0.7590;
485.1000;0.0871;-0.7745;
485.4000;0.0887;-0.7767;
485.7000;0.0806;-0.8010;
486.0000;0.0895;-0.7745;
486.3000;0.0895;-0.7678;
486.6000;0.0895;-0.7701;
486.9000;0.0855;-0.7767;
487.2000;0.0928;-0.7546;
487.5000;0.0887;-0.7612;
487.8000;0.0904;-0.7568;
488.1000;0.0887;-0.7568;
488.4000;0.0944;-0.7479;
488.7000;0.1001;-0.7435;
489.0000;0.0895;-0.7701;
489.3000;0.0920;-0.7634;
489.6000;0.0871;-0.7789;
489.9000;0.0904;-0.7767;
490.2000;0.1034;-0.7479;
490.5000;0.0920;-0.7678;
490.8000;0.0952;-0.7546;
491.1000;0.0928;-0.7590;
491.4000;0.0952;-0.7612;
491.7000;0.0961;-0.7634;
492.0000;0.0895;-0.7723;
492.3000;0.0944;-0.7634;
492.6000;0.0887;-0.7745;
492.9000;0.0920;-0.7745;
493.2000;0.0904;-0.7833;
493.5000;0.0928;-0.7833;
493.8000;0.0781;-0.8187;
494.1000;0.0887;-0.8010;
494.4000;0.0920;-0.7855;
494.7000;0.0912;-0.7878;
495.0000;0.0920;-0.7789;
495.3000;0.0887;-0.7878;
495.6000;0.0895;-0.7878;
495.9000;0.0912;-0.7855;
496.2000;0.0904;-0.7855;
496.5000;0.0904;-0.7833;
496.8000;0.0912;-0.7922;
497.1000;0.0895;-0.7966;
497.4000;0.0952;-0.7878;
497.7000;0.0895;-0.7988;
498.0000;0.0920;-0.7833;
498.3000;0.0838;-0.8033;
498.6000;0.0887;-0.7878;
498.9000;0.0887;-0.7855;
499.2000;0.0887;-0.7855;
499.5000;0.0879;-0.7767;
499.8000;0.0863;-0.7767;
500.1000;0.0863;-0.7789;
500.4000;0.0887;-0.7745;
500.7000;0.0879;-0.7745;
501.0000;0.0879;-0.7723;
501.3000;0.0895;-0.7656;
501.6000;0.0912;-0.7678;
501.9000;0.0879;-0.7745;
502.2000;0.0904;-0.7723;
502.5000;0.0879;-0.7767;
502.8000;0.0879;-0.7745;
503.1000;0.0904;-0.7656;
503.4000;0.0895;-0.7767;
503.7000;0.0871;-0.7811;
504.0000;0.0904;-0.7767;
504.3000;0.0879;-0.7789;
504.6000;0.0895;-0.7767;
504.9000;0.0895;-0.7767;
505.2000;0.0904;-0.7789;
505.5000;0.0904;-0.7789;
505.8000;0.0952;-0.7590;
506.1000;0.0871;-0.7701;
506.4000;0.0879;-0.7767;
506.7000;0.0904;-0.7701;
507.0000;0.0920;-0.7745;
507.3000;0.0855;-0.7855;
507.6000;0.0895;-0.7811;
507.9000;0.0895;-0.7789;
508.2000;0.0879;-0.7767;
508.5000;0.0887;-0.7745;
508.8000;0.0944;-0.7656;
509.1000;0.0912;-0.7678;
509.4000;0.0855;-0.7745;
509.7000;0.0952;-0.7590;
510.0000;0.0871;-0.7723;
510.3000;0.0920;-0.7701;
510.6000;0.0895;-0.7789;
510.9000;0.0879;-0.7878;
511.2000;0.0887;-0.7811;
511.5000;0.0904;-0.7723;
511.8000;0.0863;-0.7833;
512.1000;0.0887;-0.7855;
512.4000;0.0961;-0.7745;
512.7000;0.0928;-0.7833;
513.0000;0.0879;-0.7944;
513.3000;0.0895;-0.8033;
513.6000;0.0944;-0.7944;
513.9000;0.0904;-0.7988;
514.2000;0.0912;-0.7878;
514.5000;0.0895;-0.7966;
514.8000;0.0887;-0.8055;
515.1000;0.0887;-0.7966;
515.4000;0.0912;-0.7900;
515.7000;0.0920;-0.7966;
516.0000;0.0887;-0.7944;
516.3000;0.0847;-0.8033;
516.6000;0.0887;-0.7922;
516.9000;0.0904;-0.7900;
517.2000;0.0879;-0.7900;
517.5000;0.0830;-0.8055;
517.8000;0.0887;-0.7900;
518.1000;0.0895;-0.7855;
518.4000;0.0895;-0.7833;
518.7000;0.0887;-0.7878;
519.0000;0.0863;-0.7922;
519.3000;0.0920;-0.7878;
519.6000;0.0936;-0.7878;
519.9000;0.0895;-0.7944;
520.2000;0.0912;-0.7878;
520.5000;0.0879;-0.7966;
520.8000;0.0871;-0.8033;
521.1000;0.0895;-0.8010;
521.4000;0.0961;-0.7855;
521.7000;0.0895;-0.7988;
522.0000;0.0879;-0.8033;
522.3000;0.0912;-0.8055;
522.6000;0.0895;-0.8010;
522.9000;0.0904;-0.8010;
523.2000;0.0863;-0.8143;
523.5000;0.0887;-0.8099;
523.8000;0.0904;-0.8121;
524.1000;0.0871;-0.8099;
524.4000;0.0912;-0.8055;
524.7000;0.0904;-0.8099;
525.0000;0.0887;-0.8010;
525.3000;0.0895;-0.7988;
525.6000;0.0912;-0.7944;
525.9000;0.0871;-0.8099;
526.2000;0.0895;-0.8099;
526.5000;0.0944;-0.8033;
526.8000;0.0887;-0.8077;
527.1000;0.0912;-0.8055;
527.4000;0.0895;-0.8143;
527.7000;0.0904;-0.8077;
528.0000;0.0912;-0.8077;
528.3000;0.0887;-0.8165;
528.6000;0.0904;-0.8099;
528.9000;0.0879;-0.8143;
529.2000;0.0887;-0.8099;
529.5000;0.0904;-0.7966;
529.8000;0.0838;-0.8077;
530.1000;0.0855;-0.8033;
530.4000;0.0879;-0.8055;
530.7000;0.0863;-0.8121;
531.0000;0.0895;-0.8010;
531.3000;0.0871;-0.8033;
531.6000;0.0904;-0.7966;
531.9000;0.0904;-0.8010;
532.2000;0.0757;-0.8409;
532.5000;0.0944;-0.7944;
532.8000;0.0895;-0.8010;
533.1000;0.0904;-0.7966;
533.4000;0.0904;-0.7966;
533.7000;0.0912;-0.7922;
534.0000;0.0895;-0.7878;
534.3000;0.0895;-0.7988;
534.6000;0.0887;-0.8033;
534.9000;0.0879;-0.8143;
535.2000;0.0904;-0.8143;
535.5000;0.0904;-0.8077;
535.8000;0.0855;-0.8276;
536.1000;0.0895;-0.8165;
536.4000;0.0887;-0.8099;
536.7000;0.0887;-0.8077;
537.0000;0.0863;-0.8055;
537.3000;0.0871;-0.8033;
537.6000;0.0879;-0.8121;
537.9000;0.0895;-0.8121;
538.2000;0.0912;-0.8033;
538.5000;0.0822;-0.8276;
538.8000;0.0879;-0.8055;
539.1000;0.0887;-0.7944;
539.4000;0.0863;-0.7988;
539.7000;0.0887;-0.7900;
540.0000;0.0822;-0.8010;
540.3000;0.0871;-0.7900;
540.6000;0.0895;-0.7811;
540.9000;0.0904;-0.7811;
541.2000;0.0904;-0.7855;
541.5000;0.0863;-0.7988;
541.8000;0.0895;-0.7944;
542.1000;0.0904;-0.7811;
542.4000;0.0895;-0.7789;
542.7000;0.0895;-0.7767;
543.0000;0.0895;-0.7745;
543.3000;0.0822;-0.8010;
543.6000;0.0887;-0.7833;
543.9000;0.0887;-0.7767;
544.2000;0.0969;-0.7612;
544.5000;0.0887;-0.7789;
544.8000;0.0895;-0.7878;
545.1000;0.1001;-0.7590;
545.4000;0.0961;-0.7701;
545.7000;0.0920;-0.7878;
546.0000;0.0838;-0.8010;
546.3000;0.0912;-0.7855;
546.6000;0.0855;-0.7988;
546.9000;0.0895;-0.7878;
547.2000;0.0879;-0.7855;
547.5000;0.0830;-0.7966;
547.8000;0.0887;-0.7878;
548.1000;0.0912;-0.7900;
548.4000;0.0904;-0.7767;
548.7000;0.0895;-0.7833;
549.0000;0.0863;-0.7966;
549.3000;0.0904;-0.7855;
549.6000;0.0863;-0.7878;
549.9000;0.0863;-0.7833;
550.2000;0.0871;-0.7878;
550.5000;0.0920;-0.7767;
550.8000;0.0879;-0.7811;
551.1000;0.0887;-0.7767;
551.4000;0.0879;-0.7745;
551.7000;0.0887;-0.7745;
552.0000;0.0904;-0.7723;
552.3000;0.0895;-0.7745;
552.6000;0.0904;-0.7745;
552.9000;0.0895;-0.7767;
553.2000;0.0912;-0.7789;
553.5000;0.0904;-0.7767;
553.8000;0.0904;-0.7767;
554.1000;0.0871;-0.7900;
554.4000;0.0871;-0.7789;
554.7000;0.0895;-0.7767;
555.0000;0.0887;-0.7855;
555.3000;0.0904;-0.7833;
555.6000;0.0879;-0.7922;
555.9000;0.0912;-0.7855;
556.2000;0.0895;-0.7855;
556.5000;0.0887;-0.7900;
556.8000;0.0814;-0.8165;
557.1000;0.0895;-0.7966;
557.4000;0.0985;-0.7701;
557.7000;0.0887;-0.7944;
558.0000;0.0879;-0.7900;
558.3000;0.0977;-0.7678;
558.6000;0.0895;-0.7855;
558.9000;0.0895;-0.7944;
559.2000;0.0895;-0.7944;
559.5000;0.0879;-0.7966;
559.8000;0.0912;-0.7855;
560.1000;0.0887;-0.7900;
560.4000;0.0871;-0.7988;
560.7000;0.0871;-0.7966;
561.0000;0.0879;-0.7855;
561.3000;0.0928;-0.7701;
561.6000;0.0887;-0.7745;
561.9000;0.0895;-0.7701;
562.2000;0.0879;-0.7767;
562.5000;0.0879;-0.7811;
562.8000;0.0879;-0.7811;
563.1000;0.0912;-0.7811;
563.4000;0.0757;-0.8165;
563.7000;0.0887;-0.7922;
564.0000;0.0895;-0.7900;
564.3000;0.0879;-0.7833;
564.6000;0.0838;-0.7944;
564.9000;0.0879;-0.7789;
565.2000;0.0904;-0.7855;
565.5000;0.0895;-0.7900;
565.8000;0.0904;-0.7811;
566.1000;0.0895;-0.7833;
566.4000;0.0895;-0.7833;
566.7000;0.0920;-0.7878;
567.0000;0.0871;-0.8010;
567.3000;0.0895;-0.7944;
567.6000;0.0928;-0.7878;
567.9000;0.0822;-0.8099;
568.2000;0.0879;-0.7855;
568.5000;0.0904;-0.7767;
568.8000;0.0822;-0.7855;
569.1000;0.0944;-0.7590;
569.4000;0.0863;-0.7767;
569.7000;0.0895;-0.7745;
570.0000;0.0895;-0.7789;
570.3000;0.0887;-0.7855;
570.6000;0.0887;-0.7966;
570.9000;0.0887;-0.8033;
571.2000;0.0912;-0.7944;
571.5000;0.0912;-0.7833;
571.8000;0.0944;-0.7811;
572.1000;0.0855;-0.7988;
572.4000;0.0887;-0.7988;
572.7000;0.0904;-0.7900;
573.0000;0.0887;-0.7944;
573.3000;0.0863;-0.7944;
573.6000;0.0879;-0.7944;
573.9000;0.0879;-0.7944;
574.2000;0.0879;-0.8010;
574.5000;0.0904;-0.7966;
574.8000;0.0749;-0.8364;
575.1000;0.0895;-0.7944;
575.4000;0.0879;-0.7878;
575.7000;0.0961;-0.7723;
576.0000;0.0895;-0.7966;
576.3000;0.0895;-0.8077;
576.6000;0.0928;-0.7966;
576.9000;0.0855;-0.8033;
577.2000;0.0904;-0.7944;
577.5000;0.0895;-0.7900;
577.8000;0.0887;-0.7878;
578.1000;0.0904;-0.7855;
578.4000;0.0895;-0.7922;
578.7000;0.0928;-0.7789;
579.0000;0.0887;-0.7789;
579.3000;0.0887;-0.7878;
579.6000;0.0879;-0.7922;
579.9000;0.0904;-0.7944;
580.2000;0.0847;-0.8010;
580.5000;0.0895;-0.7944;
580.8000;0.0855;-0.8077;
581.1000;0.0887;-0.8033;
581.4000;0.0871;-0.8055;
581.7000;0.0895;-0.7988;
582.0000;0.0879;-0.7966;
582.3000;0.0879;-0.8033;
582.6000;0.0895;-0.7988;
582.9000;0.0895;-0.7922;
583.2000;0.0871;-0.7944;
583.5000;0.0920;-0.7811;
583.8000;0.0863;-0.7944;
584.1000;0.0895;-0.7878;
584.4000;0.0912;-0.7833;
584.7000;0.0928;-0.7833;
585.0000;0.0904;-0.7767;
585.3000;0.0773;-0.8010;
585.6000;0.0895;-0.7723;
585.9000;0.0863;-0.7789;
586.2000;0.0871;-0.7811;
586.5000;0.0879;-0.7878;
586.8000;0.0830;-0.8077;
587.1000;0.0871;-0.7900;
587.4000;0.0887;-0.7855;
587.7000;0.0904;-0.7811;
588.0000;0.0887;-0.7878;
588.3000;0.0871;-0.7988;
588.6000;0.0830;-0.8099;
588.9000;0.0920;-0.7900;
589.2000;0.0944;-0.7789;
589.5000;0.0855;-0.7988;
589.8000;0.0871;-0.7966;
590.1000;0.0879;-0.8033;
590.4000;0.0895;-0.8143;
590.7000;0.0904;-0.8033;
591.0000;0.0887;-0.8010;
591.3000;0.0863;-0.8143;
591.6000;0.0928;-0.8010;
591.9000;0.0887;-0.8077;
592.2000;0.0895;-0.8187;
592.5000;0.0887;-0.8165;
592.8000;0.0904;-0.8187;
593.1000;0.0895;-0.8165;
593.4000;0.0895;-0.8099;
593.7000;0.0887;-0.8077;
594.0000;0.0887;-0.8099;
594.3000;0.0895;-0.8099;
594.6000;0.0895;-0.8055;
594.9000;0.0887;-0.8099;
595.2000;0.0855;-0.8099;
595.5000;0.0887;-0.8077;
595.8000;0.0863;-0.8165;
596.1000;0.0879;-0.8121;
596.4000;0.0879;-0.8121;
596.7000;0.0879;-0.8055;
597.0000;0.0904;-0.8010;
597.3000;0.0912;-0.8077;
597.6000;0.0863;-0.8121;
597.9000;0.0895;-0.8121;
598.2000;0.1026;-0.7833;
598.5000;0.0895;-0.8121;
598.8000;0.0920;-0.8055;
599.1000;0.0879;-0.8077;
599.4000;0.0904;-0.8099;
599.7000;0.0887;-0.8121;
600.0000;0.0871;-0.8143;
600.3000;0.0912;-0.8187;
600.6000;0.0895;-0.8364;
600.9000;0.0895;-0.8409;
601.2000;0.0871;-0.8387;
601.5000;0.0961;-0.8143;
601.8000;0.0977;-0.8232;
602.1000;0.0863;-0.8541;
602.4000;0.0838;-0.8630;
602.7000;0.0855;-0.8674;
603.0000;0.0863;-0.8763;
603.3000;0.0863;-0.8873;
603.6000;0.0928;-0.8896;
603.9000;0.0855;-0.9095;
604.2000;0.0887;-0.9050;
604.5000;0.0830;-0.9117;
604.8000;0.0733;-0.9360;
605.1000;0.0822;-0.9095;
605.4000;0.0904;-0.8940;
605.7000;0.0838;-0.9073;
606.0000;0.0838;-0.9139;
606.3000;0.0936;-0.8918;
606.6000;0.0847;-0.9139;
606.9000;0.0847;-0.9117;
607.2000;0.0871;-0.9028;
607.5000;0.0798;-0.9161;
607.8000;0.0830;-0.9183;
608.1000;0.0830;-0.9294;
608.4000;0.0798;-0.9404;
608.7000;0.0838;-0.9382;
609.0000;0.0847;-0.9382;
609.3000;0.0822;-0.9404;
609.6000;0.0814;-0.9471;
609.9000;0.0830;-0.9404;
610.2000;0.0830;-0.9449;
610.5000;0.0928;-0.9250;
610.8000;0.0733;-0.9714;
611.1000;0.0904;-0.9272;
611.4000;0.0806;-0.9449;
611.7000;0.0847;-0.9338;
612.0000;0.0822;-0.9493;
612.3000;0.0708;-0.9758;
612.6000;0.0822;-0.9471;
612.9000;0.0814;-0.9427;
613.2000;0.0822;-0.9338;
613.5000;0.0855;-0.9183;
613.8000;0.0781;-0.9294;
614.1000;0.0790;-0.9227;
614.4000;0.0773;-0.9294;
614.7000;0.0806;-0.9294;
615.0000;0.0765;-0.9316;
615.3000;0.0798;-0.9294;
615.6000;0.0814;-0.9205;
615.9000;0.0806;-0.9161;
616.2000;0.0806;-0.9205;
616.5000;0.0830;-0.9227;
616.8000;0.0814;-0.9183;
617.1000;0.0830;-0.9117;
617.4000;0.0822;-0.9161;
617.7000;0.0790;-0.9272;
618.0000;0.0838;-0.9227;
618.3000;0.0798;-0.9294;
618.6000;0.0806;-0.9205;
618.9000;0.0822;-0.9250;
619.2000;0.0814;-0.9272;
619.5000;0.0798;-0.9294;
619.8000;0.0765;-0.9404;
620.1000;0.0798;-0.9316;
620.4000;0.0822;-0.9227;
620.7000;0.0790;-0.9338;
621.0000;0.0773;-0.9449;
621.3000;0.0806;-0.9404;
621.6000;0.0773;-0.9404;
621.9000;0.0814;-0.9316;
622.2000;0.0798;-0.9294;
622.5000;0.0765;-0.9427;
622.8000;0.0814;-0.9338;
623.1000;0.0814;-0.9316;
623.4000;0.0806;-0.9294;
623.7000;0.0838;-0.9183;
624.0000;0.0790;-0.9272;
624.3000;0.0814;-0.9227;
624.6000;0.0781;-0.9205;
624.9000;0.0790;-0.9227;
625.2000;0.0773;-0.9360;
625.5000;0.0773;-0.9338;
625.8000;0.0790;-0.9294;
626.1000;0.0798;-0.9139;
626.4000;0.0716;-0.9316;
626.7000;0.0781;-0.9161;
627.0000;0.0847;-0.9028;
627.3000;0.0895;-0.8896;
627.6000;0.0798;-0.9139;
627.9000;0.0814;-0.9183;
628.2000;0.0684;-0.9471;
628.5000;0.0855;-0.9028;
628.8000;0.0757;-0.9161;
629.1000;0.0781;-0.9050;
629.4000;0.0765;-0.9095;
629.7000;0.0781;-0.9095;
630.0000;0.0781;-0.9095;
630.3000;0.0830;-0.9028;
630.6000;0.0757;-0.9205;
630.9000;0.0806;-0.9183;
631.2000;0.0757;-0.9205;
631.5000;0.0781;-0.9139;
631.8000;0.0773;-0.9161;
632.1000;0.0781;-0.9161;
632.4000;0.0790;-0.9095;
632.7000;0.0814;-0.9183;
633.0000;0.0806;-0.9272;
633.3000;0.0887;-0.9028;
633.6000;0.0822;-0.9227;
633.9000;0.0781;-0.9338;
634.2000;0.0847;-0.9250;
634.5000;0.0790;-0.9272;
634.8000;0.0790;-0.9205;
635.1000;0.0798;-0.9161;
635.4000;0.0773;-0.9272;
635.7000;0.0798;-0.9117;
636.0000;0.0781;-0.9205;
636.3000;0.0659;-0.9537;
636.6000;0.0814;-0.9250;
636.9000;0.0651;-0.9670;
637.2000;0.0814;-0.9294;
637.5000;0.0798;-0.9338;
637.8000;0.0790;-0.9449;
638.1000;0.0781;-0.9515;
638.4000;0.0765;-0.9515;
638.7000;0.0822;-0.9294;
639.0000;0.0798;-0.9338;
639.3000;0.0749;-0.9404;
639.6000;0.0741;-0.9449;
639.9000;0.0757;-0.9427;
640.2000;0.0757;-0.9471;
640.5000;0.0773;-0.9316;
640.8000;0.0749;-0.9294;
641.1000;0.0790;-0.9250;
641.4000;0.0667;-0.9559;
641.7000;0.0781;-0.9316;
642.0000;0.0708;-0.9427;
642.3000;0.0790;-0.9227;
642.6000;0.0847;-0.9050;
642.9000;0.0773;-0.9227;
643.2000;0.0790;-0.9227;
643.5000;0.0798;-0.9139;
643.8000;0.0716;-0.9316;
644.1000;0.0855;-0.8962;
644.4000;0.0814;-0.9028;
644.7000;0.0781;-0.9183;
645.0000;0.0724;-0.9404;
645.3000;0.0798;-0.9250;
645.6000;0.0781;-0.9316;
645.9000;0.0781;-0.9316;
646.2000;0.0781;-0.9294;
646.5000;0.0798;-0.9360;
646.8000;0.0928;-0.9073;
647.1000;0.0814;-0.9382;
647.4000;0.0838;-0.9205;
647.7000;0.0773;-0.9316;
648.0000;0.0765;-0.9250;
648.3000;0.0684;-0.9427;
648.6000;0.0798;-0.9161;
648.9000;0.0781;-0.9183;
649.2000;0.0765;-0.9272;
649.5000;0.0855;-0.9006;
649.8000;0.0790;-0.9117;
650.1000;0.0806;-0.9028;
650.4000;0.0773;-0.9117;
650.7000;0.0773;-0.9161;
651.0000;0.0871;-0.8918;
651.3000;0.0749;-0.9316;
651.6000;0.0773;-0.9294;
651.9000;0.0765;-0.9250;
652.2000;0.0798;-0.9139;
652.5000;0.0879;-0.8962;
652.8000;0.0773;-0.9183;
653.1000;0.0798;-0.9227;
653.4000;0.0847;-0.9006;
653.7000;0.0773;-0.9183;
654.0000;0.0790;-0.9183;
654.3000;0.0830;-0.9073;
654.6000;0.0765;-0.9205;
654.9000;0.0757;-0.9161;
655.2000;0.0765;-0.9139;
655.5000;0.0773;-0.9139;
655.8000;0.0773;-0.9073;
656.1000;0.0757;-0.9095;
656.4000;0.0700;-0.9272;
656.7000;0.0790;-0.9117;
657.0000;0.0773;-0.9250;
657.3000;0.0773;-0.9227;
657.6000;0.0798;-0.9139;
657.9000;0.0806;-0.9117;
658.2000;0.0749;-0.9205;
658.5000;0.0765;-0.9117;
658.8000;0.0773;-0.9095;
659.1000;0.0830;-0.8940;
659.4000;0.0781;-0.9161;
659.7000;0.0781;-0.9139;
660.0000;0.0627;-0.9449;
660.3000;0.0904;-0.8718;
660.6000;0.0790;-0.9050;
660.9000;0.0741;-0.9161;
661.2000;0.0822;-0.8962;
661.5000;0.0879;-0.8807;
661.8000;0.0765;-0.9139;
662.1000;0.0822;-0.8940;
662.4000;0.0790;-0.8962;
662.7000;0.0757;-0.9050;
663.0000;0.0781;-0.9006;
663.3000;0.0790;-0.9073;
663.6000;0.0765;-0.9073;
663.9000;0.0757;-0.9073;
664.2000;0.0765;-0.8984;
664.5000;0.0749;-0.9073;
664.8000;0.0773;-0.9028;
665.1000;0.0773;-0.9006;
665.4000;0.0733;-0.9117;
665.7000;0.0773;-0.9028;
666.0000;0.0765;-0.9117;
666.3000;0.0757;-0.9117;
666.6000;0.0773;-0.9050;
666.9000;0.0773;-0.9050;
667.2000;0.0765;-0.9028;
667.5000;0.0790;-0.8984;
667.8000;0.0781;-0.9095;
668.1000;0.0798;-0.9050;
668.4000;0.0765;-0.9139;
668.7000;0.0773;-0.9073;
669.0000;0.0790;-0.9095;
669.3000;0.0781;-0.9050;
669.6000;0.0765;-0.9161;
669.9000;0.0667;-0.9316;
670.2000;0.0798;-0.9050;
670.5000;0.0773;-0.9117;
670.8000;0.0749;-0.9183;
671.1000;0.0781;-0.9183;
671.4000;0.0741;-0.9294;
671.7000;0.0765;-0.9272;
672.0000;0.0684;-0.9493;
672.3000;0.0757;-0.9272;
672.6000;0.0724;-0.9404;
672.9000;0.0781;-0.9227;
673.2000;0.0781;-0.9183;
673.5000;0.0741;-0.9205;
673.8000;0.0773;-0.9139;
674.1000;0.0781;-0.9095;
674.4000;0.0781;-0.9117;
674.7000;0.0733;-0.9205;
675.0000;0.0749;-0.9272;
675.3000;0.0692;-0.9382;
675.6000;0.0757;-0.9250;
675.9000;0.0781;-0.9272;
676.2000;0.0781;-0.9360;
676.5000;0.0781;-0.9272;
676.8000;0.0741;-0.9360;
677.1000;0.0822;-0.9183;
677.4000;0.0765;-0.9250;
677.7000;0.0863;-0.8940;
678.0000;0.0773;-0.9161;
678.3000;0.0773;-0.9250;
678.6000;0.0855;-0.9117;
678.9000;0.0757;-0.9316;
679.2000;0.0765;-0.9272;
679.5000;0.0749;-0.9272;
679.8000;0.0635;-0.9515;
680.1000;0.0765;-0.9250;
680.4000;0.0684;-0.9449;
680.7000;0.0741;-0.9250;
681.0000;0.0757;-0.9294;
681.3000;0.0708;-0.9493;
681.6000;0.0741;-0.9404;
681.9000;0.0765;-0.9272;
682.2000;0.0684;-0.9471;
682.5000;0.0749;-0.9338;
682.8000;0.0773;-0.9227;
683.1000;0.0700;-0.9360;
683.4000;0.0741;-0.9316;
683.7000;0.0765;-0.9294;
684.0000;0.0757;-0.9316;
684.3000;0.0757;-0.9250;
684.6000;0.0749;-0.9227;
684.9000;0.0749;-0.9139;
685.2000;0.0724;-0.9183;
685.5000;0.0814;-0.8984;
685.8000;0.0773;-0.9139;
686.1000;0.0708;-0.9404;
686.4000;0.0822;-0.9139;
686.7000;0.0773;-0.9360;
687.0000;0.0765;-0.9404;
687.3000;0.0781;-0.9316;
687.6000;0.0741;-0.9427;
687.9000;0.0773;-0.9316;
688.2000;0.0773;-0.9316;
688.5000;0.0749;-0.9227;
688.8000;0.0733;-0.9250;
689.1000;0.0790;-0.9139;
689.4000;0.0757;-0.9205;
689.7000;0.0790;-0.9294;
690.0000;0.0773;-0.9382;
690.3000;0.0749;-0.9404;
690.6000;0.0790;-0.9227;
690.9000;0.0790;-0.9161;
691.2000;0.0773;-0.9183;
691.5000;0.0749;-0.9272;
691.8000;0.0765;-0.9205;
692.1000;0.0765;-0.9183;
692.4000;0.0749;-0.9227;
692.7000;0.0724;-0.9338;
693.0000;0.0757;-0.9250;
693.3000;0.0773;-0.9161;
693.6000;0.0773;-0.9183;
693.9000;0.0773;-0.9227;
694.2000;0.0757;-0.9227;
694.5000;0.0741;-0.9227;
694.8000;0.0749;-0.9316;
695.1000;0.0733;-0.9360;
695.4000;0.0724;-0.9382;
695.7000;0.0667;-0.9471;
696.0000;0.0765;-0.9139;
696.3000;0.0790;-0.9117;
696.6000;0.0887;-0.8851;
696.9000;0.0944;-0.8741;
697.2000;0.0838;-0.8984;
697.5000;0.0749;-0.9227;
697.8000;0.0773;-0.9205;
698.1000;0.0773;-0.9250;
698.4000;0.0765;-0.9227;
698.7000;0.0757;-0.9139;
699.0000;0.0757;-0.9117;
699.3000;0.0798;-0.8984;
699.6000;0.0757;-0.9095;
699.9000;0.0741;-0.9117;
700.2000;0.0741;-0.9050;
700.5000;0.0814;-0.8829;
700.8000;0.0708;-0.9139;
701.1000;0.0773;-0.9006;
701.4000;0.0790;-0.8984;
701.7000;0.0790;-0.9006;
702.0000;0.0773;-0.9050;
702.3000;0.0822;-0.8785;
702.6000;0.0814;-0.8851;
702.9000;0.0781;-0.8851;
703.2000;0.0773;-0.8851;
703.5000;0.0765;-0.8829;
703.8000;0.0724;-0.8940;
704.1000;0.0757;-0.8829;
704.4000;0.0692;-0.9028;
704.7000;0.0781;-0.8829;
705.0000;0.0757;-0.8918;
705.3000;0.0757;-0.9006;
705.6000;0.0855;-0.8896;
705.9000;0.0757;-0.9161;
706.2000;0.0773;-0.9117;
706.5000;0.0741;-0.9205;
706.8000;0.0773;-0.9250;
707.1000;0.0765;-0.9183;
707.4000;0.0757;-0.9139;
707.7000;0.0716;-0.9227;
708.0000;0.0749;-0.9205;
708.3000;0.0749;-0.9250;
708.6000;0.0765;-0.9250;
708.9000;0.0773;-0.9139;
709.2000;0.0773;-0.9183;
709.5000;0.0781;-0.9161;
709.8000;0.0741;-0.9250;
710.1000;0.0733;-0.9227;
710.4000;0.0765;-0.9161;
710.7000;0.0757;-0.9227;
711.0000;0.0790;-0.9183;
711.3000;0.0757;-0.9250;
711.6000;0.0716;-0.9227;
711.9000;0.0798;-0.9028;
712.2000;0.0773;-0.9161;
712.5000;0.0781;-0.9161;
712.8000;0.0781;-0.9095;
713.1000;0.0781;-0.9050;
713.4000;0.0781;-0.9006;
713.7000;0.0765;-0.9028;
714.0000;0.0757;-0.9028;
714.3000;0.0757;-0.9028;
714.6000;0.0781;-0.8984;
714.9000;0.0700;-0.9117;
715.2000;0.0814;-0.8873;
715.5000;0.0790;-0.8962;
715.8000;0.0790;-0.9050;
716.1000;0.0765;-0.9161;
716.4000;0.0733;-0.9272;
716.7000;0.0724;-0.9294;
717.0000;0.0773;-0.9205;
717.3000;0.0773;-0.9205;
717.6000;0.0814;-0.9183;
717.9000;0.0749;-0.9338;
718.2000;0.0749;-0.9272;
718.5000;0.0635;-0.9604;
718.8000;0.0781;-0.9294;
719.1000;0.0741;-0.9360;
719.4000;0.0733;-0.9360;
719.7000;0.0773;-0.9250;
720.0000;0.0790;-0.9205;
720.3000;0.0741;-0.9272;
720.6000;0.0847;-0.8984;
720.9000;0.0749;-0.9227;
721.2000;0.0635;-0.9493;
721.5000;0.0749;-0.9117;
721.8000;0.0749;-0.9183;
722.1000;0.0692;-0.9382;
722.4000;0.0741;-0.9205;
722.7000;0.0757;-0.9095;
723.0000;0.0847;-0.8918;
723.3000;0.0806;-0.9139;
723.6000;0.0741;-0.9427;
723.9000;0.0781;-0.9272;
724.2000;0.0749;-0.9294;
724.5000;0.0749;-0.9272;
724.8000;0.0741;-0.9272;
725.1000;0.0684;-0.9360;
725.4000;0.0741;-0.9139;
725.7000;0.0741;-0.9073;
726.0000;0.0741;-0.9028;
726.3000;0.0765;-0.8984;
726.6000;0.0798;-0.8962;
726.9000;0.0741;-0.9117;
727.2000;0.0676;-0.9338;
727.5000;0.0741;-0.9294;
727.8000;0.0716;-0.9427;
728.1000;0.0757;-0.9316;
728.4000;0.0741;-0.9250;
728.7000;0.0765;-0.9161;
729.0000;0.0749;-0.9117;
729.3000;0.0724;-0.9073;
729.6000;0.0765;-0.9095;
729.9000;0.0757;-0.9227;
730.2000;0.0765;-0.9183;
730.5000;0.0773;-0.9183;
730.8000;0.0708;-0.9250;
731.1000;0.0765;-0.9139;
731.4000;0.0749;-0.9095;
731.7000;0.0724;-0.9161;
732.0000;0.0773;-0.9073;
732.3000;0.0781;-0.9073;
732.6000;0.0741;-0.9095;
732.9000;0.0749;-0.9161;
733.2000;0.0749;-0.9117;
733.5000;0.0749;-0.9095;
733.8000;0.0757;-0.9117;
734.1000;0.0773;-0.9095;
734.4000;0.0773;-0.9117;
734.7000;0.0749;-0.9139;
735.0000;0.0733;-0.9161;
735.3000;0.0724;-0.9095;
735.6000;0.0773;-0.9006;
735.9000;0.0773;-0.8962;
736.2000;0.0741;-0.8962;
736.5000;0.0684;-0.9095;
736.8000;0.0700;-0.8984;
737.1000;0.0733;-0.8896;
737.4000;0.0765;-0.8829;
737.7000;0.0749;-0.9006;
738.0000;0.0765;-0.8962;
738.3000;0.0741;-0.9050;
738.6000;0.0749;-0.9050;
738.9000;0.0806;-0.8896;
739.2000;0.0781;-0.9006;
739.5000;0.0684;-0.9161;
739.8000;0.0781;-0.9006;
740.1000;0.0773;-0.9050;
740.4000;0.0773;-0.9095;
740.7000;0.0765;-0.9161;
741.0000;0.0733;-0.9161;
741.3000;0.0749;-0.9028;
741.6000;0.0757;-0.9006;
741.9000;0.0611;-0.9338;
742.2000;0.0700;-0.9183;
742.5000;0.0871;-0.8674;
742.8000;0.0765;-0.8940;
743.1000;0.0773;-0.8962;
743.4000;0.0790;-0.8918;
743.7000;0.0749;-0.9050;
744.0000;0.0659;-0.9316;
744.3000;0.0757;-0.9139;
744.6000;0.0757;-0.9316;
744.9000;0.0741;-0.9382;
745.2000;0.0773;-0.9272;
745.5000;0.0790;-0.9272;
745.8000;0.0757;-0.9382;
746.1000;0.0733;-0.9360;
746.4000;0.0741;-0.9382;
746.7000;0.0765;-0.9427;
747.0000;0.0749;-0.9449;
747.3000;0.0765;-0.9382;
747.6000;0.0749;-0.9338;
747.9000;0.0765;-0.9404;
748.2000;0.0749;-0.9382;
748.5000;0.0749;-0.9360;
748.8000;0.0765;-0.9382;
749.1000;0.0724;-0.9427;
749.4000;0.0724;-0.9382;
749.7000;0.0733;-0.9360;
750.0000;0.0749;-0.9338;
750.3000;0.0733;-0.9338;
750.6000;0.0724;-0.9338;
750.9000;0.0741;-0.9316;
751.2000;0.0749;-0.9294;
751.5000;0.0733;-0.9183;
751.8000;0.0765;-0.9139;
752.1000;0.0757;-0.9183;
752.4000;0.0724;-0.9272;
752.7000;0.0765;-0.9205;
753.0000;0.0798;-0.9073;
753.3000;0.0765;-0.9117;
753.6000;0.0781;-0.9161;
753.9000;0.0741;-0.9183;
754.2000;0.0749;-0.9183;
754.5000;0.0765;-0.9139;
754.8000;0.0757;-0.9117;
755.1000;0.0765;-0.9073;
755.4000;0.0749;-0.9095;
755.7000;0.0765;-0.9073;
756.0000;0.0741;-0.9117;
756.3000;0.0749;-0.9183;
756.6000;0.0749;-0.9161;
756.9000;0.0741;-0.9183;
757.2000;0.0741;-0.9205;
757.5000;0.0741;-0.9139;
757.8000;0.0765;-0.9095;
758.1000;0.0757;-0.9095;
758.4000;0.0700;-0.9227;
758.7000;0.0765;-0.9073;
759.0000;0.0667;-0.9250;
759.3000;0.0749;-0.9073;
759.6000;0.0757;-0.9161;
759.9000;0.0724;-0.9183;
760.2000;0.0741;-0.9117;
760.5000;0.0757;-0.9139;
760.8000;0.0757;-0.9183;
761.1000;0.0765;-0.9205;
761.4000;0.0716;-0.9250;
761.7000;0.0806;-0.8984;
762.0000;0.0757;-0.9161;
762.3000;0.0757;-0.9272;
762.6000;0.0806;-0.9161;
762.9000;0.0773;-0.9294;
763.2000;0.0700;-0.9449;
763.5000;0.0749;-0.9316;
763.8000;0.0716;-0.9316;
764.1000;0.0741;-0.9250;
764.4000;0.0790;-0.9161;
764.7000;0.0765;-0.9183;
765.0000;0.0757;-0.9294;
765.3000;0.0749;-0.9316;
765.6000;0.0765;-0.9205;
765.9000;0.0741;-0.9272;
766.2000;0.0781;-0.9183;
766.5000;0.0741;-0.9294;
766.8000;0.0765;-0.9250;
767.1000;0.0749;-0.9205;
767.4000;0.0757;-0.9095;
767.7000;0.0724;-0.9161;
768.0000;0.0749;-0.9139;
768.3000;0.0733;-0.9272;
768.6000;0.0749;-0.9250;
768.9000;0.0741;-0.9250;
769.2000;0.0765;-0.9139;
769.5000;0.0765;-0.9073;
769.8000;0.0757;-0.9095;
770.1000;0.0806;-0.8984;
770.4000;0.0757;-0.9117;
770.7000;0.0749;-0.9183;
771.0000;0.0781;-0.9095;
771.3000;0.0692;-0.9404;
771.6000;0.0749;-0.9272;
771.9000;0.0749;-0.9250;
772.2000;0.0765;-0.9272;
772.5000;0.0733;-0.9360;
772.8000;0.0757;-0.9183;
773.1000;0.0773;-0.9139;
773.4000;0.0765;-0.9139;
773.7000;0.0741;-0.9227;
774.0000;0.0749;-0.9183;
774.3000;0.0749;-0.9139;
774.6000;0.0757;-0.9161;
774.9000;0.0749;-0.9183;
775.2000;0.0741;-0.9161;
775.5000;0.0765;-0.9028;
775.8000;0.0781;-0.9028;
776.1000;0.0724;-0.9183;
776.4000;0.0667;-0.9360;
776.7000;0.0765;-0.9183;
777.0000;0.0765;-0.9227;
777.3000;0.0765;-0.9205;
777.6000;0.0741;-0.9316;
777.9000;0.0733;-0.9338;
778.2000;0.0765;-0.9227;
778.5000;0.0765;-0.9250;
778.8000;0.0724;-0.9382;
779.1000;0.0749;-0.9382;
779.4000;0.0847;-0.9183;
779.7000;0.0716;-0.9449;
780.0000;0.0708;-0.9427;
780.3000;0.0757;-0.9294;
780.6000;0.0741;-0.9294;
780.9000;0.0724;-0.9250;
781.2000;0.0692;-0.9316;
781.5000;0.0863;-0.8829;
781.8000;0.0724;-0.9073;
782.1000;0.0863;-0.8718;
782.4000;0.0765;-0.9050;
782.7000;0.0749;-0.9095;
783.0000;0.0741;-0.9139;
783.3000;0.0733;-0.9095;
783.6000;0.0757;-0.9073;
783.9000;0.0781;-0.8984;
784.2000;0.0741;-0.8984;
784.5000;0.0733;-0.9006;
784.8000;0.0733;-0.9073;
785.1000;0.0773;-0.9006;
785.4000;0.0733;-0.9117;
785.7000;0.0733;-0.9139;
786.0000;0.0757;-0.9050;
786.3000;0.0765;-0.9028;
786.6000;0.0847;-0.8807;
786.9000;0.0814;-0.8984;
787.2000;0.0765;-0.9073;
787.5000;0.0765;-0.9050;
787.8000;0.0757;-0.9050;
788.1000;0.0781;-0.9073;
788.4000;0.0781;-0.9073;
788.7000;0.0765;-0.9095;
789.0000;0.0757;-0.9183;
789.3000;0.0757;-0.9250;
789.6000;0.0757;-0.9360;
789.9000;0.0708;-0.9449;
790.2000;0.0724;-0.9427;
790.5000;0.0757;-0.9272;
790.8000;0.0741;-0.9250;
791.1000;0.0708;-0.9360;
791.4000;0.0765;-0.9183;
791.7000;0.0749;-0.9161;
792.0000;0.0838;-0.8962;
792.3000;0.0724;-0.9272;
792.6000;0.0659;-0.9515;
792.9000;0.0741;-0.9294;
793.2000;0.0716;-0.9338;
793.5000;0.0822;-0.9050;
793.8000;0.0724;-0.9227;
794.1000;0.0749;-0.9161;
794.4000;0.0781;-0.9028;
794.7000;0.0724;-0.9161;
795.0000;0.0684;-0.9272;
795.3000;0.0822;-0.9006;
795.6000;0.0749;-0.9139;
795.9000;0.0716;-0.9161;
796.2000;0.0741;-0.9139;
796.5000;0.0708;-0.9205;
796.8000;0.0724;-0.9095;
797.1000;0.0781;-0.8984;
797.4000;0.0741;-0.9117;
797.7000;0.0741;-0.9006;
798.0000;0.0733;-0.9095;
798.3000;0.0757;-0.9073;
798.6000;0.0749;-0.9050;
798.9000;0.0757;-0.9161;
799.2000;0.0733;-0.9183;
799.5000;0.0741;-0.9161;
799.8000;0.0741;-0.9095;
800.1000;0.0773;-0.8984;
800.4000;0.0667;-0.9139;
800.7000;0.0741;-0.9006;
801.0000;0.0765;-0.8873;
801.3000;0.0741;-0.8962;
801.6000;0.0790;-0.8807;
801.9000;0.0716;-0.9028;
802.2000;0.0765;-0.8896;
802.5000;0.0765;-0.8918;
802.8000;0.0741;-0.8984;
803.1000;0.0643;-0.9227;
803.4000;0.0749;-0.8896;
803.7000;0.0838;-0.8674;
804.0000;0.0741;-0.8984;
804.3000;0.0724;-0.8984;
804.6000;0.0798;-0.8896;
804.9000;0.0757;-0.8896;
805.2000;0.0741;-0.8940;
805.5000;0.0773;-0.8851;
805.8000;0.0830;-0.8696;
806.1000;0.0781;-0.8896;
806.4000;0.0773;-0.8873;
806.7000;0.0749;-0.8962;
807.0000;0.0871;-0.8696;
807.3000;0.0749;-0.9006;
807.6000;0.0773;-0.9028;
807.9000;0.0765;-0.9006;
808.2000;0.0757;-0.9050;
808.5000;0.0773;-0.8940;
808.8000;0.0733;-0.9139;
809.1000;0.0749;-0.9095;
809.4000;0.0724;-0.9139;
809.7000;0.0627;-0.9360;
810.0000;0.0773;-0.9073;
810.3000;0.0733;-0.9161;
810.6000;0.0724;-0.9227;
810.9000;0.0708;-0.9139;
811.2000;0.0724;-0.8984;
811.5000;0.0822;-0.8785;
811.8000;0.0741;-0.8984;
812.1000;0.0757;-0.8940;
812.4000;0.0749;-0.8918;
812.7000;0.0765;-0.8807;
813.0000;0.0724;-0.8896;
813.3000;0.0773;-0.8763;
813.6000;0.0733;-0.8918;
813.9000;0.0749;-0.8873;
814.2000;0.0749;-0.8873;
814.5000;0.0741;-0.8896;
814.8000;0.0765;-0.8763;
815.1000;0.0692;-0.8984;
815.4000;0.0790;-0.8741;
815.7000;0.0724;-0.8851;
816.0000;0.0733;-0.8940;
816.3000;0.0716;-0.8918;
816.6000;0.0773;-0.8873;
816.9000;0.0757;-0.8962;
817.2000;0.0684;-0.9139;
817.5000;0.0741;-0.8984;
817.8000;0.0847;-0.8763;
818.1000;0.0741;-0.9006;
818.4000;0.0733;-0.9028;
818.7000;0.0749;-0.9028;
819.0000;0.0708;-0.9117;
819.3000;0.0749;-0.8962;
819.6000;0.0749;-0.8940;
819.9000;0.0757;-0.9006;
820.2000;0.0765;-0.9006;
820.5000;0.0798;-0.9006;
820.8000;0.0757;-0.9139;
821.1000;0.0830;-0.8896;
821.4000;0.0757;-0.8962;
821.7000;0.0724;-0.8896;
822.0000;0.0741;-0.8873;
822.3000;0.0749;-0.8896;
822.6000;0.0773;-0.8873;
822.9000;0.0765;-0.8829;
823.2000;0.0716;-0.8896;
823.5000;0.0724;-0.8896;
823.8000;0.0773;-0.8896;
824.1000;0.0749;-0.8873;
824.4000;0.0733;-0.8873;
824.7000;0.0749;-0.8896;
825.0000;0.0806;-0.8718;
825.3000;0.0741;-0.8807;
825.6000;0.0741;-0.8807;
825.9000;0.0749;-0.8785;
826.2000;0.0749;-0.8785;
826.5000;0.0749;-0.8829;
826.8000;0.0716;-0.8896;
827.1000;0.0741;-0.8785;
827.4000;0.0741;-0.8741;
827.7000;0.0773;-0.8608;
828.0000;0.0741;-0.8674;
828.3000;0.0741;-0.8652;
828.6000;0.0765;-0.8674;
828.9000;0.0741;-0.8696;
829.2000;0.0773;-0.8696;
829.5000;0.0643;-0.9050;
829.8000;0.0692;-0.8962;
830.1000;0.0749;-0.8918;
830.4000;0.0724;-0.8873;
830.7000;0.0733;-0.8896;
831.0000;0.0749;-0.8940;
831.3000;0.0749;-0.8940;
831.6000;0.0765;-0.8896;
831.9000;0.0781;-0.8918;
832.2000;0.0765;-0.8984;
832.5000;0.0733;-0.9095;
832.8000;0.0757;-0.9028;
833.1000;0.0757;-0.9006;
833.4000;0.0757;-0.9028;
833.7000;0.0863;-0.8785;
834.0000;0.0765;-0.9028;
834.3000;0.0757;-0.9050;
834.6000;0.0741;-0.9139;
834.9000;0.0716;-0.9183;
835.2000;0.0757;-0.9028;
835.5000;0.0749;-0.8962;
835.8000;0.0700;-0.9050;
836.1000;0.0741;-0.8984;
836.4000;0.0708;-0.9006;
836.7000;0.0724;-0.8962;
837.0000;0.0684;-0.9006;
837.3000;0.0773;-0.8896;
837.6000;0.0749;-0.8962;
837.9000;0.0749;-0.9050;
838.2000;0.0765;-0.9006;
838.5000;0.0741;-0.9095;
838.8000;0.0700;-0.9250;
839.1000;0.0667;-0.9338;
839.4000;0.0773;-0.9161;
839.7000;0.0757;-0.9161;
840.0000;0.0741;-0.9139;
840.3000;0.0781;-0.9050;
840.6000;0.0749;-0.9117;
840.9000;0.0749;-0.9073;
841.2000;0.0741;-0.9161;
841.5000;0.0749;-0.9139;
841.8000;0.0773;-0.9117;
842.1000;0.0749;-0.9139;
842.4000;0.0716;-0.9161;
842.7000;0.0765;-0.8962;
843.0000;0.0741;-0.8984;
843.3000;0.0773;-0.8873;
843.6000;0.0773;-0.8962;
843.9000;0.0733;-0.9050;
844.2000;0.0749;-0.9006;
844.5000;0.0749;-0.8984;
844.8000;0.0741;-0.9050;
845.1000;0.0749;-0.9006;
845.4000;0.0716;-0.9028;
845.7000;0.0741;-0.9073;
846.0000;0.0749;-0.9050;
846.3000;0.0757;-0.9050;
846.6000;0.0781;-0.9050;
846.9000;0.0757;-0.9117;
847.2000;0.0757;-0.9139;
847.5000;0.0741;-0.9183;
847.8000;0.0749;-0.9139;
848.1000;0.0757;-0.9139;
848.4000;0.0757;-0.9095;
848.7000;0.0773;-0.9073;
849.0000;0.0757;-0.9183;
849.3000;0.0757;-0.9161;
849.6000;0.0700;-0.9227;
849.9000;0.0765;-0.9095;
850.2000;0.0814;-0.8984;
850.5000;0.0724;-0.9139;
850.8000;0.0855;-0.8807;
851.1000;0.0667;-0.9250;
851.4000;0.0651;-0.9294;
851.7000;0.0749;-0.9073;
852.0000;0.0716;-0.9161;
852.3000;0.0741;-0.9073;
852.6000;0.0773;-0.8984;
852.9000;0.0749;-0.9073;
853.2000;0.0765;-0.9139;
853.5000;0.0757;-0.9073;
853.8000;0.0733;-0.9205;
854.1000;0.0757;-0.9161;
854.4000;0.0757;-0.9161;
854.7000;0.0749;-0.9250;
855.0000;0.0749;-0.9272;
855.3000;0.0733;-0.9294;
855.6000;0.0765;-0.9316;
855.9000;0.0733;-0.9360;
856.2000;0.0716;-0.9338;
856.5000;0.0724;-0.9294;
856.8000;0.0749;-0.9404;
857.1000;0.0708;-0.9493;
857.4000;0.0765;-0.9272;
857.7000;0.0757;-0.9250;
858.0000;0.0619;-0.9515;
858.3000;0.0741;-0.9316;
858.6000;0.0733;-0.9294;
858.9000;0.0838;-0.9006;
859.2000;0.0749;-0.9183;
859.5000;0.0757;-0.9095;
859.8000;0.0741;-0.9161;
860.1000;0.0684;-0.9294;
860.4000;0.0806;-0.8984;
860.7000;0.0822;-0.9073;
861.0000;0.0757;-0.9205;
861.3000;0.0684;-0.9316;
861.6000;0.0757;-0.9183;
861.9000;0.0757;-0.9139;
862.2000;0.0798;-0.9073;
862.5000;0.0781;-0.9073;
862.8000;0.0651;-0.9272;
863.1000;0.0765;-0.9073;
863.4000;0.0708;-0.9227;
863.7000;0.0757;-0.9028;
864.0000;0.0757;-0.9073;
864.3000;0.0716;-0.9183;
864.6000;0.0757;-0.9073;
864.9000;0.0724;-0.9161;
865.2000;0.0749;-0.9117;
865.5000;0.0741;-0.9073;
865.8000;0.0724;-0.9050;
866.1000;0.0749;-0.9050;
866.4000;0.0749;-0.9095;
866.7000;0.0716;-0.9161;
867.0000;0.0684;-0.9183;
867.3000;0.0733;-0.9095;
867.6000;0.0757;-0.9006;
867.9000;0.0757;-0.9117;
868.2000;0.0724;-0.9360;
868.5000;0.0765;-0.9227;
868.8000;0.0765;-0.9161;
869.1000;0.0733;-0.9294;
869.4000;0.0733;-0.9227;
869.7000;0.0798;-0.9073;
870.0000;0.0814;-0.9006;
870.3000;0.0749;-0.9227;
870.6000;0.0733;-0.9227;
870.9000;0.0724;-0.9227;
871.2000;0.0765;-0.9117;
871.5000;0.0700;-0.9227;
871.8000;0.0676;-0.9250;
872.1000;0.0741;-0.9050;
872.4000;0.0790;-0.9028;
872.7000;0.0733;-0.9117;
873.0000;0.0741;-0.9139;
873.3000;0.0757;-0.9073;
873.6000;0.0667;-0.9294;
873.9000;0.0724;-0.9139;
874.2000;0.0741;-0.9073;
874.5000;0.0838;-0.8785;
874.8000;0.0733;-0.9073;
875.1000;0.0733;-0.8962;
875.4000;0.0724;-0.9028;
875.7000;0.0724;-0.9095;
876.0000;0.0724;-0.9139;
876.3000;0.0749;-0.9139;
876.6000;0.0724;-0.9161;
876.9000;0.0708;-0.9161;
877.2000;0.0741;-0.9073;
877.5000;0.0741;-0.9117;
877.8000;0.0741;-0.9073;
878.1000;0.0741;-0.9006;
878.4000;0.0757;-0.9006;
878.7000;0.0749;-0.9095;
879.0000;0.0716;-0.9205;
879.3000;0.0773;-0.9183;
879.6000;0.0733;-0.9250;
879.9000;0.0692;-0.9382;
880.2000;0.0733;-0.9272;
880.5000;0.0757;-0.9205;
880.8000;0.0749;-0.9205;
881.1000;0.0749;-0.9161;
881.4000;0.0733;-0.9095;
881.7000;0.0724;-0.9095;
882.0000;0.0749;-0.9028;
882.3000;0.0749;-0.9050;
882.6000;0.0749;-0.9095;
882.9000;0.0733;-0.9161;
883.2000;0.0684;-0.9227;
883.5000;0.0708;-0.9073;
883.8000;0.0749;-0.9050;
884.1000;0.0773;-0.8940;
884.4000;0.0733;-0.9073;
884.7000;0.0830;-0.9006;
885.0000;0.0749;-0.9183;
885.3000;0.0757;-0.9095;
885.6000;0.0724;-0.9183;
885.9000;0.0741;-0.9139;
886.2000;0.0798;-0.8962;
886.5000;0.0724;-0.9117;
886.8000;0.0692;-0.9139;
887.1000;0.0741;-0.9073;
887.4000;0.0724;-0.9050;
887.7000;0.0765;-0.8918;
888.0000;0.0741;-0.8962;
888.3000;0.0749;-0.8940;
888.6000;0.0757;-0.8962;
888.9000;0.0757;-0.9006;
889.2000;0.0749;-0.9073;
889.5000;0.0741;-0.9095;
889.8000;0.0724;-0.9161;
890.1000;0.0749;-0.9117;
890.4000;0.0749;-0.9227;
890.7000;0.0733;-0.9294;
891.0000;0.0757;-0.9294;
891.3000;0.0765;-0.9294;
891.6000;0.0757;-0.9272;
891.9000;0.0733;-0.9360;
892.2000;0.0741;-0.9360;
892.5000;0.0741;-0.9250;
892.8000;0.0757;-0.9294;
893.1000;0.0733;-0.9360;
893.4000;0.0765;-0.9205;
893.7000;0.0757;-0.9205;
894.0000;0.0765;-0.9161;
894.3000;0.0733;-0.9205;
894.6000;0.0733;-0.9272;
894.9000;0.0765;-0.9250;
895.2000;0.0749;-0.9227;
895.5000;0.0741;-0.9183;
895.8000;0.0708;-0.9227;
896.1000;0.0741;-0.9161;
896.4000;0.0741;-0.9117;
896.7000;0.0790;-0.9050;
897.0000;0.0741;-0.9050;
897.3000;0.0765;-0.8962;
897.6000;0.0765;-0.8829;
897.9000;0.0692;-0.9006;
898.2000;0.0733;-0.8940;
898.5000;0.0741;-0.8918;
898.8000;0.0716;-0.8940;
899.1000;0.0676;-0.9161;
899.4000;0.0773;-0.8962;
899.7000;0.0733;-0.9050;
900.0000;0.0741;-0.9028;
900.3000;0.0692;-0.9139;
900.6000;0.0708;-0.9161;
900.9000;0.0733;-0.9205;
901.2000;0.0724;-0.9227;
901.5000;0.0757;-0.9095;
901.8000;0.0773;-0.9006;
902.1000;0.0741;-0.9028;
902.4000;0.0724;-0.9117;
902.7000;0.0765;-0.9073;
903.0000;0.0757;-0.9050;
903.3000;0.0757;-0.9028;
903.6000;0.0708;-0.9161;
903.9000;0.0619;-0.9294;
904.2000;0.0798;-0.8962;
904.5000;0.0790;-0.8918;
904.8000;0.0749;-0.9073;
905.1000;0.0757;-0.9139;
905.4000;0.0708;-0.9205;
905.7000;0.0676;-0.9272;
906.0000;0.0749;-0.9205;
906.3000;0.0749;-0.9205;
906.6000;0.0814;-0.9050;
906.9000;0.0757;-0.9139;
907.2000;0.0733;-0.9205;
907.5000;0.0757;-0.9139;
907.8000;0.0733;-0.9250;
908.1000;0.0733;-0.9183;
908.4000;0.0749;-0.9073;
908.7000;0.0822;-0.8896;
909.0000;0.0757;-0.9073;
909.3000;0.0871;-0.8807;
909.6000;0.0765;-0.9073;
909.9000;0.0749;-0.9050;
910.2000;0.0798;-0.9006;
910.5000;0.0781;-0.9050;
910.8000;0.0757;-0.9117;
911.1000;0.0757;-0.9095;
911.4000;0.0635;-0.9294;
911.7000;0.0733;-0.9073;
912.0000;0.0733;-0.9095;
912.3000;0.0741;-0.9095;
912.6000;0.0790;-0.8918;
912.9000;0.0749;-0.9028;
913.2000;0.0863;-0.8896;
913.5000;0.0765;-0.9050;
913.8000;0.0733;-0.9117;
914.1000;0.0765;-0.9028;
914.4000;0.0741;-0.8984;
914.7000;0.0733;-0.9006;
915.0000;0.0741;-0.9006;
915.3000;0.0741;-0.9050;
915.6000;0.0749;-0.9073;
915.9000;0.0749;-0.9139;
916.2000;0.0741;-0.9139;
916.5000;0.0749;-0.9028;
916.8000;0.0749;-0.9028;
917.1000;0.0733;-0.9006;
917.4000;0.0724;-0.8984;
917.7000;0.0733;-0.8940;
918.0000;0.0684;-0.9117;
918.3000;0.0749;-0.9050;
918.6000;0.0700;-0.9183;
918.9000;0.0773;-0.9050;
919.2000;0.0749;-0.9073;
919.5000;0.0749;-0.9117;
919.8000;0.0749;-0.9095;
920.1000;0.0733;-0.9139;
920.4000;0.0741;-0.9161;
920.7000;0.0708;-0.9161;
921.0000;0.0733;-0.9139;
921.3000;0.0749;-0.9205;
921.6000;0.0790;-0.9050;
921.9000;0.0781;-0.9073;
922.2000;0.0733;-0.9161;
922.5000;0.0757;-0.9205;
922.8000;0.0692;-0.9471;
923.1000;0.0781;-0.9161;
923.4000;0.0749;-0.9227;
923.7000;0.0716;-0.9161;
924.0000;0.0733;-0.9095;
924.3000;0.0724;-0.9073;
924.6000;0.0830;-0.8741;
924.9000;0.0667;-0.9161;
925.2000;0.0676;-0.9161;
925.5000;0.0700;-0.9139;
925.8000;0.0667;-0.9294;
926.1000;0.0838;-0.8851;
926.4000;0.0741;-0.9117;
926.7000;0.0708;-0.9183;
927.0000;0.0757;-0.9117;
927.3000;0.0757;-0.9139;
927.6000;0.0749;-0.9050;
927.9000;0.0659;-0.9272;
928.2000;0.0765;-0.8962;
928.5000;0.0733;-0.9006;
928.8000;0.0716;-0.9006;
929.1000;0.0765;-0.8873;
929.4000;0.0806;-0.8763;
929.7000;0.0708;-0.9028;
930.0000;0.0741;-0.8984;
930.3000;0.0716;-0.9050;
930.6000;0.0741;-0.8962;
930.9000;0.0676;-0.9095;
931.2000;0.0790;-0.8873;
931.5000;0.0741;-0.9073;
931.8000;0.0733;-0.9050;
932.1000;0.0741;-0.8962;
932.4000;0.0733;-0.8984;
932.7000;0.0676;-0.9095;
933.0000;0.0741;-0.8984;
933.3000;0.0716;-0.9073;
933.6000;0.0765;-0.9006;
933.9000;0.0733;-0.9050;
934.2000;0.0749;-0.9073;
934.5000;0.0741;-0.8962;
934.8000;0.0749;-0.8873;
935.1000;0.0757;-0.8873;
935.4000;0.0741;-0.8984;
935.7000;0.0733;-0.9073;
936.0000;0.0749;-0.8984;
936.3000;0.0749;-0.8896;
936.6000;0.0773;-0.8829;
936.9000;0.0749;-0.8918;
937.2000;0.0757;-0.8962;
937.5000;0.0773;-0.8851;
937.8000;0.0765;-0.8940;
938.1000;0.0724;-0.8984;
938.4000;0.0733;-0.8984;
938.7000;0.0749;-0.9028;
939.0000;0.0757;-0.9006;
939.3000;0.0749;-0.9028;
939.6000;0.0757;-0.9050;
939.9000;0.0724;-0.8984;
940.2000;0.0749;-0.8918;
940.5000;0.0765;-0.8851;
940.8000;0.0733;-0.8851;
941.1000;0.0741;-0.8851;
941.4000;0.0733;-0.8807;
941.7000;0.0765;-0.8763;
942.0000;0.0716;-0.8918;
942.3000;0.0749;-0.8962;
942.6000;0.0716;-0.9050;
942.9000;0.0741;-0.8984;
943.2000;0.0757;-0.8918;
943.5000;0.0749;-0.8984;
943.8000;0.0741;-0.8984;
944.1000;0.0733;-0.8940;
944.4000;0.0765;-0.8851;
944.7000;0.0741;-0.8940;
945.0000;0.0773;-0.8896;
945.3000;0.0765;-0.8940;
945.6000;0.0863;-0.8741;
945.9000;0.0814;-0.8918;
946.2000;0.0757;-0.8984;
946.5000;0.0741;-0.8984;
946.8000;0.0749;-0.8962;
947.1000;0.0716;-0.9095;
947.4000;0.0741;-0.9073;
947.7000;0.0741;-0.9028;
948.0000;0.0741;-0.8962;
948.3000;0.0871;-0.8630;
948.6000;0.0692;-0.9139;
948.9000;0.0749;-0.8984;
949.2000;0.0806;-0.8896;
949.5000;0.0724;-0.9227;
949.8000;0.0741;-0.9073;
950.1000;0.0757;-0.9028;
950.4000;0.0741;-0.8984;
950.7000;0.0733;-0.9028;
951.0000;0.0700;-0.9050;
951.3000;0.0741;-0.8918;
951.6000;0.0684;-0.9073;
951.9000;0.0741;-0.8984;
952.2000;0.0716;-0.9028;
952.5000;0.0741;-0.8962;
952.8000;0.0635;-0.9205;
953.1000;0.0741;-0.9095;
953.4000;0.0757;-0.9073;
953.7000;0.0684;-0.9250;
954.0000;0.0741;-0.9161;
954.3000;0.0716;-0.9205;
954.6000;0.0757;-0.9006;
954.9000;0.0733;-0.9050;
955.2000;0.0724;-0.9050;
955.5000;0.0724;-0.9073;
955.8000;0.0741;-0.9006;
956.1000;0.0667;-0.9205;
956.4000;0.0749;-0.9073;
956.7000;0.0724;-0.9117;
957.0000;0.0757;-0.9006;
957.3000;0.0806;-0.8873;
957.6000;0.0733;-0.9073;
957.9000;0.0733;-0.9139;
958.2000;0.0733;-0.9139;
958.5000;0.0757;-0.9073;
958.8000;0.0765;-0.9028;
959.1000;0.0749;-0.8984;
959.4000;0.0765;-0.8918;
959.7000;0.0741;-0.9050;
960.0000;0.0757;-0.9117;
960.3000;0.0757;-0.9073;
960.6000;0.0724;-0.9139;
960.9000;0.0757;-0.9028;
961.2000;0.0814;-0.8896;
961.5000;0.0773;-0.8918;
961.8000;0.0724;-0.9006;
962.1000;0.0659;-0.9227;
962.4000;0.0724;-0.8962;
962.7000;0.0724;-0.8984;
963.0000;0.0765;-0.8918;
963.3000;0.0708;-0.9028;
963.6000;0.0716;-0.9006;
963.9000;0.0741;-0.8896;
964.2000;0.0708;-0.9006;
964.5000;0.0749;-0.8829;
964.8000;0.0773;-0.8741;
965.1000;0.0708;-0.8896;
965.4000;0.0724;-0.8873;
965.7000;0.0708;-0.8851;
966.0000;0.0741;-0.8829;
966.3000;0.0741;-0.8851;
966.6000;0.0765;-0.8763;
966.9000;0.0765;-0.8763;
967.2000;0.0733;-0.8829;
967.5000;0.0651;-0.8984;
967.8000;0.0741;-0.8785;
968.1000;0.0724;-0.8785;
968.4000;0.0822;-0.8718;
968.7000;0.0757;-0.8984;
969.0000;0.0749;-0.9073;
969.3000;0.0798;-0.9028;
969.6000;0.0741;-0.9139;
969.9000;0.0757;-0.9050;
970.2000;0.0749;-0.8940;
970.5000;0.0724;-0.9028;
970.8000;0.0708;-0.9050;
971.1000;0.0741;-0.8962;
971.4000;0.0733;-0.8962;
971.7000;0.0741;-0.8940;
972.0000;0.0749;-0.8896;
972.3000;0.0724;-0.8984;
972.6000;0.0749;-0.8962;
972.9000;0.0741;-0.9095;
973.2000;0.0733;-0.9028;
973.5000;0.0733;-0.9073;
973.8000;0.0798;-0.8873;
974.1000;0.0733;-0.8984;
974.4000;0.0749;-0.8918;
974.7000;0.0773;-0.8851;
975.0000;0.0741;-0.8918;
975.3000;0.0733;-0.9006;
975.6000;0.0724;-0.8962;
975.9000;0.0822;-0.8785;
976.2000;0.0749;-0.8918;
976.5000;0.0757;-0.8896;
976.8000;0.0741;-0.8984;
977.1000;0.0790;-0.8896;
977.4000;0.0781;-0.8940;
977.7000;0.0765;-0.8984;
978.0000;0.0757;-0.8984;
978.3000;0.0733;-0.8984;
978.6000;0.0749;-0.8984;
978.9000;0.0765;-0.9006;
979.2000;0.0773;-0.8962;
979.5000;0.0741;-0.9028;
979.8000;0.0724;-0.9028;
980.1000;0.0667;-0.9205;
980.4000;0.0741;-0.9139;
980.7000;0.0741;-0.9095;
981.0000;0.0741;-0.9050;
981.3000;0.0798;-0.8873;
981.6000;0.0757;-0.8873;
981.9000;0.0741;-0.8896;
982.2000;0.0765;-0.8807;
982.5000;0.0871;-0.8541;
982.8000;0.0749;-0.8829;
983.1000;0.0765;-0.8873;
983.4000;0.0643;-0.9095;
983.7000;0.0757;-0.8896;
984.0000;0.0749;-0.8984;
984.3000;0.0790;-0.8896;
984.6000;0.0733;-0.9006;
984.9000;0.0741;-0.9073;
985.2000;0.0741;-0.9050;
985.5000;0.0757;-0.9006;
985.8000;0.0757;-0.8984;
986.1000;0.0741;-0.9050;
986.4000;0.0749;-0.8918;
986.7000;0.0757;-0.8896;
987.0000;0.0733;-0.8896;
987.3000;0.0749;-0.8896;
987.6000;0.0741;-0.8851;
987.9000;0.0773;-0.8696;
988.2000;0.0741;-0.8807;
988.5000;0.0749;-0.8718;
988.8000;0.0773;-0.8763;
989.1000;0.0757;-0.8763;
989.4000;0.0765;-0.8741;
989.7000;0.0651;-0.9050;
990.0000;0.0741;-0.8785;
990.3000;0.0773;-0.8763;
990.6000;0.0749;-0.8896;
990.9000;0.0733;-0.8984;
991.2000;0.0724;-0.9028;
991.5000;0.0765;-0.8940;
991.8000;0.0741;-0.8962;
992.1000;0.0741;-0.9006;
992.4000;0.0724;-0.9006;
992.7000;0.0790;-0.8873;
993.0000;0.0667;-0.9117;
993.3000;0.0716;-0.9073;
993.6000;0.0741;-0.9006;
993.9000;0.0741;-0.9006;
994.2000;0.0765;-0.8940;
994.5000;0.0749;-0.8962;
994.8000;0.0741;-0.8962;
995.1000;0.0733;-0.8873;
995.4000;0.0749;-0.8918;
995.7000;0.0741;-0.8896;
996.0000;0.0765;-0.8785;
996.3000;0.0733;-0.8829;
996.6000;0.0757;-0.8718;
996.9000;0.0749;-0.8829;
997.2000;0.0765;-0.8829;
997.5000;0.0757;-0.8940;
997.8000;0.0790;-0.8829;
998.1000;0.0749;-0.8984;
998.4000;0.0741;-0.9073;
998.7000;0.0741;-0.9050;
999.0000;0.0741;-0.9006;
999.3000;0.0692;-0.9227;
999.6000;0.0741;-0.9117;
999.9000;0.0904;-0.8696;
1000.2000;0.0749;-0.9050;
1000.5000;0.0806;-0.8873;
1000.8000;0.0741;-0.9006;
1001.1000;0.0741;-0.9050;
1001.4000;0.0708;-0.9050;
1001.7000;0.0741;-0.8940;
1002.0000;0.0741;-0.8851;
1002.3000;0.0716;-0.8962;
1002.6000;0.0749;-0.8962;
1002.9000;0.0716;-0.9050;
1003.2000;0.0643;-0.9161;
1003.5000;0.0741;-0.8940;
1003.8000;0.0749;-0.8896;
1004.1000;0.0757;-0.8962;
1004.4000;0.0765;-0.8873;
1004.7000;0.0749;-0.8896;
1005.0000;0.0749;-0.8896;
1005.3000;0.0741;-0.8940;
1005.6000;0.0773;-0.8896;
1005.9000;0.0733;-0.9006;
1006.2000;0.0733;-0.8984;
1006.5000;0.0814;-0.8763;
1006.8000;0.0757;-0.8851;
1007.1000;0.0741;-0.8918;
1007.4000;0.0741;-0.8873;
1007.7000;0.0733;-0.8851;
1008.0000;0.0798;-0.8785;
1008.3000;0.0586;-0.9272;
1008.6000;0.0757;-0.8896;
1008.9000;0.0749;-0.8851;
1009.2000;0.0757;-0.8763;
1009.5000;0.0716;-0.8873;
1009.8000;0.0741;-0.8918;
1010.1000;0.0733;-0.8984;
1010.4000;0.0741;-0.9028;
1010.7000;0.0733;-0.8962;
1011.0000;0.0733;-0.8896;
1011.3000;0.0733;-0.8896;
1011.6000;0.0757;-0.8829;
1011.9000;0.0733;-0.8940;
1012.2000;0.0765;-0.8873;
1012.5000;0.0716;-0.9028;
1012.8000;0.0765;-0.8896;
1013.1000;0.0741;-0.9006;
1013.4000;0.0757;-0.8962;
1013.7000;0.0667;-0.9205;
1014.0000;0.0895;-0.8519;
1014.3000;0.0676;-0.8984;
1014.6000;0.0741;-0.8785;
1014.9000;0.0765;-0.8763;
1015.2000;0.0741;-0.8807;
1015.5000;0.0724;-0.8896;
1015.8000;0.0765;-0.8785;
1016.1000;0.0692;-0.8918;
1016.4000;0.0724;-0.8807;
1016.7000;0.0790;-0.8630;
1017.0000;0.0741;-0.8807;
1017.3000;0.0749;-0.8918;
1017.6000;0.0733;-0.8918;
1017.9000;0.0700;-0.9073;
1018.2000;0.0741;-0.8940;
1018.5000;0.0757;-0.8940;
1018.8000;0.0651;-0.9161;
1019.1000;0.0741;-0.8962;
1019.4000;0.0749;-0.8896;
1019.7000;0.0781;-0.8741;
1020.0000;0.0716;-0.8962;
1020.3000;0.0757;-0.8918;
1020.6000;0.0724;-0.9073;
1020.9000;0.0733;-0.9095;
1021.2000;0.0757;-0.8984;
1021.5000;0.0757;-0.8984;
1021.8000;0.0749;-0.9006;
1022.1000;0.0700;-0.9073;
1022.4000;0.0741;-0.9050;
1022.7000;0.0692;-0.9139;
1023.0000;0.0773;-0.8962;
1023.3000;0.0724;-0.9006;
1023.6000;0.0741;-0.8940;
1023.9000;0.0749;-0.8873;
1024.2000;0.0724;-0.8918;
1024.5000;0.0781;-0.8829;
1024.8000;0.0708;-0.9073;
1025.1000;0.0822;-0.8763;
1025.4000;0.0659;-0.9161;
1025.7000;0.0741;-0.8962;
1026.0000;0.0716;-0.9028;
1026.3000;0.0741;-0.8984;
1026.6000;0.0692;-0.9050;
1026.9000;0.0765;-0.8962;
1027.2000;0.0749;-0.9028;
1027.5000;0.0741;-0.8962;
1027.8000;0.0757;-0.8807;
1028.1000;0.0700;-0.8873;
1028.4000;0.0741;-0.8785;
1028.7000;0.0749;-0.8763;
1029.0000;0.0733;-0.8829;
1029.3000;0.0741;-0.8807;
1029.6000;0.0733;-0.8962;
1029.9000;0.0733;-0.8940;
1030.2000;0.0708;-0.8918;
1030.5000;0.0830;-0.8630;
1030.8000;0.0749;-0.8807;
1031.1000;0.0733;-0.8962;
1031.4000;0.0708;-0.9028;
1031.7000;0.0733;-0.8984;
1032.0000;0.0724;-0.9006;
1032.3000;0.0749;-0.8984;
1032.6000;0.0733;-0.9073;
1032.9000;0.0765;-0.9028;
1033.2000;0.0733;-0.9117;
1033.5000;0.0741;-0.9139;
1033.8000;0.0741;-0.9161;
1034.1000;0.0741;-0.9073;
1034.4000;0.0749;-0.9073;
1034.7000;0.0724;-0.9161;
1035.0000;0.0733;-0.9139;
1035.3000;0.0741;-0.9139;
1035.6000;0.0700;-0.9272;
1035.9000;0.0765;-0.9161;
1036.2000;0.0749;-0.9139;
1036.5000;0.0733;-0.9095;
1036.8000;0.0757;-0.9050;
1037.1000;0.0733;-0.9161;
1037.4000;0.0749;-0.9117;
1037.7000;0.0741;-0.9050;
1038.0000;0.0749;-0.8918;
1038.3000;0.0724;-0.8984;
1038.6000;0.0733;-0.9028;
1038.9000;0.0765;-0.8984;
1039.2000;0.0684;-0.9095;
1039.5000;0.0773;-0.8807;
1039.8000;0.0733;-0.8896;
1040.1000;0.0741;-0.8851;
1040.4000;0.0643;-0.9073;
1040.7000;0.0765;-0.8785;
1041.0000;0.0724;-0.8807;
1041.3000;0.0749;-0.8741;
1041.6000;0.0757;-0.8785;
1041.9000;0.0765;-0.8807;
1042.2000;0.0741;-0.8918;
1042.5000;0.0724;-0.9006;
1042.8000;0.0749;-0.8984;
1043.1000;0.0741;-0.9028;
1043.4000;0.0749;-0.8940;
1043.7000;0.0741;-0.8984;
1044.0000;0.0724;-0.9006;
1044.3000;0.0765;-0.8896;
1044.6000;0.0724;-0.8896;
1044.9000;0.0749;-0.8829;
1045.2000;0.0773;-0.8785;
1045.5000;0.0806;-0.8696;
1045.8000;0.0692;-0.8918;
1046.1000;0.0724;-0.8829;
1046.4000;0.0757;-0.8785;
1046.7000;0.0822;-0.8674;
1047.0000;0.0733;-0.8918;
1047.3000;0.0733;-0.8940;
1047.6000;0.0781;-0.8807;
1047.9000;0.0798;-0.8718;
1048.2000;0.0757;-0.8829;
1048.5000;0.0757;-0.8829;
1048.8000;0.0741;-0.8918;
1049.1000;0.0757;-0.8940;
1049.4000;0.0749;-0.8940;
1049.7000;0.0733;-0.9073;
1050.0000;0.0733;-0.9095;
1050.3000;0.0765;-0.9028;
1050.6000;0.0765;-0.9050;
1050.9000;0.0716;-0.9205;
1051.2000;0.0749;-0.9139;
1051.5000;0.0773;-0.9050;
1051.8000;0.0724;-0.9073;
1052.1000;0.0798;-0.8873;
1052.4000;0.0741;-0.8940;
1052.7000;0.0741;-0.8918;
1053.0000;0.0749;-0.8807;
1053.3000;0.0716;-0.8896;
1053.6000;0.0741;-0.8851;
1053.9000;0.0692;-0.8984;
1054.2000;0.0765;-0.8896;
1054.5000;0.0724;-0.8984;
1054.8000;0.0741;-0.8962;
1055.1000;0.0733;-0.8962;
1055.4000;0.0716;-0.9006;
1055.7000;0.0733;-0.8984;
1056.0000;0.0716;-0.9006;
1056.3000;0.0781;-0.8918;
1056.6000;0.0749;-0.9073;
1056.9000;0.0733;-0.9161;
1057.2000;0.0765;-0.9006;
1057.5000;0.0749;-0.8962;
1057.8000;0.0676;-0.9139;
1058.1000;0.0724;-0.9028;
1058.4000;0.0741;-0.9073;
1058.7000;0.0887;-0.8696;
1059.0000;0.0757;-0.8962;
1059.3000;0.0692;-0.9117;
1059.6000;0.0855;-0.8741;
1059.9000;0.0700;-0.9050;
1060.2000;0.0773;-0.8940;
1060.5000;0.0749;-0.8940;
1060.8000;0.0765;-0.8940;
1061.1000;0.0659;-0.9227;
1061.4000;0.0855;-0.8718;
1061.7000;0.0724;-0.9117;
1062.0000;0.0733;-0.9227;
1062.3000;0.0741;-0.9117;
1062.6000;0.0781;-0.9006;
1062.9000;0.0741;-0.9095;
1063.2000;0.0765;-0.9028;
1063.5000;0.0741;-0.9050;
1063.8000;0.0757;-0.8962;
1064.1000;0.0757;-0.8984;
1064.4000;0.0773;-0.9006;
1064.7000;0.0765;-0.9028;
1065.0000;0.0773;-0.8962;
1065.3000;0.0733;-0.9006;
1065.6000;0.0765;-0.8984;
1065.9000;0.0676;-0.9205;
1066.2000;0.0765;-0.9073;
1066.5000;0.0733;-0.9139;
1066.8000;0.0830;-0.8873;
1067.1000;0.0749;-0.9050;
1067.4000;0.0724;-0.9227;
1067.7000;0.0765;-0.9161;
1068.0000;0.0757;-0.9139;
1068.3000;0.0757;-0.9028;
1068.6000;0.0765;-0.9073;
1068.9000;0.0716;-0.9161;
1069.2000;0.0749;-0.9073;
1069.5000;0.0765;-0.9073;
1069.8000;0.0749;-0.9117;
1070.1000;0.0733;-0.9227;
1070.4000;0.0790;-0.9073;
1070.7000;0.0765;-0.9117;
1071.0000;0.0871;-0.8807;
1071.3000;0.0757;-0.9205;
1071.6000;0.0773;-0.9183;
1071.9000;0.0724;-0.9316;
1072.2000;0.0790;-0.9161;
1072.5000;0.0741;-0.9382;
1072.8000;0.0757;-0.9294;
1073.1000;0.0733;-0.9382;
1073.4000;0.0741;-0.9117;
1073.7000;0.0741;-0.9183;
1074.0000;0.0749;-0.9161;
1074.3000;0.0749;-0.9117;
1074.6000;0.0790;-0.9050;
1074.9000;0.0814;-0.9006;
1075.2000;0.0733;-0.9117;
1075.5000;0.0781;-0.9028;
1075.8000;0.0741;-0.9272;
1076.1000;0.0700;-0.9427;
1076.4000;0.0757;-0.9294;
1076.7000;0.0733;-0.9294;
1077.0000;0.0741;-0.9316;
1077.3000;0.0716;-0.9316;
1077.6000;0.0757;-0.9183;
1077.9000;0.0733;-0.9117;
1078.2000;0.0741;-0.9117;
1078.5000;0.0724;-0.9161;
1078.8000;0.0733;-0.9139;
1079.1000;0.0822;-0.9006;
1079.4000;0.0741;-0.9139;
1079.7000;0.0765;-0.9117;
1080.0000;0.0724;-0.9183;
1080.3000;0.0838;-0.8896;
1080.6000;0.0733;-0.9161;
1080.9000;0.0708;-0.9250;
1081.2000;0.0822;-0.8940;
1081.5000;0.0716;-0.9117;
1081.8000;0.0781;-0.9006;
1082.1000;0.0611;-0.9427;
1082.4000;0.0692;-0.9250;
1082.7000;0.0757;-0.9006;
1083.0000;0.0806;-0.8896;
1083.3000;0.0741;-0.9006;
1083.6000;0.0667;-0.9139;
1083.9000;0.0741;-0.8873;
1084.2000;0.0773;-0.8873;
1084.5000;0.0749;-0.9028;
1084.8000;0.0773;-0.8851;
1085.1000;0.0757;-0.8962;
1085.4000;0.0716;-0.9006;
1085.7000;0.0749;-0.9050;
1086.0000;0.0798;-0.8984;
1086.3000;0.0781;-0.8984;
1086.6000;0.0757;-0.9006;
1086.9000;0.0757;-0.9073;
1087.2000;0.0724;-0.9117;
1087.5000;0.0765;-0.9006;
1087.8000;0.0741;-0.9050;
1088.1000;0.0684;-0.9117;
1088.4000;0.0684;-0.9139;
1088.7000;0.0757;-0.9006;
1089.0000;0.0757;-0.8896;
1089.3000;0.0733;-0.8940;
1089.6000;0.0757;-0.9006;
1089.9000;0.0724;-0.9006;
1090.2000;0.0724;-0.9050;
1090.5000;0.0708;-0.9139;
1090.8000;0.0749;-0.9161;
1091.1000;0.0765;-0.9073;
1091.4000;0.0708;-0.9250;
1091.7000;0.0741;-0.9205;
1092.0000;0.0741;-0.9161;
1092.3000;0.0749;-0.9095;
1092.6000;0.0741;-0.9117;
1092.9000;0.0822;-0.8896;
1093.2000;0.0741;-0.9139;
1093.5000;0.0741;-0.9050;
1093.8000;0.0765;-0.9050;
1094.1000;0.0757;-0.9095;
1094.4000;0.0733;-0.9183;
1094.7000;0.0700;-0.9316;
1095.0000;0.0708;-0.9316;
1095.3000;0.0692;-0.9316;
1095.6000;0.0749;-0.9161;
1095.9000;0.0733;-0.9227;
1096.2000;0.0741;-0.9139;
1096.5000;0.0733;-0.9161;
1096.8000;0.0700;-0.9227;
1097.1000;0.0798;-0.9028;
1097.4000;0.0724;-0.9227;
1097.7000;0.0749;-0.9095;
1098.0000;0.0724;-0.9073;
1098.3000;0.0814;-0.8851;
1098.6000;0.0733;-0.9028;
1098.9000;0.0749;-0.8962;
1099.2000;0.0749;-0.8962;
1099.5000;0.0708;-0.9073;
1099.8000;0.0749;-0.9006;
1100.1000;0.0733;-0.9050;
1100.4000;0.0757;-0.9073;
1100.7000;0.0741;-0.9095;
1101.0000;0.0749;-0.9117;
1101.3000;0.0684;-0.9250;
1101.6000;0.0724;-0.9117;
1101.9000;0.0724;-0.9095;
1102.2000;0.0757;-0.8962;
1102.5000;0.0741;-0.9050;
1102.8000;0.0765;-0.8962;
1103.1000;0.0773;-0.8962;
1103.4000;0.0733;-0.9050;
1103.7000;0.0749;-0.9050;
1104.0000;0.0790;-0.9006;
1104.3000;0.0724;-0.9227;
1104.6000;0.0733;-0.9227;
1104.9000;0.0749;-0.9028;
1105.2000;0.0724;-0.9161;
1105.5000;0.0741;-0.9117;
1105.8000;0.0749;-0.9117;
1106.1000;0.0733;-0.9205;
1106.4000;0.0724;-0.9205;
1106.7000;0.0700;-0.9205;
1107.0000;0.0733;-0.9095;
1107.3000;0.0724;-0.9139;
1107.6000;0.0757;-0.9095;
1107.9000;0.0855;-0.8873;
1108.2000;0.0798;-0.8940;
1108.5000;0.0741;-0.9050;
1108.8000;0.0806;-0.8896;
1109.1000;0.0749;-0.9095;
1109.4000;0.0741;-0.9050;
1109.7000;0.0741;-0.9073;
1110.0000;0.0749;-0.9050;
1110.3000;0.0716;-0.9117;
1110.6000;0.0724;-0.9095;
1110.9000;0.0765;-0.8984;
1111.2000;0.0733;-0.9073;
1111.5000;0.0741;-0.9117;
1111.8000;0.0724;-0.9272;
1112.1000;0.0765;-0.9095;
1112.4000;0.0749;-0.9117;
1112.7000;0.0733;-0.9073;
1113.0000;0.0749;-0.8984;
1113.3000;0.0733;-0.9095;
1113.6000;0.0757;-0.9095;
1113.9000;0.0749;-0.9117;
1114.2000;0.0749;-0.9028;
1114.5000;0.0724;-0.9028;
1114.8000;0.0790;-0.8940;
1115.1000;0.0741;-0.9073;
1115.4000;0.0757;-0.9050;
1115.7000;0.0724;-0.9095;
1116.0000;0.0741;-0.8918;
1116.3000;0.0814;-0.8741;
1116.6000;0.0741;-0.9028;
1116.9000;0.0757;-0.8918;
1117.2000;0.0741;-0.9050;
1117.5000;0.0757;-0.8940;
1117.8000;0.0716;-0.9073;
1118.1000;0.0733;-0.9028;
1118.4000;0.0749;-0.9050;
1118.7000;0.0724;-0.9117;
1119.0000;0.0757;-0.8940;
1119.3000;0.0741;-0.8918;
1119.6000;0.0749;-0.8940;
1119.9000;0.0749;-0.9050;
1120.2000;0.0724;-0.9183;
1120.5000;0.0749;-0.9183;
1120.8000;0.0765;-0.9139;
1121.1000;0.0749;-0.9205;
1121.4000;0.0586;-0.9537;
1121.7000;0.0741;-0.9117;
1122.0000;0.0765;-0.9073;
1122.3000;0.0757;-0.8984;
1122.6000;0.0749;-0.9050;
1122.9000;0.0749;-0.9095;
1123.2000;0.0741;-0.9161;
1123.5000;0.0773;-0.9139;
1123.8000;0.0708;-0.9294;
1124.1000;0.0765;-0.9183;
1124.4000;0.0684;-0.9338;
1124.7000;0.0749;-0.9205;
1125.0000;0.0879;-0.8918;
1125.3000;0.0724;-0.9161;
1125.6000;0.0773;-0.9073;
1125.9000;0.0724;-0.9183;
1126.2000;0.0757;-0.9050;
1126.5000;0.0724;-0.9183;
1126.8000;0.0733;-0.9117;
1127.1000;0.0741;-0.9095;
1127.4000;0.0822;-0.8896;
1127.7000;0.0749;-0.9095;
1128.0000;0.0733;-0.9117;
1128.3000;0.0733;-0.9073;
1128.6000;0.0749;-0.8984;
1128.9000;0.0733;-0.8873;
1129.2000;0.0700;-0.9050;
1129.5000;0.0871;-0.8586;
1129.8000;0.0741;-0.8829;
1130.1000;0.0765;-0.8873;
1130.4000;0.0749;-0.8940;
1130.7000;0.0724;-0.8984;
1131.0000;0.0733;-0.8962;
1131.3000;0.0659;-0.9205;
1131.6000;0.0741;-0.9050;
1131.9000;0.0733;-0.9095;
1132.2000;0.0733;-0.9073;
1132.5000;0.0659;-0.9294;
1132.8000;0.0692;-0.9272;
1133.1000;0.0757;-0.9139;
1133.4000;0.0757;-0.9161;
1133.7000;0.0757;-0.9183;
1134.0000;0.0741;-0.9250;
1134.3000;0.0724;-0.9316;
1134.6000;0.0741;-0.9338;
1134.9000;0.0741;-0.9272;
1135.2000;0.0749;-0.9183;
1135.5000;0.0757;-0.9183;
1135.8000;0.0741;-0.9205;
1136.1000;0.0716;-0.9272;
1136.4000;0.0700;-0.9227;
1136.7000;0.0733;-0.9205;
1137.0000;0.0765;-0.9183;
1137.3000;0.0724;-0.9205;
1137.6000;0.0749;-0.9028;
1137.9000;0.0790;-0.8962;
1138.2000;0.0757;-0.9073;
1138.5000;0.0724;-0.9095;
1138.8000;0.0757;-0.9161;
1139.1000;0.0757;-0.9161;
1139.4000;0.0757;-0.9205;
1139.7000;0.0733;-0.9316;
1140.0000;0.0708;-0.9360;
1140.3000;0.0684;-0.9404;
1140.6000;0.0716;-0.9338;
1140.9000;0.0749;-0.9338;
1141.2000;0.0741;-0.9360;
1141.5000;0.0749;-0.9294;
1141.8000;0.0741;-0.9316;
1142.1000;0.0741;-0.9294;
1142.4000;0.0741;-0.9250;
1142.7000;0.0733;-0.9338;
1143.0000;0.0724;-0.9404;
1143.3000;0.0741;-0.9272;
1143.6000;0.0757;-0.9272;
1143.9000;0.0749;-0.9183;
1144.2000;0.0741;-0.9250;
1144.5000;0.0708;-0.9294;
1144.8000;0.0692;-0.9272;
1145.1000;0.0733;-0.9205;
1145.4000;0.0741;-0.9250;
1145.7000;0.0790;-0.9073;
1146.0000;0.0716;-0.9250;
1146.3000;0.0733;-0.9227;
1146.6000;0.0676;-0.9382;
1146.9000;0.0757;-0.9139;
1147.2000;0.0749;-0.9028;
1147.5000;0.0741;-0.9050;
1147.8000;0.0733;-0.8984;
1148.1000;0.0757;-0.8962;
1148.4000;0.0749;-0.8984;
1148.7000;0.0554;-0.9449;
1149.0000;0.0733;-0.9028;
1149.3000;0.0749;-0.8940;
1149.6000;0.0724;-0.9006;
1149.9000;0.0765;-0.9006;
1150.2000;0.0733;-0.9050;
1150.5000;0.0806;-0.8962;
1150.8000;0.0781;-0.9117;
1151.1000;0.0749;-0.9117;
1151.4000;0.0676;-0.9272;
1151.7000;0.0798;-0.8962;
1152.0000;0.0806;-0.8918;
1152.3000;0.0716;-0.9050;
1152.6000;0.0724;-0.8984;
1152.9000;0.0741;-0.8962;
1153.2000;0.0904;-0.8519;
1153.5000;0.0765;-0.8873;
1153.8000;0.0692;-0.9028;
1154.1000;0.0741;-0.8940;
1154.4000;0.0773;-0.8918;
1154.7000;0.0667;-0.9139;
1155.0000;0.0716;-0.8940;
1155.3000;0.0749;-0.8873;
1155.6000;0.0773;-0.8873;
1155.9000;0.0741;-0.8896;
1156.2000;0.0733;-0.8896;
1156.5000;0.0684;-0.9073;
1156.8000;0.0741;-0.9006;
1157.1000;0.0749;-0.8918;
1157.4000;0.0700;-0.9073;
1157.7000;0.0741;-0.9028;
1158.0000;0.0765;-0.8984;
1158.3000;0.0716;-0.9028;
1158.6000;0.0757;-0.8962;
1158.9000;0.0749;-0.8873;
1159.2000;0.0757;-0.8873;
1159.5000;0.0757;-0.8940;
1159.8000;0.0749;-0.8962;
1160.1000;0.0741;-0.8962;
1160.4000;0.0765;-0.8873;
1160.7000;0.0757;-0.8962;
1161.0000;0.0741;-0.8962;
1161.3000;0.0708;-0.8962;
1161.6000;0.0733;-0.8829;
1161.9000;0.0733;-0.8807;
1162.2000;0.0749;-0.8851;
1162.5000;0.0724;-0.8984;
1162.8000;0.0724;-0.9006;
1163.1000;0.0716;-0.9006;
1163.4000;0.0741;-0.8962;
1163.7000;0.0733;-0.8851;
1164.0000;0.0781;-0.8785;
1164.3000;0.0724;-0.8896;
1164.6000;0.0741;-0.8873;
1164.9000;0.0733;-0.8896;
1165.2000;0.0724;-0.8918;
1165.5000;0.0741;-0.8873;
1165.8000;0.0716;-0.8940;
1166.1000;0.0741;-0.8851;
1166.4000;0.0765;-0.8918;
1166.7000;0.0757;-0.8896;
1167.0000;0.0733;-0.8940;
1167.3000;0.0757;-0.8851;
1167.6000;0.0659;-0.9095;
1167.9000;0.0741;-0.8918;
1168.2000;0.0733;-0.8962;
1168.5000;0.0765;-0.8918;
1168.8000;0.0741;-0.8962;
1169.1000;0.0749;-0.8851;
1169.4000;0.0855;-0.8652;
1169.7000;0.0602;-0.9161;
1170.0000;0.0806;-0.8630;
1170.3000;0.0741;-0.8829;
1170.6000;0.0659;-0.9006;
1170.9000;0.0749;-0.8851;
1171.2000;0.0749;-0.8896;
1171.5000;0.0749;-0.8873;
1171.8000;0.0757;-0.8851;
1172.1000;0.0765;-0.8940;
1172.4000;0.0757;-0.8962;
1172.7000;0.0635;-0.9161;
1173.0000;0.0619;-0.9183;
1173.3000;0.0749;-0.8873;
1173.6000;0.0781;-0.8763;
1173.9000;0.0741;-0.8851;
1174.2000;0.0724;-0.8896;
1174.5000;0.0741;-0.8896;
1174.8000;0.0749;-0.8896;
1175.1000;0.0806;-0.8696;
1175.4000;0.0667;-0.9028;
1175.7000;0.0716;-0.8940;
1176.0000;0.0733;-0.8896;
1176.3000;0.0716;-0.8873;
1176.6000;0.0749;-0.8873;
1176.9000;0.0781;-0.8896;
1177.2000;0.0741;-0.8984;
1177.5000;0.0733;-0.9095;
1177.8000;0.0667;-0.9183;
1178.1000;0.0676;-0.9117;
1178.4000;0.0847;-0.8718;
1178.7000;0.0716;-0.9050;
1179.0000;0.0749;-0.8940;
1179.3000;0.0741;-0.8873;
1179.6000;0.0765;-0.8785;
1179.9000;0.0773;-0.8807;
1180.2000;0.0741;-0.9006;
1180.5000;0.0741;-0.9050;
1180.8000;0.0741;-0.9028;
1181.1000;0.0716;-0.9050;
1181.4000;0.0741;-0.9050;
1181.7000;0.0733;-0.8984;
1182.0000;0.0749;-0.8962;
1182.3000;0.0733;-0.9050;
1182.6000;0.0741;-0.9006;
1182.9000;0.0741;-0.8984;
1183.2000;0.0741;-0.8962;
1183.5000;0.0733;-0.9073;
1183.8000;0.0733;-0.9006;
1184.1000;0.0741;-0.8984;
1184.4000;0.0684;-0.9028;
1184.7000;0.0765;-0.8829;
1185.0000;0.0724;-0.8896;
1185.3000;0.0708;-0.8918;
1185.6000;0.0741;-0.8851;
1185.9000;0.0749;-0.8829;
1186.2000;0.0708;-0.8873;
1186.5000;0.0757;-0.8918;
1186.8000;0.0700;-0.9095;
1187.1000;0.0724;-0.8984;
1187.4000;0.0741;-0.8896;
1187.7000;0.0757;-0.8829;
1188.0000;0.0741;-0.8896;
1188.3000;0.0611;-0.9183;
1188.6000;0.0741;-0.8829;
1188.9000;0.0765;-0.8807;
1189.2000;0.0700;-0.8940;
1189.5000;0.0757;-0.8763;
1189.8000;0.0741;-0.8785;
1190.1000;0.0741;-0.8741;
1190.4000;0.0757;-0.8763;
1190.7000;0.0741;-0.8851;
1191.0000;0.0757;-0.8807;
1191.3000;0.0733;-0.8829;
1191.6000;0.0814;-0.8696;
1191.9000;0.0741;-0.8851;
1192.2000;0.0749;-0.8807;
1192.5000;0.0773;-0.8696;
1192.8000;0.0741;-0.8829;
1193.1000;0.0700;-0.8896;
1193.4000;0.0700;-0.8962;
1193.7000;0.0790;-0.8851;
1194.0000;0.0757;-0.8940;
1194.3000;0.0724;-0.8962;
1194.6000;0.0749;-0.8873;
1194.9000;0.0692;-0.9006;
1195.2000;0.0741;-0.8851;
1195.5000;0.0741;-0.8829;
1195.8000;0.0724;-0.8873;
1196.1000;0.0733;-0.8807;
1196.4000;0.0757;-0.8807;
1196.7000;0.0765;-0.8741;
1197.0000;0.0684;-0.8984;
1197.3000;0.0724;-0.8940;
1197.6000;0.0733;-0.8918;
1197.9000;0.0749;-0.8873;
1198.2000;0.0716;-0.8962;
1198.5000;0.0724;-0.8940;
1198.8000;0.0749;-0.8896;
1199.1000;0.0773;-0.8829;
1199.4000;0.0749;-0.8851;
1199.7000;0.0716;-0.8962;
1200.0000;0.0757;-0.8940;
1200.3000;0.0733;-0.8984;
1200.6000;0.0773;-0.8873;
1200.9000;0.0749;-0.8896;
1201.2000;0.0749;-0.8940;
1201.5000;0.0765;-0.8829;
1201.8000;0.0692;-0.8940;
1202.1000;0.0749;-0.8807;
1202.4000;0.0741;-0.8896;
1202.7000;0.0733;-0.9050;
1203.0000;0.0741;-0.9095;
1203.3000;0.0741;-0.9183;
1203.6000;0.0741;-0.9183;
1203.9000;0.0659;-0.9338;
1204.2000;0.0814;-0.8984;
1204.5000;0.0716;-0.9183;
1204.8000;0.0847;-0.8851;
1205.1000;0.0741;-0.9183;
1205.4000;0.0716;-0.9205;
1205.7000;0.0741;-0.9117;
1206.0000;0.0741;-0.9161;
1206.3000;0.0733;-0.9183;
1206.6000;0.0708;-0.9338;
1206.9000;0.0716;-0.9250;
1207.2000;0.0733;-0.9139;
1207.5000;0.0757;-0.9117;
1207.8000;0.0741;-0.9117;
1208.1000;0.0741;-0.9117;
1208.4000;0.0741;-0.9095;
1208.7000;0.0741;-0.9050;
1209.0000;0.0627;-0.9227;
1209.3000;0.0749;-0.8918;
1209.6000;0.0741;-0.8873;
1209.9000;0.0733;-0.8984;
1210.2000;0.0757;-0.9050;
1210.5000;0.0733;-0.9050;
1210.8000;0.0741;-0.9073;
1211.1000;0.0757;-0.9006;
1211.4000;0.0749;-0.8984;
1211.7000;0.0757;-0.9006;
1212.0000;0.0733;-0.8984;
1212.3000;0.0749;-0.8940;
1212.6000;0.0749;-0.8896;
1212.9000;0.0749;-0.8807;
1213.2000;0.0741;-0.8873;
1213.5000;0.0912;-0.8497;
1213.8000;0.0773;-0.8896;
1214.1000;0.0708;-0.9095;
1214.4000;0.0847;-0.8696;
1214.7000;0.0724;-0.8940;
1215.0000;0.0733;-0.8962;
1215.3000;0.0757;-0.8896;
1215.6000;0.0749;-0.8873;
1215.9000;0.0733;-0.8873;
1216.2000;0.0749;-0.8851;
1216.5000;0.0741;-0.8896;
1216.8000;0.0757;-0.8896;
1217.1000;0.0741;-0.8984;
1217.4000;0.0733;-0.8940;
1217.7000;0.0741;-0.8984;
1218.0000;0.0773;-0.8940;
1218.3000;0.0741;-0.9050;
1218.6000;0.0765;-0.9073;
1218.9000;0.0733;-0.9139;
1219.2000;0.0765;-0.8940;
1219.5000;0.0700;-0.9050;
1219.8000;0.0749;-0.8940;
1220.1000;0.0749;-0.8896;
1220.4000;0.0757;-0.8896;
1220.7000;0.0757;-0.8851;
1221.0000;0.0749;-0.8873;
1221.3000;0.0765;-0.8807;
1221.6000;0.0749;-0.8984;
1221.9000;0.0822;-0.8851;
1222.2000;0.0741;-0.9006;
1222.5000;0.0741;-0.8962;
1222.8000;0.0733;-0.9028;
1223.1000;0.0830;-0.8807;
1223.4000;0.0757;-0.8984;
1223.7000;0.0749;-0.8918;
1224.0000;0.0733;-0.8940;
1224.3000;0.0757;-0.8851;
1224.6000;0.0757;-0.8785;
1224.9000;0.0749;-0.8829;
1225.2000;0.0749;-0.8851;
1225.5000;0.0773;-0.8785;
1225.8000;0.0806;-0.8674;
1226.1000;0.0741;-0.8896;
1226.4000;0.0716;-0.8962;
1226.7000;0.0741;-0.8940;
1227.0000;0.0757;-0.8873;
1227.3000;0.0684;-0.9028;
1227.6000;0.0773;-0.8763;
1227.9000;0.0749;-0.8829;
1228.2000;0.0757;-0.8785;
1228.5000;0.0757;-0.8851;
1228.8000;0.0741;-0.8851;
1229.1000;0.0773;-0.8807;
1229.4000;0.0741;-0.8962;
1229.7000;0.0749;-0.9028;
1230.0000;0.0708;-0.9050;
1230.3000;0.0716;-0.9006;
1230.6000;0.0749;-0.8940;
1230.9000;0.0749;-0.9006;
1231.2000;0.0733;-0.9050;
1231.5000;0.0765;-0.8940;
1231.8000;0.0790;-0.8984;
1232.1000;0.0757;-0.9205;
1232.4000;0.0773;-0.9183;
1232.7000;0.0724;-0.9227;
1233.0000;0.0757;-0.9139;
1233.3000;0.0790;-0.9006;
1233.6000;0.0781;-0.8918;
1233.9000;0.0765;-0.8829;
1234.2000;0.0757;-0.8940;
1234.5000;0.0724;-0.9050;
1234.8000;0.0790;-0.8962;
1235.1000;0.0733;-0.9006;
1235.4000;0.0708;-0.9006;
1235.7000;0.0765;-0.8785;
1236.0000;0.0741;-0.8785;
1236.3000;0.0741;-0.8785;
1236.6000;0.0773;-0.8718;
1236.9000;0.0733;-0.8829;
1237.2000;0.0765;-0.8851;
1237.5000;0.0757;-0.8807;
1237.8000;0.0741;-0.8785;
1238.1000;0.0741;-0.8807;
1238.4000;0.0765;-0.8718;
1238.7000;0.0716;-0.8851;
1239.0000;0.0733;-0.8851;
1239.3000;0.0757;-0.8807;
1239.6000;0.0749;-0.8829;
1239.9000;0.0741;-0.8896;
1240.2000;0.0724;-0.8873;
1240.5000;0.0749;-0.8940;
1240.8000;0.0757;-0.8962;
1241.1000;0.0741;-0.8940;
1241.4000;0.0741;-0.8807;
1241.7000;0.0749;-0.8807;
1242.0000;0.0716;-0.8873;
1242.3000;0.0733;-0.8851;
1242.6000;0.0765;-0.8829;
1242.9000;0.0741;-0.8873;
1243.2000;0.0749;-0.8918;
1243.5000;0.0757;-0.8940;
1243.8000;0.0749;-0.8962;
1244.1000;0.0724;-0.9073;
1244.4000;0.0733;-0.8984;
1244.7000;0.0733;-0.8984;
1245.0000;0.0684;-0.9050;
1245.3000;0.0733;-0.8918;
1245.6000;0.0847;-0.8630;
1245.9000;0.0741;-0.8873;
1246.2000;0.0830;-0.8763;
1246.5000;0.0741;-0.8962;
1246.8000;0.0667;-0.9073;
1247.1000;0.0692;-0.9028;
1247.4000;0.0773;-0.8851;
1247.7000;0.0749;-0.8962;
1248.0000;0.0733;-0.9006;
1248.3000;0.0757;-0.8940;
1248.6000;0.0619;-0.9183;
1248.9000;0.0741;-0.8962;
1249.2000;0.0741;-0.8962;
1249.5000;0.0708;-0.9095;
1249.8000;0.0765;-0.8918;
1250.1000;0.0724;-0.8984;
1250.4000;0.0733;-0.8940;
1250.7000;0.0724;-0.8896;
1251.0000;0.0749;-0.8851;
1251.3000;0.0814;-0.8630;
1251.6000;0.0733;-0.8851;
1251.9000;0.0879;-0.8608;
1252.2000;0.0765;-0.8940;
1252.5000;0.0724;-0.8940;
1252.8000;0.0749;-0.8785;
1253.1000;0.0741;-0.8807;
1253.4000;0.0741;-0.8851;
1253.7000;0.0790;-0.8741;
1254.0000;0.0757;-0.8873;
1254.3000;0.0741;-0.8940;
1254.6000;0.0724;-0.9028;
1254.9000;0.0676;-0.9205;
1255.2000;0.0741;-0.9028;
1255.5000;0.0749;-0.8918;
1255.8000;0.0773;-0.8896;
1256.1000;0.0757;-0.8940;
1256.4000;0.0733;-0.9006;
1256.7000;0.0724;-0.9073;
1257.0000;0.0733;-0.9050;
1257.3000;0.0830;-0.8829;
1257.6000;0.0749;-0.9028;
1257.9000;0.0765;-0.8962;
1258.2000;0.0684;-0.9117;
1258.5000;0.0716;-0.9050;
1258.8000;0.0724;-0.9117;
1259.1000;0.0741;-0.9006;
1259.4000;0.0757;-0.8829;
1259.7000;0.0749;-0.8851;
1260.0000;0.0741;-0.8873;
1260.3000;0.0724;-0.8873;
1260.6000;0.0733;-0.8785;
1260.9000;0.0749;-0.8696;
1261.2000;0.0765;-0.8674;
1261.5000;0.0733;-0.8674;
1261.8000;0.0733;-0.8763;
1262.1000;0.0741;-0.8785;
1262.4000;0.0724;-0.8829;
1262.7000;0.0814;-0.8696;
1263.0000;0.0749;-0.8785;
1263.3000;0.0765;-0.8807;
1263.6000;0.0757;-0.8785;
1263.9000;0.0741;-0.8763;
1264.2000;0.0757;-0.8718;
1264.5000;0.0667;-0.8918;
1264.8000;0.0733;-0.8674;
1265.1000;0.0765;-0.8586;
1265.4000;0.0716;-0.8763;
1265.7000;0.0757;-0.8741;
1266.0000;0.0741;-0.8807;
1266.3000;0.0741;-0.8785;
1266.6000;0.0733;-0.8785;
1266.9000;0.0733;-0.8829;
1267.2000;0.0733;-0.8763;
1267.5000;0.0733;-0.8829;
1267.8000;0.0741;-0.8829;
1268.1000;0.0733;-0.8873;
1268.4000;0.0765;-0.8785;
1268.7000;0.0741;-0.8829;
1269.0000;0.0741;-0.8785;
1269.3000;0.0765;-0.8785;
1269.6000;0.0659;-0.9139;
1269.9000;0.0757;-0.8918;
1270.2000;0.0806;-0.8785;
1270.5000;0.0790;-0.8785;
1270.8000;0.0724;-0.8962;
1271.1000;0.0749;-0.8962;
1271.4000;0.0749;-0.8896;
1271.7000;0.0716;-0.8940;
1272.0000;0.0724;-0.8940;
1272.3000;0.0741;-0.8940;
1272.6000;0.0684;-0.9139;
1272.9000;0.0790;-0.8807;
1273.2000;0.0724;-0.9006;
1273.5000;0.0741;-0.8962;
1273.8000;0.0765;-0.8984;
1274.1000;0.0741;-0.9006;
1274.4000;0.0749;-0.9050;
1274.7000;0.0765;-0.8984;
1275.0000;0.0749;-0.8984;
1275.3000;0.0741;-0.8984;
1275.6000;0.0749;-0.8940;
1275.9000;0.0700;-0.9050;
1276.2000;0.0659;-0.9161;
1276.5000;0.0724;-0.9050;
1276.8000;0.0733;-0.8984;
1277.1000;0.0733;-0.8896;
1277.4000;0.0733;-0.8962;
1277.7000;0.0757;-0.8962;
1278.0000;0.0741;-0.8962;
1278.3000;0.0757;-0.8962;
1278.6000;0.0724;-0.9050;
1278.9000;0.0741;-0.9095;
1279.2000;0.0741;-0.9006;
1279.5000;0.0724;-0.9006;
1279.8000;0.0781;-0.8851;
1280.1000;0.0651;-0.9073;
1280.4000;0.0741;-0.8829;
1280.7000;0.0676;-0.8940;
1281.0000;0.0708;-0.8896;
1281.3000;0.0724;-0.8851;
1281.6000;0.0781;-0.8741;
1281.9000;0.0741;-0.8785;
1282.2000;0.0667;-0.9050;
1282.5000;0.0757;-0.8851;
1282.8000;0.0733;-0.8896;
1283.1000;0.0741;-0.8851;
1283.4000;0.0659;-0.9095;
1283.7000;0.0733;-0.8873;
1284.0000;0.0724;-0.8940;
1284.3000;0.0724;-0.8918;
1284.6000;0.0773;-0.8785;
1284.9000;0.0708;-0.8962;
1285.2000;0.0741;-0.8785;
1285.5000;0.0757;-0.8741;
1285.8000;0.0749;-0.8785;
1286.1000;0.0741;-0.8785;
1286.4000;0.0781;-0.8696;
1286.7000;0.0733;-0.8807;
1287.0000;0.0749;-0.8785;
1287.3000;0.0757;-0.8807;
1287.6000;0.0692;-0.8918;
1287.9000;0.0838;-0.8541;
1288.2000;0.0716;-0.8829;
1288.5000;0.0814;-0.8674;
1288.8000;0.0757;-0.8873;
1289.1000;0.0781;-0.8763;
1289.4000;0.0749;-0.8807;
1289.7000;0.0749;-0.8829;
1290.0000;0.0749;-0.8896;
1290.3000;0.0757;-0.8896;
1290.6000;0.0749;-0.8896;
1290.9000;0.0757;-0.8851;
1291.2000;0.0741;-0.8807;
1291.5000;0.0749;-0.8829;
1291.8000;0.0887;-0.8586;
1292.1000;0.0757;-0.8962;
1292.4000;0.0757;-0.9028;
1292.7000;0.0716;-0.9095;
1293.0000;0.0773;-0.8896;
1293.3000;0.0765;-0.8918;
1293.6000;0.0659;-0.9227;
1293.9000;0.0757;-0.9028;
1294.2000;0.0733;-0.9073;
1294.5000;0.0749;-0.9095;
1294.8000;0.0667;-0.9338;
1295.1000;0.0749;-0.9250;
1295.4000;0.0676;-0.9294;
1295.7000;0.0733;-0.9183;
1296.0000;0.0733;-0.9139;
1296.3000;0.0773;-0.9073;
1296.6000;0.0684;-0.9272;
1296.9000;0.0716;-0.9095;
1297.2000;0.0708;-0.9139;
1297.5000;0.0781;-0.8962;
1297.8000;0.0749;-0.8918;
1298.1000;0.0765;-0.8896;
1298.4000;0.0733;-0.8984;
1298.7000;0.0757;-0.9028;
1299.0000;0.0741;-0.9028;
1299.3000;0.0757;-0.9073;
1299.6000;0.0733;-0.9161;
1299.9000;0.0741;-0.9161;
1300.2000;0.0790;-0.9073;
1300.5000;0.0733;-0.9294;
1300.8000;0.0733;-0.9316;
1301.1000;0.0724;-0.9294;
1301.4000;0.0733;-0.9250;
1301.7000;0.0749;-0.9227;
1302.0000;0.0749;-0.9227;
1302.3000;0.0749;-0.9227;
1302.6000;0.0733;-0.9272;
1302.9000;0.0757;-0.9227;
1303.2000;0.0749;-0.9272;
1303.5000;0.0757;-0.9205;
1303.8000;0.0716;-0.9161;
1304.1000;0.0724;-0.9073;
1304.4000;0.0741;-0.9050;
1304.7000;0.0749;-0.9073;
1305.0000;0.0757;-0.9117;
1305.3000;0.0765;-0.9073;
1305.6000;0.0741;-0.9161;
1305.9000;0.0749;-0.9073;
1306.2000;0.0700;-0.9161;
1306.5000;0.0741;-0.9073;
1306.8000;0.0724;-0.9050;
1307.1000;0.0724;-0.9050;
1307.4000;0.0716;-0.9139;
1307.7000;0.0765;-0.9050;
1308.0000;0.0757;-0.9095;
1308.3000;0.0724;-0.9227;
1308.6000;0.0716;-0.9272;
1308.9000;0.0741;-0.9161;
1309.2000;0.0733;-0.9139;
1309.5000;0.0773;-0.8984;
1309.8000;0.0733;-0.9073;
1310.1000;0.0741;-0.8984;
1310.4000;0.0676;-0.9139;
1310.7000;0.0692;-0.9183;
1311.0000;0.0733;-0.9139;
1311.3000;0.0798;-0.9095;
1311.6000;0.0790;-0.9050;
1311.9000;0.0749;-0.9139;
1312.2000;0.0741;-0.9183;
1312.5000;0.0741;-0.9095;
1312.8000;0.0765;-0.8962;
1313.1000;0.0757;-0.8962;
1313.4000;0.0741;-0.8984;
1313.7000;0.0733;-0.9028;
1314.0000;0.0749;-0.8984;
1314.3000;0.0749;-0.8918;
1314.6000;0.0724;-0.8940;
1314.9000;0.0765;-0.8896;
1315.2000;0.0716;-0.8918;
1315.5000;0.0749;-0.8807;
1315.8000;0.0692;-0.8984;
1316.1000;0.0724;-0.8918;
1316.4000;0.0716;-0.8918;
1316.7000;0.0757;-0.8896;
1317.0000;0.0724;-0.8940;
1317.3000;0.0716;-0.9095;
1317.6000;0.0733;-0.9028;
1317.9000;0.0635;-0.9338;
1318.2000;0.0757;-0.9028;
1318.5000;0.0716;-0.9028;
1318.8000;0.0741;-0.9006;
1319.1000;0.0749;-0.9006;
1319.4000;0.0757;-0.8918;
1319.7000;0.0749;-0.9006;
1320.0000;0.0749;-0.8940;
1320.3000;0.0773;-0.8873;
1320.6000;0.0765;-0.8896;
1320.9000;0.0724;-0.9006;
1321.2000;0.0676;-0.9117;
1321.5000;0.0749;-0.8918;
1321.8000;0.0724;-0.8851;
1322.1000;0.0724;-0.8807;
1322.4000;0.0733;-0.8807;
1322.7000;0.0733;-0.8763;
1323.0000;0.0749;-0.8763;
1323.3000;0.0749;-0.8741;
1323.6000;0.0741;-0.8741;
1323.9000;0.0749;-0.8785;
1324.2000;0.0757;-0.8807;
1324.5000;0.0757;-0.8873;
1324.8000;0.0635;-0.9250;
1325.1000;0.0749;-0.8962;
1325.4000;0.0733;-0.8962;
1325.7000;0.0741;-0.8896;
1326.0000;0.0733;-0.8851;
1326.3000;0.0684;-0.8940;
1326.6000;0.0749;-0.8807;
1326.9000;0.0749;-0.8851;
1327.2000;0.0798;-0.8674;
1327.5000;0.0749;-0.8896;
1327.8000;0.0773;-0.8807;
1328.1000;0.0716;-0.8984;
1328.4000;0.0700;-0.9050;
1328.7000;0.0733;-0.8896;
1329.0000;0.0741;-0.9028;
1329.3000;0.0798;-0.8962;
1329.6000;0.0749;-0.9117;
1329.9000;0.0708;-0.9161;
1330.2000;0.0684;-0.9205;
1330.5000;0.0765;-0.8940;
1330.8000;0.0716;-0.8940;
1331.1000;0.0741;-0.8918;
1331.4000;0.0765;-0.8807;
1331.7000;0.0733;-0.8896;
1332.0000;0.0716;-0.8962;
1332.3000;0.0716;-0.8962;
1332.6000;0.0741;-0.8851;
1332.9000;0.0733;-0.8873;
1333.2000;0.0733;-0.9050;
1333.5000;0.0733;-0.9073;
1333.8000;0.0692;-0.9117;
1334.1000;0.0741;-0.9006;
1334.4000;0.0749;-0.9073;
1334.7000;0.0765;-0.9050;
1335.0000;0.0749;-0.9117;
1335.3000;0.0749;-0.9050;
1335.6000;0.0733;-0.9006;
1335.9000;0.0790;-0.8851;
1336.2000;0.0749;-0.8829;
1336.5000;0.0741;-0.8896;
1336.8000;0.0741;-0.8851;
1337.1000;0.0757;-0.8763;
1337.4000;0.0765;-0.8696;
1337.7000;0.0749;-0.8741;
1338.0000;0.0716;-0.8851;
1338.3000;0.0724;-0.8873;
1338.6000;0.0741;-0.8829;
1338.9000;0.0822;-0.8608;
1339.2000;0.0733;-0.8918;
1339.5000;0.0757;-0.8918;
1339.8000;0.0602;-0.9227;
1340.1000;0.0741;-0.8873;
1340.4000;0.0733;-0.8962;
1340.7000;0.0708;-0.9028;
1341.0000;0.0741;-0.8851;
1341.3000;0.0806;-0.8696;
1341.6000;0.0733;-0.8873;
1341.9000;0.0708;-0.8873;
1342.2000;0.0684;-0.8918;
1342.5000;0.0724;-0.8829;
1342.8000;0.0733;-0.8785;
1343.1000;0.0733;-0.8763;
1343.4000;0.0741;-0.8696;
1343.7000;0.0838;-0.8541;
1344.0000;0.0749;-0.8718;
1344.3000;0.0798;-0.8630;
1344.6000;0.0822;-0.8696;
1344.9000;0.0733;-0.8851;
1345.2000;0.0749;-0.8851;
1345.5000;0.0716;-0.8873;
1345.8000;0.0733;-0.8851;
1346.1000;0.0733;-0.8940;
1346.4000;0.0708;-0.9006;
1346.7000;0.0773;-0.8962;
1347.0000;0.0773;-0.8807;
1347.3000;0.0733;-0.8896;
1347.6000;0.0749;-0.8829;
1347.9000;0.0708;-0.8896;
1348.2000;0.0781;-0.8785;
1348.5000;0.0741;-0.8918;
1348.8000;0.0757;-0.8918;
1349.1000;0.0822;-0.8763;
1349.4000;0.0749;-0.8896;
1349.7000;0.0741;-0.8873;
1350.0000;0.0847;-0.8608;
1350.3000;0.0749;-0.8718;
1350.6000;0.0741;-0.8763;
1350.9000;0.0830;-0.8586;
1351.2000;0.0733;-0.8940;
1351.5000;0.0749;-0.8896;
1351.8000;0.0773;-0.8829;
1352.1000;0.0741;-0.8918;
1352.4000;0.0741;-0.8851;
1352.7000;0.0676;-0.9183;
1353.0000;0.0724;-0.9073;
1353.3000;0.0676;-0.9161;
1353.6000;0.0765;-0.8962;
1353.9000;0.0716;-0.9050;
1354.2000;0.0667;-0.9183;
1354.5000;0.0667;-0.9161;
1354.8000;0.0700;-0.9095;
1355.1000;0.0749;-0.8984;
1355.4000;0.0741;-0.9028;
1355.7000;0.0814;-0.8829;
1356.0000;0.0749;-0.8940;
1356.3000;0.0724;-0.9006;
1356.6000;0.0700;-0.9050;
1356.9000;0.0724;-0.8984;
1357.2000;0.0749;-0.8918;
1357.5000;0.0757;-0.8896;
1357.8000;0.0749;-0.8873;
1358.1000;0.0741;-0.8873;
1358.4000;0.0733;-0.8896;
1358.7000;0.0733;-0.8807;
1359.0000;0.0741;-0.8807;
1359.3000;0.0733;-0.8918;
1359.6000;0.0741;-0.8940;
1359.9000;0.0733;-0.8984;
1360.2000;0.0741;-0.8962;
1360.5000;0.0659;-0.9272;
1360.8000;0.0757;-0.8984;
1361.1000;0.0741;-0.9050;
1361.4000;0.0643;-0.9382;
1361.7000;0.0757;-0.9117;
1362.0000;0.0749;-0.9050;
1362.3000;0.0790;-0.8851;
1362.6000;0.0871;-0.8652;
1362.9000;0.0741;-0.9050;
1363.2000;0.0733;-0.9095;
1363.5000;0.0838;-0.8873;
1363.8000;0.0822;-0.8918;
1364.1000;0.0741;-0.9117;
1364.4000;0.0773;-0.9006;
1364.7000;0.0765;-0.9050;
1365.0000;0.0757;-0.9073;
1365.3000;0.0773;-0.9050;
1365.6000;0.0847;-0.8807;
1365.9000;0.0716;-0.9095;
1366.2000;0.0724;-0.9073;
1366.5000;0.0741;-0.9050;
1366.8000;0.0765;-0.8940;
1367.1000;0.0741;-0.8984;
1367.4000;0.0733;-0.8962;
1367.7000;0.0733;-0.8962;
1368.0000;0.0741;-0.8918;
1368.3000;0.0749;-0.8851;
1368.6000;0.0708;-0.8918;
1368.9000;0.0724;-0.8851;
1369.2000;0.0757;-0.8785;
1369.5000;0.0700;-0.8940;
1369.8000;0.0733;-0.8807;
1370.1000;0.0741;-0.8807;
1370.4000;0.0741;-0.8851;
1370.7000;0.0765;-0.8873;
1371.0000;0.0716;-0.9073;
1371.3000;0.0724;-0.9050;
1371.6000;0.0741;-0.9050;
1371.9000;0.0741;-0.9006;
1372.2000;0.0724;-0.9028;
1372.5000;0.0700;-0.9073;
1372.8000;0.0749;-0.8873;
1373.1000;0.0806;-0.8696;
1373.4000;0.0757;-0.8763;
1373.7000;0.0724;-0.8851;
1374.0000;0.0676;-0.8940;
1374.3000;0.0724;-0.8829;
1374.6000;0.0741;-0.8718;
1374.9000;0.0790;-0.8652;
1375.2000;0.0733;-0.8829;
1375.5000;0.0716;-0.8829;
1375.8000;0.0716;-0.8896;
1376.1000;0.0733;-0.8829;
1376.4000;0.0741;-0.8696;
1376.7000;0.0724;-0.8696;
1377.0000;0.0741;-0.8763;
1377.3000;0.0716;-0.8918;
1377.6000;0.0757;-0.8718;
1377.9000;0.0741;-0.8674;
1378.2000;0.0757;-0.8586;
1378.5000;0.0765;-0.8519;
1378.8000;0.0724;-0.8630;
1379.1000;0.0757;-0.8586;
1379.4000;0.0806;-0.8453;
1379.7000;0.0773;-0.8586;
1380.0000;0.0716;-0.8763;
1380.3000;0.0838;-0.8431;
1380.6000;0.0798;-0.8431;
1380.9000;0.0757;-0.8497;
1381.2000;0.0741;-0.8608;
1381.5000;0.0749;-0.8564;
1381.8000;0.0781;-0.8519;
1382.1000;0.0749;-0.8586;
1382.4000;0.0716;-0.8674;
1382.7000;0.0749;-0.8630;
1383.0000;0.0724;-0.8630;
1383.3000;0.0724;-0.8608;
1383.6000;0.0773;-0.8497;
1383.9000;0.0765;-0.8497;
1384.2000;0.0757;-0.8541;
1384.5000;0.0741;-0.8630;
1384.8000;0.0757;-0.8608;
1385.1000;0.0855;-0.8387;
1385.4000;0.0708;-0.8718;
1385.7000;0.0635;-0.8918;
1386.0000;0.0741;-0.8674;
1386.3000;0.0635;-0.8896;
1386.6000;0.0741;-0.8608;
1386.9000;0.0716;-0.8718;
1387.2000;0.0667;-0.8829;
1387.5000;0.0863;-0.8342;
1387.8000;0.0716;-0.8763;
1388.1000;0.0741;-0.8763;
1388.4000;0.0757;-0.8763;
1388.7000;0.0749;-0.8741;
1389.0000;0.0781;-0.8696;
1389.3000;0.0741;-0.8696;
1389.6000;0.0749;-0.8630;
1389.9000;0.0716;-0.8696;
1390.2000;0.0741;-0.8630;
1390.5000;0.0773;-0.8586;
1390.8000;0.0741;-0.8674;
1391.1000;0.0749;-0.8586;
1391.4000;0.0790;-0.8519;
1391.7000;0.0724;-0.8541;
1392.0000;0.0733;-0.8608;
1392.3000;0.0708;-0.8763;
1392.6000;0.0741;-0.8630;
1392.9000;0.0765;-0.8586;
1393.2000;0.0749;-0.8652;
1393.5000;0.0757;-0.8630;
1393.8000;0.0708;-0.8718;
1394.1000;0.0716;-0.8696;
1394.4000;0.0733;-0.8652;
1394.7000;0.0773;-0.8586;
1395.0000;0.0724;-0.8696;
1395.3000;0.0733;-0.8696;
1395.6000;0.0749;-0.8696;
1395.9000;0.0716;-0.8763;
1396.2000;0.0749;-0.8763;
1396.5000;0.0741;-0.8674;
1396.8000;0.0814;-0.8497;
1397.1000;0.0773;-0.8652;
1397.4000;0.0765;-0.8652;
1397.7000;0.0741;-0.8652;
1398.0000;0.0749;-0.8586;
1398.3000;0.0724;-0.8696;
1398.6000;0.0757;-0.8674;
1398.9000;0.0749;-0.8718;
1399.2000;0.0765;-0.8652;
1399.5000;0.0741;-0.8630;
1399.8000;0.0724;-0.8741;
