time/ms;Fluo/V;P700 deltaI/I x10³;
-199.8000;0.0765;-0.7900;
-199.5000;0.0733;-0.8010;
-199.2000;0.0749;-0.7988;
-198.9000;0.0741;-0.7966;
-198.6000;0.0741;-0.7988;
-198.3000;0.0765;-0.7988;
-198.0000;0.0724;-0.8010;
-197.7000;0.0757;-0.7988;
-197.4000;0.0627;-0.8298;
-197.1000;0.0733;-0.8033;
-196.8000;0.0724;-0.8099;
-196.5000;0.0741;-0.8121;
-196.2000;0.0749;-0.8121;
-195.9000;0.0749;-0.8143;
-195.6000;0.0741;-0.8121;
-195.3000;0.0757;-0.8143;
-195.0000;0.0757;-0.8099;
-194.7000;0.0757;-0.7988;
-194.4000;0.0757;-0.7988;
-194.1000;0.0749;-0.8010;
-193.8000;0.0749;-0.8010;
-193.5000;0.0741;-0.8010;
-193.2000;0.0749;-0.7988;
-192.9000;0.0830;-0.7900;
-192.6000;0.0741;-0.8055;
-192.3000;0.0749;-0.7966;
-192.0000;0.0741;-0.7944;
-191.7000;0.0741;-0.7966;
-191.4000;0.0741;-0.7966;
-191.1000;0.0741;-0.7966;
-190.8000;0.0765;-0.7900;
-190.5000;0.0749;-0.7966;
-190.2000;0.0765;-0.7966;
-189.9000;0.0757;-0.8077;
-189.6000;0.0765;-0.8033;
-189.3000;0.0741;-0.8099;
-189.0000;0.0724;-0.8077;
-188.7000;0.0749;-0.8143;
-188.4000;0.0749;-0.8165;
-188.1000;0.0749;-0.8143;
-187.8000;0.0741;-0.8165;
-187.5000;0.0814;-0.8033;
-187.2000;0.0757;-0.8165;
-186.9000;0.0733;-0.8210;
-186.6000;0.0741;-0.8165;
-186.3000;0.0749;-0.8187;
-186.0000;0.0757;-0.8187;
-185.7000;0.0643;-0.8409;
-185.4000;0.0741;-0.8165;
-185.1000;0.0741;-0.8121;
-184.8000;0.0749;-0.8055;
-184.5000;0.0773;-0.7966;
-184.2000;0.0741;-0.8055;
-183.9000;0.0765;-0.8121;
-183.6000;0.0757;-0.8165;
-183.3000;0.0757;-0.8099;
-183.0000;0.0741;-0.8143;
-182.7000;0.0733;-0.8143;
-182.4000;0.0724;-0.8276;
-182.1000;0.0643;-0.8453;
-181.8000;0.0716;-0.8232;
-181.5000;0.0741;-0.8143;
-181.2000;0.0757;-0.8055;
-180.9000;0.0798;-0.7944;
-180.6000;0.0741;-0.8033;
-180.3000;0.0749;-0.8077;
-180.0000;0.0659;-0.8254;
-179.7000;0.0749;-0.8077;
-179.4000;0.0749;-0.8143;
-179.1000;0.0733;-0.8187;
-178.8000;0.0733;-0.8121;
-178.5000;0.0757;-0.8099;
-178.2000;0.0790;-0.8165;
-177.9000;0.0700;-0.8342;
-177.6000;0.0716;-0.8276;
-177.3000;0.0741;-0.8187;
-177.0000;0.0757;-0.8143;
-176.7000;0.0749;-0.8099;
-176.4000;0.0749;-0.8187;
-176.1000;0.0838;-0.7878;
-175.8000;0.0684;-0.8254;
-175.5000;0.0733;-0.8121;
-175.2000;0.0692;-0.8232;
-174.9000;0.0716;-0.8232;
-174.6000;0.0741;-0.8143;
-174.3000;0.0790;-0.7988;
-174.0000;0.0635;-0.8364;
-173.7000;0.0749;-0.8187;
-173.4000;0.0749;-0.8210;
-173.1000;0.0733;-0.8187;
-172.8000;0.0716;-0.8210;
-172.5000;0.0741;-0.8143;
-172.2000;0.0765;-0.8121;
-171.9000;0.0741;-0.8143;
-171.6000;0.0741;-0.8121;
-171.3000;0.0757;-0.8099;
-171.0000;0.0741;-0.8121;
-170.7000;0.0749;-0.8099;
-170.4000;0.0741;-0.8121;
-170.1000;0.0733;-0.8143;
-169.8000;0.0765;-0.7944;
-169.5000;0.0773;-0.7988;
-169.2000;0.0757;-0.7966;
-168.9000;0.0733;-0.8099;
-168.6000;0.0733;-0.8143;
-168.3000;0.0749;-0.8210;
-168.0000;0.0757;-0.8210;
-167.7000;0.0733;-0.8342;
-167.4000;0.0724;-0.8320;
-167.1000;0.0790;-0.8121;
-166.8000;0.0773;-0.8187;
-166.5000;0.0749;-0.8232;
-166.2000;0.0733;-0.8298;
-165.9000;0.0765;-0.8254;
-165.6000;0.0749;-0.8232;
-165.3000;0.0798;-0.8010;
-165.0000;0.0716;-0.8254;
-164.7000;0.0765;-0.8143;
-164.4000;0.0749;-0.8187;
-164.1000;0.0773;-0.8232;
-163.8000;0.0724;-0.8254;
-163.5000;0.0790;-0.8010;
-163.2000;0.0724;-0.8187;
-162.9000;0.0749;-0.8077;
-162.6000;0.0724;-0.8165;
-162.3000;0.0733;-0.8165;
-162.0000;0.0790;-0.8033;
-161.7000;0.0773;-0.8033;
-161.4000;0.0765;-0.8077;
-161.1000;0.0749;-0.8099;
-160.8000;0.0741;-0.8055;
-160.5000;0.0741;-0.8077;
-160.2000;0.0733;-0.8099;
-159.9000;0.0733;-0.8187;
-159.6000;0.0741;-0.8143;
-159.3000;0.0757;-0.8143;
-159.0000;0.0749;-0.8254;
-158.7000;0.0781;-0.8165;
-158.4000;0.0749;-0.8187;
-158.1000;0.0692;-0.8276;
-157.8000;0.0773;-0.8077;
-157.5000;0.0733;-0.8187;
-157.2000;0.0757;-0.8077;
-156.9000;0.0700;-0.8254;
-156.6000;0.0781;-0.8121;
-156.3000;0.0741;-0.8276;
-156.0000;0.0733;-0.8254;
-155.7000;0.0790;-0.8210;
-155.4000;0.0749;-0.8254;
-155.1000;0.0749;-0.8187;
-154.8000;0.0757;-0.8121;
-154.5000;0.0724;-0.8210;
-154.2000;0.0749;-0.8187;
-153.9000;0.0798;-0.8077;
-153.6000;0.0741;-0.8187;
-153.3000;0.0741;-0.8254;
-153.0000;0.0781;-0.8187;
-152.7000;0.0749;-0.8298;
-152.4000;0.0741;-0.8298;
-152.1000;0.0733;-0.8320;
-151.8000;0.0749;-0.8298;
-151.5000;0.0733;-0.8320;
-151.2000;0.0765;-0.8387;
-150.9000;0.0749;-0.8364;
-150.6000;0.0749;-0.8320;
-150.3000;0.0749;-0.8320;
-150.0000;0.0741;-0.8364;
-149.7000;0.0806;-0.8298;
-149.4000;0.0716;-0.8431;
-149.1000;0.0806;-0.8187;
-148.8000;0.0741;-0.8342;
-148.5000;0.0733;-0.8409;
-148.2000;0.0741;-0.8342;
-147.9000;0.0830;-0.8165;
-147.6000;0.0724;-0.8409;
-147.3000;0.0708;-0.8431;
-147.0000;0.0724;-0.8342;
-146.7000;0.0708;-0.8409;
-146.4000;0.0692;-0.8519;
-146.1000;0.0716;-0.8453;
-145.8000;0.0765;-0.8409;
-145.5000;0.0765;-0.8431;
-145.2000;0.0741;-0.8564;
-144.9000;0.0700;-0.8608;
-144.6000;0.0733;-0.8608;
-144.3000;0.0814;-0.8453;
-144.0000;0.0724;-0.8630;
-143.7000;0.0676;-0.8741;
-143.4000;0.0741;-0.8630;
-143.1000;0.0773;-0.8453;
-142.8000;0.0724;-0.8541;
-142.5000;0.0724;-0.8475;
-142.2000;0.0676;-0.8586;
-141.9000;0.0708;-0.8519;
-141.6000;0.0765;-0.8320;
-141.3000;0.0708;-0.8409;
-141.0000;0.0822;-0.8077;
-140.7000;0.0741;-0.8232;
-140.4000;0.0773;-0.8254;
-140.1000;0.0716;-0.8387;
-139.8000;0.0749;-0.8320;
-139.5000;0.0757;-0.8254;
-139.2000;0.0790;-0.8320;
-138.9000;0.0733;-0.8409;
-138.6000;0.0700;-0.8431;
-138.3000;0.0781;-0.8232;
-138.0000;0.0847;-0.8099;
-137.7000;0.0733;-0.8342;
-137.4000;0.0733;-0.8342;
-137.1000;0.0749;-0.8320;
-136.8000;0.0741;-0.8320;
-136.5000;0.0741;-0.8320;
-136.2000;0.0773;-0.8298;
-135.9000;0.0602;-0.8785;
-135.6000;0.0773;-0.8342;
-135.3000;0.0716;-0.8453;
-135.0000;0.0749;-0.8342;
-134.7000;0.0643;-0.8608;
-134.4000;0.0733;-0.8387;
-134.1000;0.0651;-0.8608;
-133.8000;0.0765;-0.8187;
-133.5000;0.0733;-0.8187;
-133.2000;0.0814;-0.8077;
-132.9000;0.0741;-0.8320;
-132.6000;0.0830;-0.8077;
-132.3000;0.0765;-0.8165;
-132.0000;0.0757;-0.8143;
-131.7000;0.0716;-0.8210;
-131.4000;0.0741;-0.8143;
-131.1000;0.0749;-0.8143;
-130.8000;0.0716;-0.8232;
-130.5000;0.0749;-0.8210;
-130.2000;0.0765;-0.8165;
-129.9000;0.0765;-0.8143;
-129.6000;0.0741;-0.8232;
-129.3000;0.0749;-0.8165;
-129.0000;0.0749;-0.8165;
-128.7000;0.0757;-0.8210;
-128.4000;0.0733;-0.8276;
-128.1000;0.0749;-0.8320;
-127.8000;0.0749;-0.8342;
-127.5000;0.0773;-0.8364;
-127.2000;0.0749;-0.8409;
-126.9000;0.0773;-0.8364;
-126.6000;0.0733;-0.8497;
-126.3000;0.0733;-0.8497;
-126.0000;0.0749;-0.8409;
-125.7000;0.0757;-0.8387;
-125.4000;0.0716;-0.8497;
-125.1000;0.0765;-0.8497;
-124.8000;0.0765;-0.8431;
-124.5000;0.0741;-0.8475;
-124.2000;0.0781;-0.8475;
-123.9000;0.0716;-0.8674;
-123.6000;0.0749;-0.8630;
-123.3000;0.0757;-0.8586;
-123.0000;0.0733;-0.8696;
-122.7000;0.0790;-0.8586;
-122.4000;0.0765;-0.8630;
-122.1000;0.0765;-0.8630;
-121.8000;0.0724;-0.8608;
-121.5000;0.0667;-0.8763;
-121.2000;0.0765;-0.8519;
-120.9000;0.0757;-0.8541;
-120.6000;0.0676;-0.8718;
-120.3000;0.0741;-0.8497;
-120.0000;0.0847;-0.8298;
-119.7000;0.0757;-0.8519;
-119.4000;0.0749;-0.8497;
-119.1000;0.0741;-0.8475;
-118.8000;0.0814;-0.8254;
-118.5000;0.0855;-0.8121;
-118.2000;0.0733;-0.8298;
-117.9000;0.0757;-0.8276;
-117.6000;0.0741;-0.8298;
-117.3000;0.0741;-0.8387;
-117.0000;0.0749;-0.8364;
-116.7000;0.0757;-0.8387;
-116.4000;0.0741;-0.8342;
-116.1000;0.0741;-0.8342;
-115.8000;0.0757;-0.8320;
-115.5000;0.0749;-0.8387;
-115.2000;0.0635;-0.8586;
-114.9000;0.0806;-0.8210;
-114.6000;0.0716;-0.8541;
-114.3000;0.0790;-0.8387;
-114.0000;0.0798;-0.8409;
-113.7000;0.0765;-0.8475;
-113.4000;0.0765;-0.8497;
-113.1000;0.0724;-0.8608;
-112.8000;0.0724;-0.8541;
-112.5000;0.0749;-0.8497;
-112.2000;0.0781;-0.8387;
-111.9000;0.0716;-0.8630;
-111.6000;0.0643;-0.8718;
-111.3000;0.0773;-0.8364;
-111.0000;0.0757;-0.8342;
-110.7000;0.0781;-0.8187;
-110.4000;0.0741;-0.8298;
-110.1000;0.0741;-0.8254;
-109.8000;0.0773;-0.8232;
-109.5000;0.0741;-0.8254;
-109.2000;0.0733;-0.8254;
-108.9000;0.0757;-0.8232;
-108.6000;0.0765;-0.8342;
-108.3000;0.0749;-0.8453;
-108.0000;0.0765;-0.8409;
-107.7000;0.0757;-0.8431;
-107.4000;0.0757;-0.8387;
-107.1000;0.0749;-0.8387;
-106.8000;0.0733;-0.8475;
-106.5000;0.0749;-0.8453;
-106.2000;0.0749;-0.8387;
-105.9000;0.0749;-0.8364;
-105.6000;0.0749;-0.8342;
-105.3000;0.0733;-0.8320;
-105.0000;0.0757;-0.8276;
-104.7000;0.0757;-0.8254;
-104.4000;0.0724;-0.8431;
-104.1000;0.0806;-0.8143;
-103.8000;0.0781;-0.8143;
-103.5000;0.0749;-0.8210;
-103.2000;0.0741;-0.8342;
-102.9000;0.0757;-0.8276;
-102.6000;0.0765;-0.8298;
-102.3000;0.0822;-0.8187;
-102.0000;0.0749;-0.8364;
-101.7000;0.0741;-0.8364;
-101.4000;0.0724;-0.8364;
-101.1000;0.0773;-0.8276;
-100.8000;0.0773;-0.8276;
-100.5000;0.0716;-0.8409;
-100.2000;0.0733;-0.8342;
-99.9000;0.0773;-0.8342;
-99.6000;0.0765;-0.8453;
-99.3000;0.0757;-0.8497;
-99.0000;0.0749;-0.8519;
-98.7000;0.0757;-0.8519;
-98.4000;0.0749;-0.8497;
-98.1000;0.0749;-0.8586;
-97.8000;0.0741;-0.8630;
-97.5000;0.0667;-0.8851;
-97.2000;0.0659;-0.8763;
-96.9000;0.0741;-0.8453;
-96.6000;0.0830;-0.8143;
-96.3000;0.0749;-0.8298;
-96.0000;0.0781;-0.8232;
-95.7000;0.0741;-0.8320;
-95.4000;0.0781;-0.8254;
-95.1000;0.0757;-0.8210;
-94.8000;0.0749;-0.8254;
-94.5000;0.0773;-0.8232;
-94.2000;0.0643;-0.8497;
-93.9000;0.0741;-0.8232;
-93.6000;0.0757;-0.8210;
-93.3000;0.0773;-0.8210;
-93.0000;0.0773;-0.8210;
-92.7000;0.0741;-0.8364;
-92.4000;0.0667;-0.8564;
-92.1000;0.0733;-0.8387;
-91.8000;0.0733;-0.8320;
-91.5000;0.0757;-0.8387;
-91.2000;0.0749;-0.8409;
-90.9000;0.0749;-0.8364;
-90.6000;0.0765;-0.8232;
-90.3000;0.0733;-0.8276;
-90.0000;0.0741;-0.8276;
-89.7000;0.0733;-0.8364;
-89.4000;0.0716;-0.8453;
-89.1000;0.0765;-0.8387;
-88.8000;0.0741;-0.8431;
-88.5000;0.0757;-0.8387;
-88.2000;0.0781;-0.8342;
-87.9000;0.0749;-0.8320;
-87.6000;0.0749;-0.8298;
-87.3000;0.0765;-0.8276;
-87.0000;0.0765;-0.8254;
-86.7000;0.0724;-0.8409;
-86.4000;0.0749;-0.8387;
-86.1000;0.0692;-0.8497;
-85.8000;0.0741;-0.8453;
-85.5000;0.0749;-0.8431;
-85.2000;0.0749;-0.8431;
-84.9000;0.0724;-0.8431;
-84.6000;0.0749;-0.8342;
-84.3000;0.0749;-0.8298;
-84.0000;0.0741;-0.8342;
-83.7000;0.0749;-0.8298;
-83.4000;0.0749;-0.8364;
-83.1000;0.0651;-0.8652;
-82.8000;0.0741;-0.8453;
-82.5000;0.0708;-0.8564;
-82.2000;0.0708;-0.8541;
-81.9000;0.0676;-0.8674;
-81.6000;0.0749;-0.8541;
-81.3000;0.0749;-0.8586;
-81.0000;0.0749;-0.8608;
-80.7000;0.0733;-0.8586;
-80.4000;0.0887;-0.8232;
-80.1000;0.0733;-0.8630;
-79.8000;0.0773;-0.8519;
-79.5000;0.0749;-0.8519;
-79.2000;0.0773;-0.8364;
-78.9000;0.0765;-0.8342;
-78.6000;0.0724;-0.8364;
-78.3000;0.0741;-0.8210;
-78.0000;0.0765;-0.8210;
-77.7000;0.0724;-0.8364;
-77.4000;0.0741;-0.8387;
-77.1000;0.0724;-0.8453;
-76.8000;0.0676;-0.8674;
-76.5000;0.0773;-0.8387;
-76.2000;0.0806;-0.8320;
-75.9000;0.0749;-0.8364;
-75.6000;0.0765;-0.8276;
-75.3000;0.0773;-0.8342;
-75.0000;0.0822;-0.8143;
-74.7000;0.0733;-0.8409;
-74.4000;0.0733;-0.8475;
-74.1000;0.0733;-0.8586;
-73.8000;0.0830;-0.8342;
-73.5000;0.0757;-0.8586;
-73.2000;0.0765;-0.8586;
-72.9000;0.0741;-0.8608;
-72.6000;0.0741;-0.8541;
-72.3000;0.0741;-0.8519;
-72.0000;0.0781;-0.8342;
-71.7000;0.0716;-0.8475;
-71.4000;0.0822;-0.8232;
-71.1000;0.0749;-0.8298;
-70.8000;0.0733;-0.8298;
-70.5000;0.0757;-0.8298;
-70.2000;0.0741;-0.8298;
-69.9000;0.0757;-0.8210;
-69.6000;0.0765;-0.8165;
-69.3000;0.0741;-0.8165;
-69.0000;0.0773;-0.8099;
-68.7000;0.0749;-0.8121;
-68.4000;0.0741;-0.8187;
-68.1000;0.0741;-0.8210;
-67.8000;0.0814;-0.8232;
-67.5000;0.0741;-0.8409;
-67.2000;0.0741;-0.8387;
-66.9000;0.0700;-0.8519;
-66.6000;0.0749;-0.8320;
-66.3000;0.0724;-0.8364;
-66.0000;0.0773;-0.8298;
-65.7000;0.0741;-0.8298;
-65.4000;0.0773;-0.8165;
-65.1000;0.0830;-0.8033;
-64.8000;0.0733;-0.8342;
-64.5000;0.0749;-0.8298;
-64.2000;0.0741;-0.8165;
-63.9000;0.0773;-0.8121;
-63.6000;0.0749;-0.8187;
-63.3000;0.0724;-0.8210;
-63.0000;0.0757;-0.8165;
-62.7000;0.0724;-0.8232;
-62.4000;0.0757;-0.8232;
-62.1000;0.0724;-0.8276;
-61.8000;0.0741;-0.8254;
-61.5000;0.0741;-0.8298;
-61.2000;0.0741;-0.8232;
-60.9000;0.0741;-0.8165;
-60.6000;0.0749;-0.8187;
-60.3000;0.0733;-0.8165;
-60.0000;0.0765;-0.8077;
-59.7000;0.0765;-0.8143;
-59.4000;0.0733;-0.8320;
-59.1000;0.0749;-0.8320;
-58.8000;0.0790;-0.8232;
-58.5000;0.0741;-0.8298;
-58.2000;0.0733;-0.8342;
-57.9000;0.0765;-0.8232;
-57.6000;0.0741;-0.8187;
-57.3000;0.0741;-0.8232;
-57.0000;0.0667;-0.8497;
-56.7000;0.0765;-0.8320;
-56.4000;0.0684;-0.8475;
-56.1000;0.0757;-0.8342;
-55.8000;0.0733;-0.8387;
-55.5000;0.0749;-0.8320;
-55.2000;0.0757;-0.8232;
-54.9000;0.0749;-0.8254;
-54.6000;0.0757;-0.8165;
-54.3000;0.0749;-0.8165;
-54.0000;0.0765;-0.8254;
-53.7000;0.0741;-0.8342;
-53.4000;0.0741;-0.8453;
-53.1000;0.0741;-0.8541;
-52.8000;0.0733;-0.8519;
-52.5000;0.0741;-0.8497;
-52.2000;0.0692;-0.8608;
-51.9000;0.0749;-0.8431;
-51.6000;0.0700;-0.8541;
-51.3000;0.0741;-0.8409;
-51.0000;0.0749;-0.8364;
-50.7000;0.0741;-0.8431;
-50.4000;0.0733;-0.8431;
-50.1000;0.0749;-0.8387;
-49.8000;0.0765;-0.8210;
-49.5000;0.0757;-0.8276;
-49.2000;0.0806;-0.8121;
-48.9000;0.0814;-0.8099;
-48.6000;0.0847;-0.8033;
-48.3000;0.0757;-0.8254;
-48.0000;0.0887;-0.7966;
-47.7000;0.0757;-0.8298;
-47.4000;0.0757;-0.8364;
-47.1000;0.0733;-0.8387;
-46.8000;0.0733;-0.8431;
-46.5000;0.0724;-0.8431;
-46.2000;0.0895;-0.8033;
-45.9000;0.0724;-0.8475;
-45.6000;0.0749;-0.8431;
-45.3000;0.0757;-0.8387;
-45.0000;0.0749;-0.8364;
-44.7000;0.0741;-0.8409;
-44.4000;0.0724;-0.8453;
-44.1000;0.0741;-0.8497;
-43.8000;0.0765;-0.8519;
-43.5000;0.0733;-0.8586;
-43.2000;0.0708;-0.8630;
-42.9000;0.0724;-0.8608;
-42.6000;0.0749;-0.8541;
-42.3000;0.0773;-0.8497;
-42.0000;0.0871;-0.8320;
-41.7000;0.0765;-0.8541;
-41.4000;0.0757;-0.8541;
-41.1000;0.0749;-0.8586;
-40.8000;0.0692;-0.8586;
-40.5000;0.0773;-0.8276;
-40.2000;0.0757;-0.8254;
-39.9000;0.0757;-0.8254;
-39.6000;0.0749;-0.8232;
-39.3000;0.0749;-0.8232;
-39.0000;0.0708;-0.8453;
-38.7000;0.0765;-0.8387;
-38.4000;0.0708;-0.8453;
-38.1000;0.0757;-0.8387;
-37.8000;0.0765;-0.8364;
-37.5000;0.0700;-0.8519;
-37.2000;0.0781;-0.8342;
-36.9000;0.0692;-0.8541;
-36.6000;0.0757;-0.8364;
-36.3000;0.0741;-0.8342;
-36.0000;0.0749;-0.8320;
-35.7000;0.0757;-0.8342;
-35.4000;0.0716;-0.8431;
-35.1000;0.0741;-0.8387;
-34.8000;0.0749;-0.8298;
-34.5000;0.0790;-0.8187;
-34.2000;0.0757;-0.8364;
-33.9000;0.0757;-0.8320;
-33.6000;0.0749;-0.8320;
-33.3000;0.0741;-0.8298;
-33.0000;0.0708;-0.8364;
-32.7000;0.0733;-0.8276;
-32.4000;0.0773;-0.8232;
-32.1000;0.0749;-0.8210;
-31.8000;0.0741;-0.8210;
-31.5000;0.0733;-0.8254;
-31.2000;0.0733;-0.8298;
-30.9000;0.0765;-0.8276;
-30.6000;0.0741;-0.8387;
-30.3000;0.0733;-0.8342;
-30.0000;0.0781;-0.8232;
-29.7000;0.0619;-0.8630;
-29.4000;0.0741;-0.8320;
-29.1000;0.0733;-0.8298;
-28.8000;0.0733;-0.8320;
-28.5000;0.0741;-0.8431;
-28.2000;0.0757;-0.8342;
-27.9000;0.0765;-0.8342;
-27.6000;0.0716;-0.8387;
-27.3000;0.0757;-0.8254;
-27.0000;0.0741;-0.8320;
-26.7000;0.0602;-0.8718;
-26.4000;0.0741;-0.8475;
-26.1000;0.0765;-0.8298;
-25.8000;0.0757;-0.8210;
-25.5000;0.0806;-0.8033;
-25.2000;0.0887;-0.7900;
-24.9000;0.0692;-0.8342;
-24.6000;0.0765;-0.8254;
-24.3000;0.0724;-0.8298;
-24.0000;0.0741;-0.8232;
-23.7000;0.0733;-0.8210;
-23.4000;0.0643;-0.8409;
-23.1000;0.0757;-0.8077;
-22.8000;0.0716;-0.8210;
-22.5000;0.0724;-0.8232;
-22.2000;0.0847;-0.8099;
-21.9000;0.0724;-0.8364;
-21.6000;0.0741;-0.8298;
-21.3000;0.0757;-0.8232;
-21.0000;0.0724;-0.8254;
-20.7000;0.0749;-0.8232;
-20.4000;0.0790;-0.8143;
-20.1000;0.0749;-0.8254;
-19.8000;0.0757;-0.8276;
-19.5000;0.0749;-0.8232;
-19.2000;0.0724;-0.8276;
-18.9000;0.0773;-0.8254;
-18.6000;0.0741;-0.8364;
-18.3000;0.0716;-0.8519;
-18.0000;0.0741;-0.8409;
-17.7000;0.0700;-0.8497;
-17.4000;0.0724;-0.8364;
-17.1000;0.0749;-0.8298;
-16.8000;0.0757;-0.8387;
-16.5000;0.0741;-0.8342;
-16.2000;0.0733;-0.8342;
-15.9000;0.0741;-0.8409;
-15.6000;0.0765;-0.8387;
-15.3000;0.0741;-0.8497;
-15.0000;0.0847;-0.8187;
-14.7000;0.0757;-0.8342;
-14.4000;0.0733;-0.8453;
-14.1000;0.0724;-0.8519;
-13.8000;0.0684;-0.8608;
-13.5000;0.0708;-0.8453;
-13.2000;0.0749;-0.8387;
-12.9000;0.0692;-0.8431;
-12.6000;0.0733;-0.8320;
-12.3000;0.0749;-0.8276;
-12.0000;0.0741;-0.8342;
-11.7000;0.0700;-0.8497;
-11.4000;0.0733;-0.8342;
-11.1000;0.0741;-0.8276;
-10.8000;0.0733;-0.8298;
-10.5000;0.0749;-0.8320;
-10.2000;0.0733;-0.8453;
-9.9000;0.0749;-0.8453;
-9.6000;0.0749;-0.8431;
-9.3000;0.0749;-0.8431;
-9.0000;0.0749;-0.8342;
-8.7000;0.0749;-0.8342;
-8.4000;0.0765;-0.8276;
-8.1000;0.0741;-0.8276;
-7.8000;0.0733;-0.8387;
-7.5000;0.0733;-0.8453;
-7.2000;0.0700;-0.8453;
-6.9000;0.0757;-0.8320;
-6.6000;0.0830;-0.8210;
-6.3000;0.0757;-0.8298;
-6.0000;0.0790;-0.8342;
-5.7000;0.0741;-0.8475;
-5.4000;0.0757;-0.8387;
-5.1000;0.0708;-0.8431;
-4.8000;0.0741;-0.8320;
-4.5000;0.0757;-0.8276;
-4.2000;0.0765;-0.8210;
-3.9000;0.0749;-0.8254;
-3.6000;0.0692;-0.8409;
-3.3000;0.0724;-0.8342;
-3.0000;0.0773;-0.8254;
-2.7000;0.0724;-0.8364;
-2.4000;0.0749;-0.8276;
-2.1000;0.0765;-0.8342;
-1.8000;0.0773;-0.8298;
-1.5000;0.0757;-0.8298;
-1.2000;0.0521;-0.8785;
-0.9000;0.0749;-0.8232;
-0.6000;0.0733;-0.8320;
-0.3000;0.0757;-0.8232;
0.0000;0.0757;-0.8232;
0.3000;0.0798;-0.8431;
0.6000;0.0773;-0.8387;
0.9000;0.0798;-0.8298;
1.2000;0.0798;-0.8210;
1.5000;0.0798;-0.8143;
1.8000;0.0790;-0.8055;
2.1000;0.0806;-0.7855;
2.4000;0.0806;-0.7723;
2.7000;0.0814;-0.7745;
3.0000;0.0814;-0.7678;
3.3000;0.0814;-0.7590;
3.6000;0.0863;-0.7457;
3.9000;0.0847;-0.7524;
4.2000;0.0838;-0.7479;
4.5000;0.0847;-0.7524;
4.8000;0.0855;-0.7435;
5.1000;0.0847;-0.7435;
5.4000;0.0863;-0.7413;
5.7000;0.0855;-0.7347;
6.0000;0.0895;-0.7214;
6.3000;0.0822;-0.7347;
6.6000;0.0822;-0.7369;
6.9000;0.0879;-0.7170;
7.2000;0.0838;-0.7214;
7.5000;0.0838;-0.7302;
7.8000;0.0863;-0.7258;
8.1000;0.0879;-0.7236;
8.4000;0.0847;-0.7302;
8.7000;0.0855;-0.7280;
9.0000;0.0871;-0.7236;
9.3000;0.0863;-0.7214;
9.6000;0.0871;-0.7192;
9.9000;0.0879;-0.7103;
10.2000;0.0855;-0.7192;
10.5000;0.0863;-0.7125;
10.8000;0.0847;-0.7125;
11.1000;0.0847;-0.7015;
11.4000;0.0838;-0.7015;
11.7000;0.0871;-0.7015;
12.0000;0.0863;-0.6948;
12.3000;0.0847;-0.7081;
12.6000;0.0798;-0.7236;
12.9000;0.0855;-0.7103;
13.2000;0.0863;-0.7103;
13.5000;0.0814;-0.7258;
13.8000;0.0855;-0.7214;
14.1000;0.0814;-0.7347;
14.4000;0.0855;-0.7125;
14.7000;0.0879;-0.7125;
15.0000;0.0863;-0.7125;
15.3000;0.0781;-0.7324;
15.6000;0.0887;-0.7103;
15.9000;0.0920;-0.7125;
16.2000;0.0863;-0.7258;
16.5000;0.0838;-0.7236;
16.8000;0.0863;-0.7170;
17.1000;0.0847;-0.7258;
17.4000;0.0879;-0.7236;
17.7000;0.0920;-0.7081;
18.0000;0.0855;-0.7147;
18.3000;0.0757;-0.7435;
18.6000;0.0887;-0.7081;
18.9000;0.0944;-0.6970;
19.2000;0.0847;-0.7214;
19.5000;0.0871;-0.7103;
19.8000;0.0887;-0.7037;
20.1000;0.0871;-0.7037;
20.4000;0.0863;-0.7059;
20.7000;0.0847;-0.7214;
21.0000;0.0855;-0.7103;
21.3000;0.0895;-0.6926;
21.6000;0.0887;-0.6970;
21.9000;0.0855;-0.7147;
22.2000;0.0855;-0.7147;
22.5000;0.0871;-0.7015;
22.8000;0.0871;-0.7015;
23.1000;0.0830;-0.7170;
23.4000;0.0895;-0.6992;
23.7000;0.0912;-0.6926;
24.0000;0.0871;-0.7081;
24.3000;0.0855;-0.7170;
24.6000;0.0790;-0.7369;
24.9000;0.0904;-0.7125;
25.2000;0.0871;-0.7192;
25.5000;0.0863;-0.7147;
25.8000;0.0952;-0.6926;
26.1000;0.0863;-0.7059;
26.4000;0.0871;-0.7037;
26.7000;0.0871;-0.7125;
27.0000;0.0904;-0.7059;
27.3000;0.0822;-0.7214;
27.6000;0.0855;-0.7059;
27.9000;0.0855;-0.7037;
28.2000;0.0879;-0.7125;
28.5000;0.0879;-0.7214;
28.8000;0.0838;-0.7214;
29.1000;0.0741;-0.7413;
29.4000;0.0887;-0.7125;
29.7000;0.0887;-0.7103;
30.0000;0.0895;-0.7081;
30.3000;0.0871;-0.7103;
30.6000;0.0863;-0.7037;
30.9000;0.0912;-0.6882;
31.2000;0.0887;-0.6904;
31.5000;0.0847;-0.6992;
31.8000;0.0879;-0.6948;
32.1000;0.0944;-0.6771;
32.4000;0.0871;-0.6904;
32.7000;0.0879;-0.6904;
33.0000;0.0855;-0.6970;
33.3000;0.0863;-0.6948;
33.6000;0.0912;-0.6882;
33.9000;0.0871;-0.7015;
34.2000;0.0855;-0.7125;
34.5000;0.0904;-0.7103;
34.8000;0.0904;-0.7037;
35.1000;0.0871;-0.7037;
35.4000;0.0871;-0.6992;
35.7000;0.0871;-0.6948;
36.0000;0.0879;-0.6992;
36.3000;0.0912;-0.6926;
36.6000;0.0855;-0.7059;
36.9000;0.0855;-0.7147;
37.2000;0.0871;-0.7192;
37.5000;0.0887;-0.7147;
37.8000;0.0871;-0.7147;
38.1000;0.0781;-0.7435;
38.4000;0.0895;-0.7147;
38.7000;0.0879;-0.7170;
39.0000;0.0895;-0.7125;
39.3000;0.0871;-0.7170;
39.6000;0.0863;-0.7125;
39.9000;0.0887;-0.7125;
40.2000;0.0928;-0.7015;
40.5000;0.0863;-0.7214;
40.8000;0.0863;-0.7170;
41.1000;0.0806;-0.7280;
41.4000;0.0879;-0.6926;
41.7000;0.0879;-0.6948;
42.0000;0.0863;-0.7081;
42.3000;0.0936;-0.6926;
42.6000;0.0871;-0.7147;
42.9000;0.0879;-0.7081;
43.2000;0.0871;-0.6992;
43.5000;0.0879;-0.7037;
43.8000;0.0887;-0.6970;
44.1000;0.0887;-0.7037;
44.4000;0.0855;-0.7103;
44.7000;0.0895;-0.6992;
45.0000;0.0879;-0.7015;
45.3000;0.0879;-0.7059;
45.6000;0.0871;-0.7125;
45.9000;0.0871;-0.7147;
46.2000;0.0879;-0.7192;
46.5000;0.0871;-0.7258;
46.8000;0.0879;-0.7302;
47.1000;0.0741;-0.7634;
47.4000;0.0904;-0.7258;
47.7000;0.0855;-0.7413;
48.0000;0.0887;-0.7347;
48.3000;0.0928;-0.7214;
48.6000;0.0887;-0.7391;
48.9000;0.0895;-0.7457;
49.2000;0.0895;-0.7457;
49.5000;0.0879;-0.7590;
49.8000;0.0895;-0.7479;
50.1000;0.0830;-0.7656;
50.4000;0.0887;-0.7391;
50.7000;0.0879;-0.7391;
51.0000;0.0871;-0.7435;
51.3000;0.0871;-0.7391;
51.6000;0.0887;-0.7369;
51.9000;0.0838;-0.7568;
52.2000;0.0977;-0.7192;
52.5000;0.0912;-0.7413;
52.8000;0.0871;-0.7501;
53.1000;0.0879;-0.7479;
53.4000;0.0863;-0.7568;
53.7000;0.0887;-0.7524;
54.0000;0.0887;-0.7479;
54.3000;0.0879;-0.7413;
54.6000;0.0879;-0.7457;
54.9000;0.0895;-0.7347;
55.2000;0.0871;-0.7479;
55.5000;0.0871;-0.7435;
55.8000;0.0798;-0.7612;
56.1000;0.0822;-0.7546;
56.4000;0.0863;-0.7524;
56.7000;0.0879;-0.7524;
57.0000;0.0871;-0.7524;
57.3000;0.0879;-0.7413;
57.6000;0.0879;-0.7501;
57.9000;0.0895;-0.7501;
58.2000;0.0871;-0.7546;
58.5000;0.0879;-0.7435;
58.8000;0.0895;-0.7391;
59.1000;0.0977;-0.7125;
59.4000;0.0879;-0.7391;
59.7000;0.0887;-0.7236;
60.0000;0.0912;-0.7214;
60.3000;0.0871;-0.7347;
60.6000;0.0847;-0.7479;
60.9000;0.0863;-0.7457;
61.2000;0.0879;-0.7391;
61.5000;0.0814;-0.7479;
61.8000;0.0904;-0.7280;
62.1000;0.0871;-0.7435;
62.4000;0.0879;-0.7501;
62.7000;0.0887;-0.7457;
63.0000;0.0871;-0.7479;
63.3000;0.0871;-0.7479;
63.6000;0.0855;-0.7524;
63.9000;0.0863;-0.7524;
64.2000;0.0887;-0.7391;
64.5000;0.0838;-0.7457;
64.8000;0.0887;-0.7324;
65.1000;0.0879;-0.7457;
65.4000;0.0879;-0.7413;
65.7000;0.0879;-0.7435;
66.0000;0.0855;-0.7391;
66.3000;0.0879;-0.7369;
66.6000;0.0863;-0.7369;
66.9000;0.0895;-0.7324;
67.2000;0.0863;-0.7457;
67.5000;0.0879;-0.7347;
67.8000;0.0879;-0.7369;
68.1000;0.0887;-0.7280;
68.4000;0.0871;-0.7369;
68.7000;0.0847;-0.7391;
69.0000;0.0879;-0.7369;
69.3000;0.0871;-0.7457;
69.6000;0.0993;-0.7236;
69.9000;0.0879;-0.7457;
70.2000;0.0912;-0.7324;
70.5000;0.0904;-0.7324;
70.8000;0.0814;-0.7479;
71.1000;0.0887;-0.7369;
71.4000;0.0871;-0.7391;
71.7000;0.0871;-0.7413;
72.0000;0.0863;-0.7524;
72.3000;0.0887;-0.7546;
72.6000;0.0855;-0.7590;
72.9000;0.0847;-0.7590;
73.2000;0.0879;-0.7479;
73.5000;0.0887;-0.7391;
73.8000;0.0863;-0.7457;
74.1000;0.0863;-0.7501;
74.4000;0.0895;-0.7347;
74.7000;0.0895;-0.7280;
75.0000;0.0847;-0.7391;
75.3000;0.0847;-0.7391;
75.6000;0.0912;-0.7192;
75.9000;0.0879;-0.7236;
76.2000;0.0904;-0.7037;
76.5000;0.0871;-0.7147;
76.8000;0.0871;-0.7236;
77.1000;0.0887;-0.7236;
77.4000;0.0863;-0.7391;
77.7000;0.0879;-0.7324;
78.0000;0.0838;-0.7369;
78.3000;0.0895;-0.7324;
78.6000;0.0879;-0.7369;
78.9000;0.0895;-0.7258;
79.2000;0.0871;-0.7258;
79.5000;0.0904;-0.7192;
79.8000;0.0887;-0.7280;
80.1000;0.0920;-0.7192;
80.4000;0.0879;-0.7214;
80.7000;0.0887;-0.7214;
81.0000;0.0944;-0.7103;
81.3000;0.0879;-0.7280;
81.6000;0.0871;-0.7280;
81.9000;0.0879;-0.7302;
82.2000;0.0887;-0.7324;
82.5000;0.0847;-0.7457;
82.8000;0.0871;-0.7457;
83.1000;0.0887;-0.7391;
83.4000;0.0895;-0.7302;
83.7000;0.0879;-0.7369;
84.0000;0.0887;-0.7347;
84.3000;0.0985;-0.7192;
84.6000;0.0904;-0.7457;
84.9000;0.0863;-0.7479;
85.2000;0.0879;-0.7413;
85.5000;0.0871;-0.7413;
85.8000;0.0879;-0.7369;
86.1000;0.0887;-0.7302;
86.4000;0.0871;-0.7347;
86.7000;0.0887;-0.7324;
87.0000;0.0814;-0.7501;
87.3000;0.0887;-0.7280;
87.6000;0.0863;-0.7324;
87.9000;0.0863;-0.7457;
88.2000;0.0830;-0.7546;
88.5000;0.0879;-0.7369;
88.8000;0.0871;-0.7501;
89.1000;0.0871;-0.7590;
89.4000;0.0879;-0.7369;
89.7000;0.0871;-0.7324;
90.0000;0.0879;-0.7280;
90.3000;0.0855;-0.7435;
90.6000;0.0936;-0.7236;
90.9000;0.0887;-0.7413;
91.2000;0.0936;-0.7280;
91.5000;0.0879;-0.7324;
91.8000;0.0904;-0.7258;
92.1000;0.0879;-0.7369;
92.4000;0.0961;-0.7147;
92.7000;0.0961;-0.7170;
93.0000;0.0912;-0.7280;
93.3000;0.0887;-0.7258;
93.6000;0.0895;-0.7147;
93.9000;0.0863;-0.7258;
94.2000;0.0904;-0.7147;
94.5000;0.0879;-0.7236;
94.8000;0.0879;-0.7214;
95.1000;0.0944;-0.7125;
95.4000;0.0863;-0.7236;
95.7000;0.0871;-0.7324;
96.0000;0.0814;-0.7435;
96.3000;0.0879;-0.7369;
96.6000;0.0904;-0.7280;
96.9000;0.0912;-0.7236;
97.2000;0.0887;-0.7236;
97.5000;0.0871;-0.7280;
97.8000;0.0879;-0.7302;
98.1000;0.0944;-0.7214;
98.4000;0.0887;-0.7369;
98.7000;0.0904;-0.7413;
99.0000;0.1018;-0.7103;
99.3000;0.0847;-0.7501;
99.6000;0.0887;-0.7369;
99.9000;0.0871;-0.7457;
100.2000;0.0904;-0.7391;
100.5000;0.0904;-0.7413;
100.8000;0.0895;-0.7413;
101.1000;0.1026;-0.7103;
101.4000;0.0904;-0.7435;
101.7000;0.0895;-0.7391;
102.0000;0.0830;-0.7524;
102.3000;0.0944;-0.7324;
102.6000;0.0879;-0.7479;
102.9000;0.0879;-0.7524;
103.2000;0.0895;-0.7435;
103.5000;0.0879;-0.7413;
103.8000;0.0912;-0.7324;
104.1000;0.0887;-0.7369;
104.4000;0.0879;-0.7435;
104.7000;0.0895;-0.7391;
105.0000;0.0879;-0.7369;
105.3000;0.0863;-0.7391;
105.6000;0.0838;-0.7457;
105.9000;0.0887;-0.7347;
106.2000;0.0993;-0.7081;
106.5000;0.0879;-0.7369;
106.8000;0.0855;-0.7457;
107.1000;0.0847;-0.7501;
107.4000;0.0904;-0.7369;
107.7000;0.0969;-0.7214;
108.0000;0.0871;-0.7391;
108.3000;0.0871;-0.7413;
108.6000;0.0895;-0.7347;
108.9000;0.0904;-0.7391;
109.2000;0.0871;-0.7568;
109.5000;0.0904;-0.7347;
109.8000;0.0887;-0.7391;
110.1000;0.0847;-0.7501;
110.4000;0.0920;-0.7479;
110.7000;0.0887;-0.7568;
111.0000;0.0887;-0.7568;
111.3000;0.0920;-0.7546;
111.6000;0.0887;-0.7656;
111.9000;0.1034;-0.7347;
112.2000;0.0798;-0.7811;
112.5000;0.0904;-0.7701;
112.8000;0.0904;-0.7789;
113.1000;0.0855;-0.7900;
113.4000;0.0806;-0.8099;
113.7000;0.0847;-0.7922;
114.0000;0.0912;-0.7634;
114.3000;0.0895;-0.7656;
114.6000;0.0887;-0.7723;
114.9000;0.0871;-0.7789;
115.2000;0.0847;-0.7811;
115.5000;0.0895;-0.7634;
115.8000;0.0928;-0.7568;
116.1000;0.0871;-0.7656;
116.4000;0.0912;-0.7590;
116.7000;0.0879;-0.7612;
117.0000;0.0887;-0.7568;
117.3000;0.0863;-0.7524;
117.6000;0.0952;-0.7413;
117.9000;0.0912;-0.7590;
118.2000;0.0887;-0.7612;
118.5000;0.0871;-0.7634;
118.8000;0.0904;-0.7457;
119.1000;0.0871;-0.7435;
119.4000;0.0895;-0.7324;
119.7000;0.0830;-0.7413;
120.0000;0.0879;-0.7347;
120.3000;0.0887;-0.7347;
120.6000;0.0895;-0.7369;
120.9000;0.0895;-0.7302;
121.2000;0.0944;-0.7236;
121.5000;0.0912;-0.7324;
121.8000;0.0871;-0.7457;
122.1000;0.0830;-0.7568;
122.4000;0.0895;-0.7413;
122.7000;0.0887;-0.7479;
123.0000;0.0822;-0.7590;
123.3000;0.0847;-0.7524;
123.6000;0.0904;-0.7457;
123.9000;0.0871;-0.7524;
124.2000;0.0887;-0.7457;
124.5000;0.0871;-0.7413;
124.8000;0.0895;-0.7302;
125.1000;0.0912;-0.7236;
125.4000;0.0871;-0.7280;
125.7000;0.0895;-0.7258;
126.0000;0.0879;-0.7324;
126.3000;0.0863;-0.7324;
126.6000;0.0887;-0.7280;
126.9000;0.0887;-0.7302;
127.2000;0.0822;-0.7524;
127.5000;0.0871;-0.7524;
127.8000;0.0895;-0.7524;
128.1000;0.0830;-0.7612;
128.4000;0.0879;-0.7413;
128.7000;0.0757;-0.7701;
129.0000;0.0912;-0.7324;
129.3000;0.0895;-0.7369;
129.6000;0.0879;-0.7479;
129.9000;0.0895;-0.7546;
130.2000;0.0936;-0.7568;
130.5000;0.0879;-0.7568;
130.8000;0.0928;-0.7369;
131.1000;0.0887;-0.7413;
131.4000;0.0952;-0.7258;
131.7000;0.0847;-0.7546;
132.0000;0.0871;-0.7479;
132.3000;0.0887;-0.7457;
132.6000;0.0936;-0.7391;
132.9000;0.0887;-0.7435;
133.2000;0.0895;-0.7324;
133.5000;0.0887;-0.7324;
133.8000;0.0904;-0.7302;
134.1000;0.0871;-0.7501;
134.4000;0.0912;-0.7302;
134.7000;0.0887;-0.7369;
135.0000;0.0887;-0.7435;
135.3000;0.0887;-0.7369;
135.6000;0.0879;-0.7347;
135.9000;0.0847;-0.7457;
136.2000;0.0887;-0.7324;
136.5000;0.0871;-0.7369;
136.8000;0.0871;-0.7347;
137.1000;0.0920;-0.7258;
137.4000;0.0822;-0.7413;
137.7000;0.0895;-0.7302;
138.0000;0.0887;-0.7369;
138.3000;0.0912;-0.7391;
138.6000;0.0879;-0.7479;
138.9000;0.0879;-0.7524;
139.2000;0.0895;-0.7413;
139.5000;0.0871;-0.7435;
139.8000;0.0904;-0.7280;
140.1000;0.0895;-0.7302;
140.4000;0.0879;-0.7435;
140.7000;0.0912;-0.7391;
141.0000;0.0887;-0.7479;
141.3000;0.0887;-0.7457;
141.6000;0.0895;-0.7391;
141.9000;0.0895;-0.7391;
142.2000;0.0879;-0.7501;
142.5000;0.0879;-0.7524;
142.8000;0.0887;-0.7457;
143.1000;0.0871;-0.7501;
143.4000;0.0879;-0.7435;
143.7000;0.0887;-0.7413;
144.0000;0.0912;-0.7413;
144.3000;0.0871;-0.7457;
144.6000;0.0879;-0.7413;
144.9000;0.0904;-0.7347;
145.2000;0.0879;-0.7391;
145.5000;0.0879;-0.7479;
145.8000;0.0895;-0.7435;
146.1000;0.0871;-0.7457;
146.4000;0.0887;-0.7479;
146.7000;0.0863;-0.7457;
147.0000;0.0904;-0.7214;
147.3000;0.0871;-0.7280;
147.6000;0.0863;-0.7258;
147.9000;0.0863;-0.7347;
148.2000;0.0887;-0.7214;
148.5000;0.0887;-0.7236;
148.8000;0.0895;-0.7236;
149.1000;0.0863;-0.7324;
149.4000;0.0904;-0.7302;
149.7000;0.0855;-0.7369;
150.0000;0.0887;-0.7413;
150.3000;0.0879;-0.7369;
150.6000;0.0887;-0.7258;
150.9000;0.0847;-0.7391;
151.2000;0.0855;-0.7369;
151.5000;0.0871;-0.7501;
151.8000;0.0871;-0.7457;
152.1000;0.0895;-0.7457;
152.4000;0.0871;-0.7457;
152.7000;0.0895;-0.7324;
153.0000;0.0977;-0.7125;
153.3000;0.0961;-0.7192;
153.6000;0.0879;-0.7369;
153.9000;0.0887;-0.7280;
154.2000;0.0879;-0.7280;
154.5000;0.1009;-0.6904;
154.8000;0.0879;-0.7258;
155.1000;0.0920;-0.7147;
155.4000;0.0895;-0.7236;
155.7000;0.0871;-0.7369;
156.0000;0.0887;-0.7369;
156.3000;0.0904;-0.7369;
156.6000;0.0871;-0.7457;
156.9000;0.0895;-0.7391;
157.2000;0.0879;-0.7347;
157.5000;0.0912;-0.7214;
157.8000;0.0871;-0.7369;
158.1000;0.0944;-0.7192;
158.4000;0.0879;-0.7347;
158.7000;0.0879;-0.7391;
159.0000;0.0790;-0.7546;
159.3000;0.0895;-0.7302;
159.6000;0.0887;-0.7236;
159.9000;0.0822;-0.7369;
160.2000;0.0895;-0.7192;
160.5000;0.0830;-0.7324;
160.8000;0.0871;-0.7280;
161.1000;0.0912;-0.7258;
161.4000;0.0855;-0.7435;
161.7000;0.0895;-0.7347;
162.0000;0.0879;-0.7391;
162.3000;0.0904;-0.7324;
162.6000;0.0847;-0.7391;
162.9000;0.0895;-0.7280;
163.2000;0.0887;-0.7369;
163.5000;0.0887;-0.7280;
163.8000;0.0855;-0.7391;
164.1000;0.0838;-0.7347;
164.4000;0.0887;-0.7192;
164.7000;0.0904;-0.7192;
165.0000;0.0871;-0.7280;
165.3000;0.0879;-0.7280;
165.6000;0.0879;-0.7302;
165.9000;0.0887;-0.7324;
166.2000;0.0895;-0.7413;
166.5000;0.0895;-0.7391;
166.8000;0.0871;-0.7391;
167.1000;0.0904;-0.7302;
167.4000;0.0871;-0.7324;
167.7000;0.0887;-0.7302;
168.0000;0.0847;-0.7347;
168.3000;0.0879;-0.7214;
168.6000;0.0912;-0.7214;
168.9000;0.0904;-0.7280;
169.2000;0.0904;-0.7280;
169.5000;0.0879;-0.7369;
169.8000;0.0904;-0.7324;
170.1000;0.0863;-0.7501;
170.4000;0.0895;-0.7413;
170.7000;0.0895;-0.7457;
171.0000;0.0879;-0.7524;
171.3000;0.0855;-0.7634;
171.6000;0.0887;-0.7568;
171.9000;0.0863;-0.7612;
172.2000;0.0895;-0.7479;
172.5000;0.0904;-0.7391;
172.8000;0.0847;-0.7435;
173.1000;0.0871;-0.7192;
173.4000;0.0879;-0.7258;
173.7000;0.0895;-0.7258;
174.0000;0.0887;-0.7302;
174.3000;0.0871;-0.7324;
174.6000;0.0895;-0.7302;
174.9000;0.0904;-0.7369;
175.2000;0.0887;-0.7280;
175.5000;0.0928;-0.7170;
175.8000;0.0904;-0.7214;
176.1000;0.0855;-0.7391;
176.4000;0.0887;-0.7347;
176.7000;0.0887;-0.7324;
177.0000;0.0838;-0.7435;
177.3000;0.0985;-0.7037;
177.6000;0.0806;-0.7391;
177.9000;0.0904;-0.7170;
178.2000;0.0912;-0.7125;
178.5000;0.0879;-0.7280;
178.8000;0.0895;-0.7236;
179.1000;0.0838;-0.7369;
179.4000;0.0904;-0.7147;
179.7000;0.0741;-0.7479;
180.0000;0.0887;-0.7214;
180.3000;0.0887;-0.7192;
180.6000;0.0863;-0.7236;
180.9000;0.0879;-0.7214;
181.2000;0.0879;-0.7192;
181.5000;0.0806;-0.7347;
181.8000;0.0863;-0.7236;
182.1000;0.0822;-0.7369;
182.4000;0.0879;-0.7192;
182.7000;0.0904;-0.7170;
183.0000;0.0895;-0.7192;
183.3000;0.1001;-0.6992;
183.6000;0.0887;-0.7302;
183.9000;0.0863;-0.7324;
184.2000;0.0895;-0.7280;
184.5000;0.1026;-0.6860;
184.8000;0.0871;-0.7214;
185.1000;0.0863;-0.7302;
185.4000;0.0912;-0.7302;
185.7000;0.0830;-0.7435;
186.0000;0.0993;-0.7015;
186.3000;0.0928;-0.7170;
186.6000;0.0904;-0.7280;
186.9000;0.0871;-0.7391;
187.2000;0.0969;-0.7103;
187.5000;0.0904;-0.7192;
187.8000;0.0887;-0.7258;
188.1000;0.0887;-0.7369;
188.4000;0.0904;-0.7280;
188.7000;0.0887;-0.7192;
189.0000;0.0904;-0.7125;
189.3000;0.0904;-0.7147;
189.6000;0.0969;-0.7015;
189.9000;0.0912;-0.7081;
190.2000;0.0887;-0.7192;
190.5000;0.0887;-0.7258;
190.8000;0.0814;-0.7413;
191.1000;0.0904;-0.7192;
191.4000;0.0895;-0.7147;
191.7000;0.0863;-0.7170;
192.0000;0.0977;-0.6948;
192.3000;0.0887;-0.7081;
192.6000;0.0887;-0.7125;
192.9000;0.0895;-0.7103;
193.2000;0.0879;-0.7147;
193.5000;0.0871;-0.7214;
193.8000;0.0879;-0.7280;
194.1000;0.0879;-0.7391;
194.4000;0.0879;-0.7369;
194.7000;0.0887;-0.7413;
195.0000;0.0895;-0.7347;
195.3000;0.0912;-0.7369;
195.6000;0.0887;-0.7501;
195.9000;0.0879;-0.7546;
196.2000;0.0895;-0.7524;
196.5000;0.0887;-0.7435;
196.8000;0.0887;-0.7479;
197.1000;0.0944;-0.7413;
197.4000;0.0887;-0.7656;
197.7000;0.0887;-0.7656;
198.0000;0.0887;-0.7568;
198.3000;0.0895;-0.7524;
198.6000;0.0879;-0.7524;
198.9000;0.0895;-0.7435;
199.2000;0.0863;-0.7457;
199.5000;0.0879;-0.7435;
199.8000;0.0887;-0.7369;
200.1000;0.0871;-0.7324;
200.4000;0.0887;-0.7369;
200.7000;0.0887;-0.7435;
201.0000;0.1001;-0.7059;
201.3000;0.0887;-0.7347;
201.6000;0.0895;-0.7280;
201.9000;0.0887;-0.7258;
202.2000;0.0895;-0.7258;
202.5000;0.0838;-0.7347;
202.8000;0.0863;-0.7347;
203.1000;0.0895;-0.7280;
203.4000;0.0912;-0.7280;
203.7000;0.0863;-0.7479;
204.0000;0.0879;-0.7479;
204.3000;0.0887;-0.7479;
204.6000;0.0887;-0.7391;
204.9000;0.0879;-0.7457;
205.2000;0.1001;-0.7170;
205.5000;0.0871;-0.7413;
205.8000;0.0895;-0.7391;
206.1000;0.0855;-0.7435;
206.4000;0.0904;-0.7324;
206.7000;0.0912;-0.7324;
207.0000;0.0928;-0.7192;
207.3000;0.0920;-0.7236;
207.6000;0.0879;-0.7236;
207.9000;0.0855;-0.7280;
208.2000;0.0928;-0.7170;
208.5000;0.0863;-0.7347;
208.8000;0.0879;-0.7280;
209.1000;0.0904;-0.7258;
209.4000;0.0912;-0.7280;
209.7000;0.0814;-0.7479;
210.0000;0.0879;-0.7324;
210.3000;0.0928;-0.7324;
210.6000;0.0904;-0.7324;
210.9000;0.0928;-0.7258;
211.2000;0.0895;-0.7369;
211.5000;0.0887;-0.7347;
211.8000;0.0838;-0.7435;
212.1000;0.0879;-0.7258;
212.4000;0.0895;-0.7258;
212.7000;0.0944;-0.7192;
213.0000;0.0887;-0.7391;
213.3000;0.0895;-0.7391;
213.6000;0.0944;-0.7236;
213.9000;0.0904;-0.7369;
214.2000;0.0887;-0.7457;
214.5000;0.0912;-0.7413;
214.8000;0.0847;-0.7546;
215.1000;0.0912;-0.7435;
215.4000;0.0904;-0.7524;
215.7000;0.0904;-0.7590;
216.0000;0.0928;-0.7479;
216.3000;0.0904;-0.7546;
216.6000;0.0887;-0.7590;
216.9000;0.0944;-0.7479;
217.2000;0.0863;-0.7612;
217.5000;0.0887;-0.7457;
217.8000;0.0871;-0.7391;
218.1000;0.0928;-0.7280;
218.4000;0.0895;-0.7347;
218.7000;0.0887;-0.7391;
219.0000;0.0879;-0.7413;
219.3000;0.0871;-0.7457;
219.6000;0.0879;-0.7457;
219.9000;0.0871;-0.7524;
220.2000;0.0912;-0.7435;
220.5000;0.0830;-0.7546;
220.8000;0.0895;-0.7369;
221.1000;0.0879;-0.7391;
221.4000;0.0904;-0.7280;
221.7000;0.0912;-0.7302;
222.0000;0.0879;-0.7391;
222.3000;0.0781;-0.7590;
222.6000;0.0830;-0.7524;
222.9000;0.0904;-0.7324;
223.2000;0.0952;-0.7214;
223.5000;0.0912;-0.7324;
223.8000;0.0871;-0.7435;
224.1000;0.0952;-0.7258;
224.4000;0.0879;-0.7457;
224.7000;0.1026;-0.7192;
225.0000;0.0904;-0.7568;
225.3000;0.0904;-0.7590;
225.6000;0.0895;-0.7723;
225.9000;0.0871;-0.7811;
226.2000;0.0879;-0.7745;
226.5000;0.0904;-0.7656;
226.8000;0.0904;-0.7678;
227.1000;0.0895;-0.7678;
227.4000;0.0863;-0.7723;
227.7000;0.0863;-0.7833;
228.0000;0.0871;-0.7767;
228.3000;0.0912;-0.7678;
228.6000;0.0855;-0.7678;
228.9000;0.0887;-0.7590;
229.2000;0.0781;-0.7767;
229.5000;0.0887;-0.7501;
229.8000;0.0952;-0.7280;
230.1000;0.0920;-0.7391;
230.4000;0.0838;-0.7524;
230.7000;0.0904;-0.7302;
231.0000;0.0895;-0.7324;
231.3000;0.0904;-0.7369;
231.6000;0.0895;-0.7347;
231.9000;0.0904;-0.7324;
232.2000;0.0895;-0.7369;
232.5000;0.0798;-0.7656;
232.8000;0.0838;-0.7479;
233.1000;0.0871;-0.7413;
233.4000;0.0871;-0.7391;
233.7000;0.0871;-0.7302;
234.0000;0.0895;-0.7236;
234.3000;0.0904;-0.7192;
234.6000;0.0928;-0.7147;
234.9000;0.0879;-0.7324;
235.2000;0.0887;-0.7347;
235.5000;0.0895;-0.7324;
235.8000;0.0863;-0.7369;
236.1000;0.0895;-0.7302;
236.4000;0.0904;-0.7413;
236.7000;0.0895;-0.7479;
237.0000;0.0879;-0.7457;
237.3000;0.0863;-0.7413;
237.6000;0.0895;-0.7369;
237.9000;0.0887;-0.7302;
238.2000;0.0879;-0.7302;
238.5000;0.0871;-0.7302;
238.8000;0.0928;-0.7170;
239.1000;0.0912;-0.7236;
239.4000;0.0871;-0.7280;
239.7000;0.0879;-0.7280;
240.0000;0.0871;-0.7302;
240.3000;0.0912;-0.7192;
240.6000;0.0879;-0.7347;
240.9000;0.0871;-0.7347;
241.2000;0.0904;-0.7347;
241.5000;0.0895;-0.7369;
241.8000;0.0912;-0.7413;
242.1000;0.0895;-0.7324;
242.4000;0.0871;-0.7391;
242.7000;0.0895;-0.7391;
243.0000;0.0887;-0.7391;
243.3000;0.0879;-0.7347;
243.6000;0.0871;-0.7258;
243.9000;0.0977;-0.7059;
244.2000;0.0912;-0.7192;
244.5000;0.0993;-0.7015;
244.8000;0.0887;-0.7391;
245.1000;0.0863;-0.7391;
245.4000;0.0879;-0.7369;
245.7000;0.0952;-0.7214;
246.0000;0.0977;-0.7147;
246.3000;0.0863;-0.7391;
246.6000;0.0871;-0.7324;
246.9000;0.0895;-0.7236;
247.2000;0.0871;-0.7214;
247.5000;0.1042;-0.6838;
247.8000;0.0863;-0.7302;
248.1000;0.0895;-0.7258;
248.4000;0.0895;-0.7280;
248.7000;0.0887;-0.7347;
249.0000;0.0920;-0.7236;
249.3000;0.0879;-0.7280;
249.6000;0.0895;-0.7258;
249.9000;0.0969;-0.7059;
250.2000;0.0920;-0.7214;
250.5000;0.0895;-0.7236;
250.8000;0.0887;-0.7302;
251.1000;0.0887;-0.7214;
251.4000;0.0806;-0.7479;
251.7000;0.0887;-0.7236;
252.0000;0.0879;-0.7347;
252.3000;0.0879;-0.7369;
252.6000;0.0887;-0.7369;
252.9000;0.0871;-0.7479;
253.2000;0.0879;-0.7369;
253.5000;0.0871;-0.7324;
253.8000;0.0895;-0.7302;
254.1000;0.0887;-0.7435;
254.4000;0.0920;-0.7280;
254.7000;0.0895;-0.7236;
255.0000;0.0904;-0.7214;
255.3000;0.0887;-0.7236;
255.6000;0.0879;-0.7324;
255.9000;0.0895;-0.7302;
256.2000;0.0871;-0.7324;
256.5000;0.0887;-0.7258;
256.8000;0.0879;-0.7214;
257.1000;0.0904;-0.6992;
257.4000;0.0904;-0.7015;
257.7000;0.0879;-0.7103;
258.0000;0.0838;-0.7214;
258.3000;0.0895;-0.7103;
258.6000;0.0887;-0.7103;
258.9000;0.0904;-0.7125;
259.2000;0.0944;-0.6992;
259.5000;0.0871;-0.7324;
259.8000;0.0895;-0.7302;
260.1000;0.0887;-0.7413;
260.4000;0.0904;-0.7369;
260.7000;0.0879;-0.7324;
261.0000;0.0895;-0.7369;
261.3000;0.0904;-0.7391;
261.6000;0.0895;-0.7302;
261.9000;0.0879;-0.7280;
262.2000;0.0952;-0.7081;
262.5000;0.0863;-0.7258;
262.8000;0.0879;-0.7280;
263.1000;0.0887;-0.7258;
263.4000;0.0879;-0.7302;
263.7000;0.0887;-0.7192;
264.0000;0.0855;-0.7170;
264.3000;0.0912;-0.7147;
264.6000;0.0879;-0.7302;
264.9000;0.0879;-0.7369;
265.2000;0.0904;-0.7413;
265.5000;0.0871;-0.7479;
265.8000;0.0887;-0.7435;
266.1000;0.0895;-0.7369;
266.4000;0.0879;-0.7324;
266.7000;0.0871;-0.7324;
267.0000;0.0847;-0.7479;
267.3000;0.0912;-0.7347;
267.6000;0.0895;-0.7347;
267.9000;0.0871;-0.7501;
268.2000;0.0871;-0.7435;
268.5000;0.0895;-0.7435;
268.8000;0.0912;-0.7479;
269.1000;0.0895;-0.7369;
269.4000;0.0895;-0.7324;
269.7000;0.0920;-0.7258;
270.0000;0.0863;-0.7391;
270.3000;0.0879;-0.7369;
270.6000;0.0887;-0.7524;
270.9000;0.0895;-0.7479;
271.2000;0.0822;-0.7568;
271.5000;0.0855;-0.7501;
271.8000;0.0871;-0.7413;
272.1000;0.0871;-0.7369;
272.4000;0.0806;-0.7413;
272.7000;0.0920;-0.7081;
273.0000;0.0879;-0.7192;
273.3000;0.0863;-0.7258;
273.6000;0.0879;-0.7192;
273.9000;0.0814;-0.7369;
274.2000;0.0806;-0.7524;
274.5000;0.0863;-0.7324;
274.8000;0.0887;-0.7236;
275.1000;0.0904;-0.7170;
275.4000;0.0904;-0.7170;
275.7000;0.0781;-0.7479;
276.0000;0.0798;-0.7479;
276.3000;0.0879;-0.7258;
276.6000;0.0904;-0.7147;
276.9000;0.0879;-0.7280;
277.2000;0.0928;-0.7214;
277.5000;0.0944;-0.7214;
277.8000;0.0887;-0.7347;
278.1000;0.0863;-0.7413;
278.4000;0.0879;-0.7280;
278.7000;0.0871;-0.7258;
279.0000;0.0887;-0.7214;
279.3000;0.0961;-0.7059;
279.6000;0.0847;-0.7347;
279.9000;0.0838;-0.7435;
280.2000;0.0904;-0.7280;
280.5000;0.0887;-0.7347;
280.8000;0.0904;-0.7302;
281.1000;0.0879;-0.7302;
281.4000;0.0879;-0.7236;
281.7000;0.0920;-0.7103;
282.0000;0.0993;-0.6882;
282.3000;0.0904;-0.7103;
282.6000;0.0871;-0.7192;
282.9000;0.0887;-0.7236;
283.2000;0.0855;-0.7347;
283.5000;0.0847;-0.7369;
283.8000;0.0887;-0.7324;
284.1000;0.0887;-0.7347;
284.4000;0.0863;-0.7391;
284.7000;0.0895;-0.7302;
285.0000;0.0830;-0.7435;
285.3000;0.0904;-0.7324;
285.6000;0.0879;-0.7435;
285.9000;0.0838;-0.7524;
286.2000;0.0830;-0.7612;
286.5000;0.0871;-0.7479;
286.8000;0.0871;-0.7457;
287.1000;0.0887;-0.7413;
287.4000;0.0920;-0.7347;
287.7000;0.0879;-0.7413;
288.0000;0.0879;-0.7413;
288.3000;0.0904;-0.7369;
288.6000;0.0879;-0.7391;
288.9000;0.0895;-0.7391;
289.2000;0.0904;-0.7324;
289.5000;0.0887;-0.7457;
289.8000;0.0887;-0.7391;
290.1000;0.0887;-0.7435;
290.4000;0.0895;-0.7369;
290.7000;0.0904;-0.7391;
291.0000;0.0887;-0.7501;
291.3000;0.0847;-0.7590;
291.6000;0.0871;-0.7501;
291.9000;0.0887;-0.7435;
292.2000;0.0871;-0.7546;
292.5000;0.0879;-0.7546;
292.8000;0.0879;-0.7590;
293.1000;0.0879;-0.7634;
293.4000;0.0887;-0.7546;
293.7000;0.0936;-0.7457;
294.0000;0.0895;-0.7501;
294.3000;0.0879;-0.7656;
294.6000;0.0822;-0.7855;
294.9000;0.0920;-0.7678;
295.2000;0.1042;-0.7347;
295.5000;0.0895;-0.7678;
295.8000;0.0871;-0.7678;
296.1000;0.0863;-0.7678;
296.4000;0.0879;-0.7656;
296.7000;0.0879;-0.7678;
297.0000;0.0904;-0.7590;
297.3000;0.0879;-0.7656;
297.6000;0.0855;-0.7656;
297.9000;0.0879;-0.7524;
298.2000;0.0887;-0.7568;
298.5000;0.0855;-0.7590;
298.8000;0.0830;-0.7678;
299.1000;0.0773;-0.7855;
299.4000;0.0863;-0.7612;
299.7000;0.0871;-0.7568;
300.0000;0.0806;-0.7723;
300.3000;0.0879;-0.7546;
300.6000;0.0887;-0.7524;
300.9000;0.0887;-0.7435;
301.2000;0.0879;-0.7457;
301.5000;0.0863;-0.7413;
301.8000;0.0895;-0.7258;
302.1000;0.0920;-0.7192;
302.4000;0.0879;-0.7280;
302.7000;0.0904;-0.7280;
303.0000;0.0806;-0.7524;
303.3000;0.0830;-0.7479;
303.6000;0.0887;-0.7324;
303.9000;0.0887;-0.7391;
304.2000;0.0879;-0.7391;
304.5000;0.0887;-0.7369;
304.8000;0.0871;-0.7413;
305.1000;0.0895;-0.7369;
305.4000;0.0879;-0.7391;
305.7000;0.0895;-0.7369;
306.0000;0.0920;-0.7391;
306.3000;0.0912;-0.7413;
306.6000;0.0904;-0.7501;
306.9000;0.0887;-0.7413;
307.2000;0.0895;-0.7369;
307.5000;0.0879;-0.7457;
307.8000;0.0904;-0.7347;
308.1000;0.0879;-0.7347;
308.4000;0.0871;-0.7435;
308.7000;0.0879;-0.7479;
309.0000;0.0863;-0.7457;
309.3000;0.0912;-0.7302;
309.6000;0.0912;-0.7280;
309.9000;0.0920;-0.7258;
310.2000;0.0895;-0.7280;
310.5000;0.0887;-0.7369;
310.8000;0.0830;-0.7501;
311.1000;0.0887;-0.7413;
311.4000;0.0879;-0.7457;
311.7000;0.0871;-0.7457;
312.0000;0.0871;-0.7457;
312.3000;0.0879;-0.7391;
312.6000;0.0879;-0.7391;
312.9000;0.0879;-0.7435;
313.2000;0.0716;-0.7855;
313.5000;0.0895;-0.7479;
313.8000;0.0838;-0.7612;
314.1000;0.0904;-0.7457;
314.4000;0.0887;-0.7347;
314.7000;0.0879;-0.7347;
315.0000;0.0887;-0.7302;
315.3000;0.0863;-0.7457;
315.6000;0.0904;-0.7435;
315.9000;0.0847;-0.7457;
316.2000;0.0887;-0.7413;
316.5000;0.0863;-0.7413;
316.8000;0.0887;-0.7413;
317.1000;0.0871;-0.7546;
317.4000;0.0871;-0.7479;
317.7000;0.0879;-0.7435;
318.0000;0.0887;-0.7324;
318.3000;0.0912;-0.7258;
318.6000;0.0879;-0.7302;
318.9000;0.0985;-0.7059;
319.2000;0.0879;-0.7369;
319.5000;0.0749;-0.7789;
319.8000;0.0863;-0.7457;
320.1000;0.0904;-0.7369;
320.4000;0.0871;-0.7413;
320.7000;0.0830;-0.7501;
321.0000;0.0887;-0.7391;
321.3000;0.0830;-0.7568;
321.6000;0.0871;-0.7435;
321.9000;0.0936;-0.7324;
322.2000;0.0887;-0.7501;
322.5000;0.0855;-0.7568;
322.8000;0.0912;-0.7413;
323.1000;0.0879;-0.7435;
323.4000;0.0944;-0.7280;
323.7000;0.0895;-0.7457;
324.0000;0.0895;-0.7479;
324.3000;0.0920;-0.7391;
324.6000;0.0887;-0.7524;
324.9000;0.0904;-0.7391;
325.2000;0.0863;-0.7457;
325.5000;0.0887;-0.7391;
325.8000;0.0879;-0.7435;
326.1000;0.0798;-0.7590;
326.4000;0.0895;-0.7347;
326.7000;0.0895;-0.7280;
327.0000;0.0879;-0.7369;
327.3000;0.0838;-0.7568;
327.6000;0.0879;-0.7391;
327.9000;0.0855;-0.7546;
328.2000;0.0895;-0.7457;
328.5000;0.0871;-0.7479;
328.8000;0.0912;-0.7435;
329.1000;0.0895;-0.7457;
329.4000;0.0904;-0.7369;
329.7000;0.0895;-0.7347;
330.0000;0.0887;-0.7369;
330.3000;0.0863;-0.7479;
330.6000;0.0830;-0.7590;
330.9000;0.0912;-0.7457;
331.2000;0.0904;-0.7435;
331.5000;0.0879;-0.7457;
331.8000;0.0879;-0.7413;
332.1000;0.0871;-0.7457;
332.4000;0.0904;-0.7391;
332.7000;0.0952;-0.7236;
333.0000;0.0904;-0.7413;
333.3000;0.0952;-0.7280;
333.6000;0.0895;-0.7435;
333.9000;0.0887;-0.7413;
334.2000;0.0830;-0.7501;
334.5000;0.0912;-0.7347;
334.8000;0.0838;-0.7546;
335.1000;0.0855;-0.7501;
335.4000;0.0887;-0.7457;
335.7000;0.0879;-0.7501;
336.0000;0.0912;-0.7302;
336.3000;0.0798;-0.7524;
336.6000;0.0830;-0.7413;
336.9000;0.0887;-0.7258;
337.2000;0.0952;-0.7081;
337.5000;0.0863;-0.7413;
337.8000;0.0887;-0.7324;
338.1000;0.0871;-0.7302;
338.4000;0.0887;-0.7280;
338.7000;0.0904;-0.7214;
339.0000;0.0863;-0.7258;
339.3000;0.0912;-0.7125;
339.6000;0.0944;-0.7037;
339.9000;0.0904;-0.7125;
340.2000;0.0895;-0.7147;
340.5000;0.0952;-0.7081;
340.8000;0.0895;-0.7170;
341.1000;0.0879;-0.7192;
341.4000;0.0887;-0.7280;
341.7000;0.0969;-0.7037;
342.0000;0.0895;-0.7214;
342.3000;0.0920;-0.7147;
342.6000;0.0879;-0.7214;
342.9000;0.0814;-0.7369;
343.2000;0.0887;-0.7192;
343.5000;0.0912;-0.7103;
343.8000;0.0944;-0.6992;
344.1000;0.0879;-0.7147;
344.4000;0.0863;-0.7170;
344.7000;0.0830;-0.7280;
345.0000;0.0887;-0.7125;
345.3000;0.0887;-0.7081;
345.6000;0.0887;-0.7170;
345.9000;0.0887;-0.7214;
346.2000;0.0887;-0.7192;
346.5000;0.0863;-0.7258;
346.8000;0.0920;-0.7081;
347.1000;0.0887;-0.7236;
347.4000;0.0871;-0.7258;
347.7000;0.0895;-0.7192;
348.0000;0.0879;-0.7258;
348.3000;0.0806;-0.7457;
348.6000;0.0920;-0.7214;
348.9000;0.0855;-0.7369;
349.2000;0.0863;-0.7302;
349.5000;0.0887;-0.7170;
349.8000;0.0920;-0.7103;
350.1000;0.0887;-0.7125;
350.4000;0.0895;-0.7147;
350.7000;0.0887;-0.7170;
351.0000;0.0936;-0.7125;
351.3000;0.0895;-0.7081;
351.6000;0.0895;-0.7015;
351.9000;0.0887;-0.7103;
352.2000;0.0904;-0.7103;
352.5000;0.0863;-0.7214;
352.8000;0.0847;-0.7302;
353.1000;0.0879;-0.7236;
353.4000;0.0871;-0.7236;
353.7000;0.0904;-0.7258;
354.0000;0.0879;-0.7324;
354.3000;0.0887;-0.7258;
354.6000;0.0879;-0.7258;
354.9000;0.0920;-0.7236;
355.2000;0.0887;-0.7324;
355.5000;0.0887;-0.7280;
355.8000;0.0871;-0.7369;
356.1000;0.0887;-0.7302;
356.4000;0.0855;-0.7457;
356.7000;0.0871;-0.7590;
357.0000;0.0887;-0.7479;
357.3000;0.0863;-0.7457;
357.6000;0.1001;-0.7081;
357.9000;0.0887;-0.7413;
358.2000;0.0855;-0.7501;
358.5000;0.0887;-0.7435;
358.8000;0.0887;-0.7324;
359.1000;0.0887;-0.7302;
359.4000;0.0904;-0.7214;
359.7000;0.0863;-0.7324;
360.0000;0.0912;-0.7192;
360.3000;0.0895;-0.7236;
360.6000;0.0879;-0.7324;
360.9000;0.0887;-0.7347;
361.2000;0.0749;-0.7634;
361.5000;0.0847;-0.7435;
361.8000;0.0806;-0.7501;
362.1000;0.0887;-0.7324;
362.4000;0.0936;-0.7214;
362.7000;0.0863;-0.7435;
363.0000;0.0838;-0.7479;
363.3000;0.0879;-0.7435;
363.6000;0.0847;-0.7568;
363.9000;0.0847;-0.7524;
364.2000;0.0879;-0.7435;
364.5000;0.0830;-0.7612;
364.8000;0.0887;-0.7457;
365.1000;0.0887;-0.7413;
365.4000;0.0806;-0.7568;
365.7000;0.0822;-0.7457;
366.0000;0.0879;-0.7391;
366.3000;0.0895;-0.7347;
366.6000;0.0912;-0.7324;
366.9000;0.0936;-0.7236;
367.2000;0.0879;-0.7236;
367.5000;0.0863;-0.7413;
367.8000;0.0928;-0.7236;
368.1000;0.0871;-0.7369;
368.4000;0.0887;-0.7324;
368.7000;0.0912;-0.7258;
369.0000;0.0887;-0.7302;
369.3000;0.1042;-0.6771;
369.6000;0.0887;-0.7214;
369.9000;0.0887;-0.7302;
370.2000;0.0895;-0.7302;
370.5000;0.0969;-0.7103;
370.8000;0.0871;-0.7258;
371.1000;0.0904;-0.7236;
371.4000;0.0895;-0.7258;
371.7000;0.0879;-0.7369;
372.0000;0.0895;-0.7324;
372.3000;0.0871;-0.7324;
372.6000;0.0895;-0.7280;
372.9000;0.0895;-0.7413;
373.2000;0.0912;-0.7391;
373.5000;0.0887;-0.7391;
373.8000;0.0912;-0.7280;
374.1000;0.0912;-0.7391;
374.4000;0.0904;-0.7347;
374.7000;0.0895;-0.7347;
375.0000;0.0920;-0.7236;
375.3000;0.0895;-0.7280;
375.6000;0.0895;-0.7192;
375.9000;0.0879;-0.7236;
376.2000;0.0863;-0.7280;
376.5000;0.0895;-0.7236;
376.8000;0.0961;-0.7081;
377.1000;0.0895;-0.7258;
377.4000;0.0895;-0.7236;
377.7000;0.0920;-0.7236;
378.0000;0.0904;-0.7192;
378.3000;0.0904;-0.7192;
378.6000;0.0969;-0.6970;
378.9000;0.0871;-0.7192;
379.2000;0.0920;-0.7059;
379.5000;0.0887;-0.7170;
379.8000;0.0814;-0.7457;
380.1000;0.0904;-0.7347;
380.4000;0.0920;-0.7302;
380.7000;0.0928;-0.7280;
381.0000;0.0887;-0.7369;
381.3000;0.0912;-0.7280;
381.6000;0.0920;-0.7170;
381.9000;0.0904;-0.7170;
382.2000;0.0920;-0.7170;
382.5000;0.0863;-0.7192;
382.8000;0.0887;-0.7258;
383.1000;0.0879;-0.7236;
383.4000;0.0871;-0.7258;
383.7000;0.0847;-0.7347;
384.0000;0.0879;-0.7214;
384.3000;0.0920;-0.7147;
384.6000;0.0855;-0.7302;
384.9000;0.0895;-0.7147;
385.2000;0.0757;-0.7479;
385.5000;0.0887;-0.7214;
385.8000;0.0887;-0.7192;
386.1000;0.0863;-0.7214;
386.4000;0.0887;-0.7170;
386.7000;0.0855;-0.7192;
387.0000;0.0895;-0.7103;
387.3000;0.0904;-0.7125;
387.6000;0.0838;-0.7236;
387.9000;0.0863;-0.7214;
388.2000;0.0944;-0.7059;
388.5000;0.0822;-0.7302;
388.8000;0.0871;-0.7214;
389.1000;0.0904;-0.7125;
389.4000;0.0887;-0.7236;
389.7000;0.0912;-0.7125;
390.0000;0.0952;-0.7015;
390.3000;0.0912;-0.7081;
390.6000;0.0944;-0.6992;
390.9000;0.0904;-0.7214;
391.2000;0.0879;-0.7258;
391.5000;0.0871;-0.7324;
391.8000;0.0887;-0.7324;
392.1000;0.0879;-0.7324;
392.4000;0.0904;-0.7192;
392.7000;0.0887;-0.7147;
393.0000;0.0928;-0.7037;
393.3000;0.0879;-0.7170;
393.6000;0.0887;-0.7192;
393.9000;0.0879;-0.7302;
394.2000;0.0887;-0.7258;
394.5000;0.0887;-0.7258;
394.8000;0.0879;-0.7214;
395.1000;0.0863;-0.7302;
395.4000;0.0895;-0.7236;
395.7000;0.0912;-0.7214;
396.0000;0.0855;-0.7324;
396.3000;0.0887;-0.7324;
396.6000;0.0871;-0.7391;
396.9000;0.0895;-0.7324;
397.2000;0.0847;-0.7457;
397.5000;0.0887;-0.7324;
397.8000;0.0855;-0.7413;
398.1000;0.0895;-0.7324;
398.4000;0.0920;-0.7236;
398.7000;0.0920;-0.7192;
399.0000;0.0887;-0.7170;
399.3000;0.0879;-0.7280;
399.6000;0.0904;-0.7170;
399.9000;0.0904;-0.7170;
400.2000;0.0887;-0.7214;
400.5000;0.0895;-0.7125;
400.8000;0.0928;-0.7059;
401.1000;0.0887;-0.7125;
401.4000;0.0887;-0.7147;
401.7000;0.0871;-0.7147;
402.0000;0.0863;-0.7280;
402.3000;0.0838;-0.7369;
402.6000;0.0887;-0.7236;
402.9000;0.0871;-0.7435;
403.2000;0.0904;-0.7413;
403.5000;0.0871;-0.7457;
403.8000;0.0871;-0.7479;
404.1000;0.0814;-0.7546;
404.4000;0.0985;-0.7059;
404.7000;0.0895;-0.7302;
405.0000;0.0961;-0.7170;
405.3000;0.0895;-0.7258;
405.6000;0.0879;-0.7236;
405.9000;0.0920;-0.7192;
406.2000;0.0936;-0.7059;
406.5000;0.0871;-0.7280;
406.8000;0.0912;-0.7125;
407.1000;0.0895;-0.7081;
407.4000;0.0855;-0.7214;
407.7000;0.0871;-0.7125;
408.0000;0.0887;-0.7258;
408.3000;0.0904;-0.7192;
408.6000;0.0863;-0.7258;
408.9000;0.0993;-0.7015;
409.2000;0.0887;-0.7258;
409.5000;0.0887;-0.7236;
409.8000;0.0895;-0.7170;
410.1000;0.0863;-0.7258;
410.4000;0.0920;-0.7170;
410.7000;0.0838;-0.7324;
411.0000;0.0879;-0.7280;
411.3000;0.0961;-0.7125;
411.6000;0.0822;-0.7546;
411.9000;0.0904;-0.7391;
412.2000;0.0790;-0.7612;
412.5000;0.0879;-0.7435;
412.8000;0.0879;-0.7501;
413.1000;0.0887;-0.7457;
413.4000;0.0814;-0.7612;
413.7000;0.0871;-0.7501;
414.0000;0.0912;-0.7369;
414.3000;0.0895;-0.7435;
414.6000;0.0895;-0.7435;
414.9000;0.0814;-0.7479;
415.2000;0.0969;-0.7059;
415.5000;0.0822;-0.7413;
415.8000;0.0879;-0.7280;
416.1000;0.0904;-0.7214;
416.4000;0.0895;-0.7192;
416.7000;0.0879;-0.7192;
417.0000;0.0863;-0.7170;
417.3000;0.0887;-0.7059;
417.6000;0.0863;-0.7125;
417.9000;0.0879;-0.7103;
418.2000;0.0871;-0.7192;
418.5000;0.0920;-0.7103;
418.8000;0.0944;-0.7103;
419.1000;0.0920;-0.7147;
419.4000;0.0863;-0.7347;
419.7000;0.0879;-0.7347;
420.0000;0.0912;-0.7280;
420.3000;0.0895;-0.7236;
420.6000;0.0855;-0.7170;
420.9000;0.0879;-0.7192;
421.2000;0.0912;-0.7214;
421.5000;0.0879;-0.7280;
421.8000;0.0912;-0.7258;
422.1000;0.0863;-0.7435;
422.4000;0.0920;-0.7258;
422.7000;0.0879;-0.7369;
423.0000;0.0895;-0.7258;
423.3000;0.0838;-0.7435;
423.6000;0.0871;-0.7391;
423.9000;0.0879;-0.7324;
424.2000;0.0887;-0.7236;
424.5000;0.0863;-0.7214;
424.8000;0.1001;-0.6793;
425.1000;0.0757;-0.7413;
425.4000;0.0895;-0.7103;
425.7000;0.0904;-0.7147;
426.0000;0.0863;-0.7258;
426.3000;0.0887;-0.7347;
426.6000;0.0790;-0.7656;
426.9000;0.0863;-0.7435;
427.2000;0.0863;-0.7391;
427.5000;0.0863;-0.7369;
427.8000;0.0904;-0.7302;
428.1000;0.0895;-0.7369;
428.4000;0.0904;-0.7369;
428.7000;0.0887;-0.7413;
429.0000;0.0912;-0.7435;
429.3000;0.0871;-0.7568;
429.6000;0.0895;-0.7435;
429.9000;0.0855;-0.7546;
430.2000;0.0838;-0.7524;
430.5000;0.0879;-0.7435;
430.8000;0.0895;-0.7347;
431.1000;0.0879;-0.7347;
431.4000;0.0904;-0.7192;
431.7000;0.0904;-0.7302;
432.0000;0.0879;-0.7347;
432.3000;0.0895;-0.7258;
432.6000;0.0895;-0.7236;
432.9000;0.0855;-0.7236;
433.2000;0.0928;-0.7037;
433.5000;0.0879;-0.7236;
433.8000;0.0838;-0.7413;
434.1000;0.0887;-0.7258;
434.4000;0.0871;-0.7302;
434.7000;0.0871;-0.7324;
435.0000;0.0863;-0.7413;
435.3000;0.0838;-0.7479;
435.6000;0.0879;-0.7435;
435.9000;0.0879;-0.7435;
436.2000;0.0912;-0.7391;
436.5000;0.0863;-0.7479;
436.8000;0.0904;-0.7347;
437.1000;0.0887;-0.7324;
437.4000;0.0887;-0.7280;
437.7000;0.0871;-0.7324;
438.0000;0.0879;-0.7258;
438.3000;0.0895;-0.7192;
438.6000;0.0904;-0.7192;
438.9000;0.0895;-0.7103;
439.2000;0.0904;-0.7059;
439.5000;0.0879;-0.7081;
439.8000;0.0904;-0.7081;
440.1000;0.0879;-0.7170;
440.4000;0.0887;-0.7170;
440.7000;0.0863;-0.7214;
441.0000;0.0887;-0.7236;
441.3000;0.0879;-0.7236;
441.6000;0.0904;-0.7214;
441.9000;0.0879;-0.7302;
442.2000;0.0887;-0.7347;
442.5000;0.0895;-0.7214;
442.8000;0.0904;-0.7192;
443.1000;0.0887;-0.7170;
443.4000;0.0879;-0.7170;
443.7000;0.0871;-0.7258;
444.0000;0.0879;-0.7258;
444.3000;0.0904;-0.7192;
444.6000;0.0887;-0.7302;
444.9000;0.0855;-0.7391;
445.2000;0.0879;-0.7302;
445.5000;0.0855;-0.7391;
445.8000;0.0879;-0.7302;
446.1000;0.0879;-0.7236;
446.4000;0.0904;-0.7236;
446.7000;0.0879;-0.7236;
447.0000;0.0887;-0.7192;
447.3000;0.0887;-0.7103;
447.6000;0.0887;-0.7147;
447.9000;0.0904;-0.7103;
448.2000;0.0969;-0.6992;
448.5000;0.0887;-0.7214;
448.8000;0.0871;-0.7236;
449.1000;0.0887;-0.7125;
449.4000;0.0887;-0.7125;
449.7000;0.0887;-0.7170;
450.0000;0.0895;-0.7147;
450.3000;0.0863;-0.7170;
450.6000;0.0879;-0.7125;
450.9000;0.0871;-0.7125;
451.2000;0.0879;-0.7081;
451.5000;0.0887;-0.7103;
451.8000;0.0871;-0.7125;
452.1000;0.0887;-0.7037;
452.4000;0.0887;-0.7059;
452.7000;0.0830;-0.7214;
453.0000;0.0847;-0.7170;
453.3000;0.0855;-0.7280;
453.6000;0.0993;-0.6970;
453.9000;0.0887;-0.7280;
454.2000;0.0993;-0.6992;
454.5000;0.0855;-0.7324;
454.8000;0.0887;-0.7236;
455.1000;0.0912;-0.7192;
455.4000;0.0952;-0.6992;
455.7000;0.0814;-0.7258;
456.0000;0.0887;-0.7214;
456.3000;0.0936;-0.7015;
456.6000;0.0952;-0.7037;
456.9000;0.0887;-0.7147;
457.2000;0.1099;-0.6705;
457.5000;0.0895;-0.7147;
457.8000;0.0912;-0.7214;
458.1000;0.0887;-0.7258;
458.4000;0.0936;-0.7170;
458.7000;0.0798;-0.7546;
459.0000;0.0912;-0.7302;
459.3000;0.0887;-0.7413;
459.6000;0.0781;-0.7656;
459.9000;0.0879;-0.7435;
460.2000;0.0887;-0.7501;
460.5000;0.0904;-0.7479;
460.8000;0.0920;-0.7457;
461.1000;0.0863;-0.7568;
461.4000;0.0904;-0.7391;
461.7000;0.0961;-0.7280;
462.0000;0.0887;-0.7479;
462.3000;0.0863;-0.7501;
462.6000;0.0887;-0.7546;
462.9000;0.0863;-0.7501;
463.2000;0.0855;-0.7501;
463.5000;0.0871;-0.7435;
463.8000;0.0879;-0.7369;
464.1000;0.0879;-0.7302;
464.4000;0.0879;-0.7324;
464.7000;0.0887;-0.7347;
465.0000;0.0904;-0.7280;
465.3000;0.0822;-0.7391;
465.6000;0.0887;-0.7236;
465.9000;0.0895;-0.7214;
466.2000;0.0895;-0.7192;
466.5000;0.0879;-0.7192;
466.8000;0.0904;-0.7170;
467.1000;0.0871;-0.7125;
467.4000;0.0879;-0.7103;
467.7000;0.0871;-0.7170;
468.0000;0.0961;-0.6970;
468.3000;0.0887;-0.7081;
468.6000;0.0887;-0.7125;
468.9000;0.0904;-0.7170;
469.2000;0.0952;-0.7081;
469.5000;0.0879;-0.7214;
469.8000;0.0912;-0.7236;
470.1000;0.0814;-0.7568;
470.4000;0.0863;-0.7391;
470.7000;0.0904;-0.7192;
471.0000;0.0863;-0.7214;
471.3000;0.0863;-0.7258;
471.6000;0.0895;-0.7125;
471.9000;0.0887;-0.7192;
472.2000;0.0977;-0.6948;
472.5000;0.0879;-0.7125;
472.8000;0.0895;-0.7059;
473.1000;0.0887;-0.7037;
473.4000;0.0895;-0.7037;
473.7000;0.0855;-0.7147;
474.0000;0.0887;-0.7015;
474.3000;0.0969;-0.6838;
474.6000;0.0912;-0.7081;
474.9000;0.0879;-0.7170;
475.2000;0.0724;-0.7524;
475.5000;0.0871;-0.7214;
475.8000;0.0895;-0.7081;
476.1000;0.0904;-0.7037;
476.4000;0.0863;-0.7103;
476.7000;0.0952;-0.6904;
477.0000;0.0879;-0.7125;
477.3000;0.0879;-0.7125;
477.6000;0.0912;-0.7015;
477.9000;0.0879;-0.7103;
478.2000;0.0895;-0.7059;
478.5000;0.0879;-0.7059;
478.8000;0.0855;-0.7170;
479.1000;0.0863;-0.7192;
479.4000;0.0895;-0.7125;
479.7000;0.0944;-0.6948;
480.0000;0.0863;-0.7081;
480.3000;0.0920;-0.6970;
480.6000;0.0847;-0.7103;
480.9000;0.0936;-0.6970;
481.2000;0.0912;-0.6992;
481.5000;0.0944;-0.6860;
481.8000;0.0879;-0.7081;
482.1000;0.0879;-0.7037;
482.4000;0.0847;-0.7125;
482.7000;0.0863;-0.7192;
483.0000;0.0912;-0.7125;
483.3000;0.0904;-0.7125;
483.6000;0.0977;-0.6882;
483.9000;0.0887;-0.7103;
484.2000;0.0871;-0.7236;
484.5000;0.0871;-0.7280;
484.8000;0.0895;-0.7214;
485.1000;0.0879;-0.7324;
485.4000;0.0904;-0.7214;
485.7000;0.0895;-0.7236;
486.0000;0.0904;-0.7147;
486.3000;0.0912;-0.7059;
486.6000;0.0871;-0.7147;
486.9000;0.0863;-0.7258;
487.2000;0.0871;-0.7258;
487.5000;0.0912;-0.7081;
487.8000;0.0871;-0.7236;
488.1000;0.0871;-0.7280;
488.4000;0.0912;-0.7214;
488.7000;0.0887;-0.7258;
489.0000;0.0912;-0.7103;
489.3000;0.0952;-0.7037;
489.6000;0.0863;-0.7302;
489.9000;0.1001;-0.6926;
490.2000;0.0895;-0.7059;
490.5000;0.0879;-0.7170;
490.8000;0.0895;-0.7214;
491.1000;0.0952;-0.7147;
491.4000;0.0879;-0.7236;
491.7000;0.1001;-0.6882;
492.0000;0.0920;-0.7125;
492.3000;0.0928;-0.7147;
492.6000;0.0855;-0.7236;
492.9000;0.0904;-0.7170;
493.2000;0.0798;-0.7457;
493.5000;0.0871;-0.7258;
493.8000;0.0879;-0.7236;
494.1000;0.0855;-0.7280;
494.4000;0.0847;-0.7302;
494.7000;0.0895;-0.7170;
495.0000;0.0895;-0.7170;
495.3000;0.0895;-0.7147;
495.6000;0.0855;-0.7236;
495.9000;0.0895;-0.7037;
496.2000;0.0912;-0.7037;
496.5000;0.0879;-0.7037;
496.8000;0.0879;-0.7059;
497.1000;0.0879;-0.7170;
497.4000;0.0871;-0.7302;
497.7000;0.0928;-0.7258;
498.0000;0.0871;-0.7324;
498.3000;0.0847;-0.7391;
498.6000;0.0887;-0.7302;
498.9000;0.0879;-0.7214;
499.2000;0.0830;-0.7280;
499.5000;0.0871;-0.7214;
499.8000;0.0904;-0.7081;
500.1000;0.0969;-0.6948;
500.4000;0.0895;-0.7125;
500.7000;0.0904;-0.7059;
501.0000;0.0887;-0.7081;
501.3000;0.0904;-0.7059;
501.6000;0.0863;-0.7125;
501.9000;0.0904;-0.7059;
502.2000;0.0822;-0.7280;
502.5000;0.0871;-0.7103;
502.8000;0.0879;-0.7081;
503.1000;0.0887;-0.7125;
503.4000;0.0920;-0.7037;
503.7000;0.0895;-0.7059;
504.0000;0.0887;-0.7103;
504.3000;0.0895;-0.7103;
504.6000;0.0855;-0.7236;
504.9000;0.0920;-0.7081;
505.2000;0.0887;-0.7170;
505.5000;0.0887;-0.7192;
505.8000;0.0887;-0.7125;
506.1000;0.0928;-0.7059;
506.4000;0.0838;-0.7369;
506.7000;0.0879;-0.7302;
507.0000;0.0887;-0.7324;
507.3000;0.0904;-0.7324;
507.6000;0.0838;-0.7524;
507.9000;0.0887;-0.7347;
508.2000;0.0904;-0.7214;
508.5000;0.0904;-0.7192;
508.8000;0.0879;-0.7236;
509.1000;0.0871;-0.7214;
509.4000;0.0961;-0.6926;
509.7000;0.0871;-0.7059;
510.0000;0.0879;-0.7015;
510.3000;0.0936;-0.6838;
510.6000;0.0887;-0.7015;
510.9000;0.0904;-0.6992;
511.2000;0.0904;-0.6992;
511.5000;0.0912;-0.7037;
511.8000;0.0879;-0.7081;
512.1000;0.0847;-0.7125;
512.4000;0.0920;-0.6948;
512.7000;0.0863;-0.7103;
513.0000;0.0895;-0.7037;
513.3000;0.0863;-0.7103;
513.6000;0.0838;-0.7170;
513.9000;0.0879;-0.7103;
514.2000;0.0879;-0.7103;
514.5000;0.0871;-0.7125;
514.8000;0.0904;-0.7059;
515.1000;0.0879;-0.7103;
515.4000;0.0863;-0.7103;
515.7000;0.0920;-0.6970;
516.0000;0.0936;-0.6970;
516.3000;0.0887;-0.7059;
516.6000;0.0871;-0.7059;
516.9000;0.0961;-0.6749;
517.2000;0.0887;-0.6948;
517.5000;0.0887;-0.7037;
517.8000;0.0822;-0.7192;
518.1000;0.0879;-0.7059;
518.4000;0.0847;-0.7103;
518.7000;0.0863;-0.7103;
519.0000;0.0871;-0.7125;
519.3000;0.0944;-0.6948;
519.6000;0.0871;-0.7147;
519.9000;0.0887;-0.7125;
520.2000;0.0887;-0.7236;
520.5000;0.0912;-0.7125;
520.8000;0.0830;-0.7214;
521.1000;0.0895;-0.7103;
521.4000;0.0887;-0.7147;
521.7000;0.0912;-0.7103;
522.0000;0.0944;-0.7059;
522.3000;0.0879;-0.7280;
522.6000;0.0887;-0.7170;
522.9000;0.0879;-0.7214;
523.2000;0.0855;-0.7236;
523.5000;0.0871;-0.7192;
523.8000;0.0879;-0.7125;
524.1000;0.0887;-0.7081;
524.4000;0.0895;-0.7147;
524.7000;0.0912;-0.7103;
525.0000;0.0887;-0.7214;
525.3000;0.0920;-0.7125;
525.6000;0.0895;-0.7192;
525.9000;0.0879;-0.7192;
526.2000;0.0895;-0.7192;
526.5000;0.0879;-0.7236;
526.8000;0.0871;-0.7258;
527.1000;0.0961;-0.7103;
527.4000;0.0855;-0.7324;
527.7000;0.0904;-0.7302;
528.0000;0.0871;-0.7369;
528.3000;0.0895;-0.7302;
528.6000;0.0879;-0.7324;
528.9000;0.0904;-0.7302;
529.2000;0.0887;-0.7369;
529.5000;0.0904;-0.7236;
529.8000;0.0920;-0.7236;
530.1000;0.0879;-0.7369;
530.4000;0.0993;-0.7015;
530.7000;0.0895;-0.7147;
531.0000;0.0871;-0.7258;
531.3000;0.0879;-0.7280;
531.6000;0.0887;-0.7369;
531.9000;0.0993;-0.7059;
532.2000;0.0904;-0.7280;
532.5000;0.0936;-0.7170;
532.8000;0.0936;-0.7170;
533.1000;0.0863;-0.7324;
533.4000;0.0790;-0.7457;
533.7000;0.0895;-0.7324;
534.0000;0.0912;-0.7280;
534.3000;0.0879;-0.7347;
534.6000;0.0920;-0.7280;
534.9000;0.0887;-0.7413;
535.2000;0.0912;-0.7391;
535.5000;0.0879;-0.7413;
535.8000;0.0895;-0.7369;
536.1000;0.0895;-0.7369;
536.4000;0.0904;-0.7347;
536.7000;0.0887;-0.7324;
537.0000;0.0887;-0.7214;
537.3000;0.0863;-0.7324;
537.6000;0.0879;-0.7258;
537.9000;0.0969;-0.6970;
538.2000;0.0952;-0.6926;
538.5000;0.0879;-0.7236;
538.8000;0.0887;-0.7236;
539.1000;0.0871;-0.7192;
539.4000;0.0863;-0.7125;
539.7000;0.0912;-0.6970;
540.0000;0.0871;-0.7037;
540.3000;0.0806;-0.7236;
540.6000;0.0904;-0.6970;
540.9000;0.0863;-0.7147;
541.2000;0.0895;-0.7059;
541.5000;0.0895;-0.7037;
541.8000;0.0855;-0.7125;
542.1000;0.0887;-0.7103;
542.4000;0.0879;-0.7147;
542.7000;0.0855;-0.7258;
543.0000;0.0879;-0.7170;
543.3000;0.0952;-0.7059;
543.6000;0.0871;-0.7302;
543.9000;0.0838;-0.7479;
544.2000;0.0879;-0.7347;
544.5000;0.0887;-0.7280;
544.8000;0.0855;-0.7369;
545.1000;0.0895;-0.7347;
545.4000;0.0855;-0.7391;
545.7000;0.0871;-0.7302;
546.0000;0.0871;-0.7324;
546.3000;0.0863;-0.7302;
546.6000;0.0895;-0.7170;
546.9000;0.0879;-0.7192;
547.2000;0.0895;-0.7125;
547.5000;0.0863;-0.7170;
547.8000;0.0904;-0.6992;
548.1000;0.0773;-0.7236;
548.4000;0.0863;-0.7103;
548.7000;0.0863;-0.7103;
549.0000;0.0887;-0.7015;
549.3000;0.0912;-0.6926;
549.6000;0.0961;-0.6793;
549.9000;0.0887;-0.7059;
550.2000;0.0961;-0.6882;
550.5000;0.0887;-0.7103;
550.8000;0.0879;-0.7125;
551.1000;0.0822;-0.7302;
551.4000;0.0871;-0.7236;
551.7000;0.0936;-0.7037;
552.0000;0.0904;-0.7103;
552.3000;0.0855;-0.7147;
552.6000;0.0838;-0.7214;
552.9000;0.0855;-0.7280;
553.2000;0.0904;-0.7214;
553.5000;0.0928;-0.7125;
553.8000;0.0912;-0.7147;
554.1000;0.0855;-0.7236;
554.4000;0.0871;-0.7103;
554.7000;0.0871;-0.7081;
555.0000;0.0895;-0.6992;
555.3000;0.0920;-0.7037;
555.6000;0.0904;-0.7125;
555.9000;0.0904;-0.7147;
556.2000;0.0863;-0.7192;
556.5000;0.0879;-0.7103;
556.8000;0.0855;-0.7170;
557.1000;0.0790;-0.7236;
557.4000;0.0855;-0.7214;
557.7000;0.0879;-0.7059;
558.0000;0.0871;-0.7125;
558.3000;0.0895;-0.6992;
558.6000;0.0887;-0.6970;
558.9000;0.0879;-0.7015;
559.2000;0.0904;-0.7081;
559.5000;0.0871;-0.7170;
559.8000;0.1050;-0.6771;
560.1000;0.0895;-0.7147;
560.4000;0.0920;-0.7103;
560.7000;0.0895;-0.7103;
561.0000;0.0863;-0.7236;
561.3000;0.0895;-0.7170;
561.6000;0.0863;-0.7280;
561.9000;0.0879;-0.7236;
562.2000;0.0871;-0.7324;
562.5000;0.0879;-0.7236;
562.8000;0.0871;-0.7236;
563.1000;0.0879;-0.7258;
563.4000;0.0904;-0.7214;
563.7000;0.0814;-0.7435;
564.0000;0.0879;-0.7324;
564.3000;0.0879;-0.7324;
564.6000;0.0871;-0.7192;
564.9000;0.0887;-0.7170;
565.2000;0.0863;-0.7258;
565.5000;0.0879;-0.7236;
565.8000;0.0952;-0.7147;
566.1000;0.0944;-0.7192;
566.4000;0.0895;-0.7413;
566.7000;0.0879;-0.7457;
567.0000;0.0879;-0.7435;
567.3000;0.0855;-0.7501;
567.6000;0.0952;-0.7302;
567.9000;0.0904;-0.7413;
568.2000;0.0887;-0.7324;
568.5000;0.0871;-0.7369;
568.8000;0.0838;-0.7413;
569.1000;0.0895;-0.7258;
569.4000;0.0855;-0.7280;
569.7000;0.0879;-0.7236;
570.0000;0.0855;-0.7302;
570.3000;0.0879;-0.7280;
570.6000;0.0863;-0.7302;
570.9000;0.0879;-0.7302;
571.2000;0.0895;-0.7147;
571.5000;0.0895;-0.7192;
571.8000;0.0855;-0.7280;
572.1000;0.0895;-0.7147;
572.4000;0.0887;-0.7236;
572.7000;0.0855;-0.7236;
573.0000;0.0838;-0.7236;
573.3000;0.0887;-0.7192;
573.6000;0.0855;-0.7258;
573.9000;0.0871;-0.7147;
574.2000;0.0952;-0.6992;
574.5000;0.0855;-0.7192;
574.8000;0.0895;-0.7170;
575.1000;0.0895;-0.7125;
575.4000;0.0936;-0.6904;
575.7000;0.0855;-0.7147;
576.0000;0.0895;-0.7037;
576.3000;0.0871;-0.7147;
576.6000;0.0879;-0.7236;
576.9000;0.0879;-0.7214;
577.2000;0.0879;-0.7147;
577.5000;0.0985;-0.6970;
577.8000;0.0887;-0.7192;
578.1000;0.0887;-0.7125;
578.4000;0.0879;-0.7103;
578.7000;0.0895;-0.7103;
579.0000;0.0952;-0.7037;
579.3000;0.0887;-0.7214;
579.6000;0.0879;-0.7280;
579.9000;0.0871;-0.7280;
580.2000;0.0887;-0.7258;
580.5000;0.0879;-0.7302;
580.8000;0.0879;-0.7280;
581.1000;0.0912;-0.7170;
581.4000;0.0904;-0.7192;
581.7000;0.0912;-0.7214;
582.0000;0.0887;-0.7236;
582.3000;0.0887;-0.7258;
582.6000;0.0879;-0.7369;
582.9000;0.0757;-0.7590;
583.2000;0.0847;-0.7236;
583.5000;0.0871;-0.7125;
583.8000;0.0871;-0.7125;
584.1000;0.0895;-0.7125;
584.4000;0.0863;-0.7214;
584.7000;0.0912;-0.7081;
585.0000;0.0879;-0.7214;
585.3000;0.0847;-0.7302;
585.6000;0.0855;-0.7214;
585.9000;0.0920;-0.7103;
586.2000;0.0781;-0.7457;
586.5000;0.0895;-0.7170;
586.8000;0.0887;-0.7192;
587.1000;0.0912;-0.7170;
587.4000;0.0887;-0.7170;
587.7000;0.0920;-0.7170;
588.0000;0.0855;-0.7324;
588.3000;0.0863;-0.7347;
588.6000;0.0969;-0.7170;
588.9000;0.0879;-0.7347;
589.2000;0.0920;-0.7236;
589.5000;0.0863;-0.7369;
589.8000;0.0838;-0.7413;
590.1000;0.0855;-0.7347;
590.4000;0.0863;-0.7302;
590.7000;0.0863;-0.7236;
591.0000;0.0977;-0.6970;
591.3000;0.0806;-0.7347;
591.6000;0.0895;-0.7214;
591.9000;0.0895;-0.7170;
592.2000;0.0847;-0.7258;
592.5000;0.0920;-0.7037;
592.8000;0.0904;-0.7037;
593.1000;0.0871;-0.7125;
593.4000;0.0912;-0.6926;
593.7000;0.0904;-0.6948;
594.0000;0.0952;-0.6926;
594.3000;0.0904;-0.7125;
594.6000;0.0887;-0.7236;
594.9000;0.0912;-0.7280;
595.2000;0.0871;-0.7347;
595.5000;0.0887;-0.7391;
595.8000;0.0895;-0.7435;
596.1000;0.0887;-0.7501;
596.4000;0.0871;-0.7501;
596.7000;0.0855;-0.7546;
597.0000;0.0822;-0.7634;
597.3000;0.0855;-0.7524;
597.6000;0.0920;-0.7324;
597.9000;0.0887;-0.7347;
598.2000;0.0879;-0.7347;
598.5000;0.0887;-0.7236;
598.8000;0.0838;-0.7347;
599.1000;0.0912;-0.7170;
599.4000;0.0879;-0.7125;
599.7000;0.0887;-0.7059;
600.0000;0.0887;-0.7147;
600.3000;0.0863;-0.7103;
600.6000;0.0961;-0.6948;
600.9000;0.0863;-0.7280;
601.2000;0.0871;-0.7302;
601.5000;0.0871;-0.7369;
601.8000;0.0830;-0.7590;
602.1000;0.0847;-0.7745;
602.4000;0.0952;-0.7501;
602.7000;0.0887;-0.7811;
603.0000;0.0855;-0.7900;
603.3000;0.0830;-0.8010;
603.6000;0.0847;-0.7988;
603.9000;0.0781;-0.8187;
604.2000;0.0838;-0.8121;
604.5000;0.0757;-0.8364;
604.8000;0.0822;-0.8165;
605.1000;0.0806;-0.8254;
605.4000;0.0830;-0.8232;
605.7000;0.0830;-0.8187;
606.0000;0.0814;-0.8254;
606.3000;0.0822;-0.8276;
606.6000;0.0822;-0.8298;
606.9000;0.0765;-0.8453;
607.2000;0.0830;-0.8276;
607.5000;0.0814;-0.8342;
607.8000;0.0806;-0.8475;
608.1000;0.0814;-0.8431;
608.4000;0.0798;-0.8453;
608.7000;0.0749;-0.8608;
609.0000;0.0781;-0.8564;
609.3000;0.0765;-0.8630;
609.6000;0.0871;-0.8409;
609.9000;0.0806;-0.8541;
610.2000;0.0790;-0.8586;
610.5000;0.0798;-0.8586;
610.8000;0.0790;-0.8608;
611.1000;0.0798;-0.8564;
611.4000;0.0781;-0.8630;
611.7000;0.0781;-0.8674;
612.0000;0.0781;-0.8763;
612.3000;0.0798;-0.8608;
612.6000;0.0806;-0.8608;
612.9000;0.0952;-0.8210;
613.2000;0.0798;-0.8431;
613.5000;0.0822;-0.8431;
613.8000;0.0733;-0.8630;
614.1000;0.0806;-0.8475;
614.4000;0.0781;-0.8541;
614.7000;0.0790;-0.8519;
615.0000;0.0822;-0.8519;
615.3000;0.0814;-0.8541;
615.6000;0.0798;-0.8608;
615.9000;0.0765;-0.8630;
616.2000;0.0790;-0.8608;
616.5000;0.0798;-0.8541;
616.8000;0.0798;-0.8541;
617.1000;0.0814;-0.8564;
617.4000;0.0790;-0.8586;
617.7000;0.0757;-0.8630;
618.0000;0.0790;-0.8519;
618.3000;0.0790;-0.8586;
618.6000;0.0781;-0.8608;
618.9000;0.0773;-0.8608;
619.2000;0.0781;-0.8608;
619.5000;0.0733;-0.8674;
619.8000;0.0765;-0.8608;
620.1000;0.0749;-0.8674;
620.4000;0.0790;-0.8541;
620.7000;0.0806;-0.8475;
621.0000;0.0773;-0.8519;
621.3000;0.0798;-0.8564;
621.6000;0.0765;-0.8630;
621.9000;0.0798;-0.8541;
622.2000;0.0773;-0.8608;
622.5000;0.0733;-0.8741;
622.8000;0.0765;-0.8630;
623.1000;0.0806;-0.8586;
623.4000;0.0716;-0.8763;
623.7000;0.0724;-0.8741;
624.0000;0.0773;-0.8674;
624.3000;0.0765;-0.8674;
624.6000;0.0757;-0.8741;
624.9000;0.0757;-0.8896;
625.2000;0.0773;-0.8851;
625.5000;0.0781;-0.8829;
625.8000;0.0773;-0.8807;
626.1000;0.0781;-0.8873;
626.4000;0.0724;-0.8940;
626.7000;0.0773;-0.8851;
627.0000;0.0790;-0.8785;
627.3000;0.0773;-0.8785;
627.6000;0.0749;-0.8851;
627.9000;0.0749;-0.8829;
628.2000;0.0765;-0.8763;
628.5000;0.0838;-0.8564;
628.8000;0.0773;-0.8630;
629.1000;0.0790;-0.8497;
629.4000;0.0757;-0.8541;
629.7000;0.0773;-0.8409;
630.0000;0.0684;-0.8586;
630.3000;0.0749;-0.8497;
630.6000;0.0822;-0.8409;
630.9000;0.0781;-0.8519;
631.2000;0.0757;-0.8630;
631.5000;0.0749;-0.8741;
631.8000;0.0773;-0.8652;
632.1000;0.0765;-0.8674;
632.4000;0.0765;-0.8652;
632.7000;0.0757;-0.8630;
633.0000;0.0741;-0.8630;
633.3000;0.0724;-0.8652;
633.6000;0.0773;-0.8652;
633.9000;0.0749;-0.8741;
634.2000;0.0741;-0.8696;
634.5000;0.0765;-0.8586;
634.8000;0.0879;-0.8364;
635.1000;0.0798;-0.8497;
635.4000;0.0773;-0.8564;
635.7000;0.0724;-0.8652;
636.0000;0.0765;-0.8608;
636.3000;0.0757;-0.8541;
636.6000;0.0773;-0.8541;
636.9000;0.0749;-0.8586;
637.2000;0.0765;-0.8541;
637.5000;0.0781;-0.8519;
637.8000;0.0749;-0.8586;
638.1000;0.0781;-0.8497;
638.4000;0.0765;-0.8453;
638.7000;0.0765;-0.8519;
639.0000;0.0773;-0.8586;
639.3000;0.0749;-0.8696;
639.6000;0.0757;-0.8586;
639.9000;0.0765;-0.8519;
640.2000;0.0838;-0.8431;
640.5000;0.0773;-0.8608;
640.8000;0.0765;-0.8586;
641.1000;0.0765;-0.8564;
641.4000;0.0765;-0.8608;
641.7000;0.0757;-0.8652;
642.0000;0.0765;-0.8652;
642.3000;0.0724;-0.8785;
642.6000;0.0781;-0.8608;
642.9000;0.0757;-0.8652;
643.2000;0.0790;-0.8519;
643.5000;0.0806;-0.8409;
643.8000;0.0773;-0.8519;
644.1000;0.0790;-0.8475;
644.4000;0.0757;-0.8564;
644.7000;0.0790;-0.8431;
645.0000;0.0757;-0.8409;
645.3000;0.0765;-0.8342;
645.6000;0.0757;-0.8387;
645.9000;0.0781;-0.8364;
646.2000;0.0741;-0.8497;
646.5000;0.0733;-0.8564;
646.8000;0.0765;-0.8519;
647.1000;0.0757;-0.8475;
647.4000;0.0692;-0.8519;
647.7000;0.0757;-0.8298;
648.0000;0.0765;-0.8342;
648.3000;0.0773;-0.8387;
648.6000;0.0765;-0.8475;
648.9000;0.0749;-0.8564;
649.2000;0.0773;-0.8453;
649.5000;0.0822;-0.8276;
649.8000;0.0781;-0.8431;
650.1000;0.0790;-0.8364;
650.4000;0.0765;-0.8453;
650.7000;0.0822;-0.8254;
651.0000;0.0749;-0.8453;
651.3000;0.0733;-0.8497;
651.6000;0.0741;-0.8497;
651.9000;0.0700;-0.8630;
652.2000;0.0627;-0.8807;
652.5000;0.0757;-0.8564;
652.8000;0.0659;-0.8741;
653.1000;0.0757;-0.8608;
653.4000;0.0724;-0.8630;
653.7000;0.0798;-0.8497;
654.0000;0.0741;-0.8630;
654.3000;0.0684;-0.8652;
654.6000;0.0749;-0.8519;
654.9000;0.0773;-0.8475;
655.2000;0.0757;-0.8431;
655.5000;0.0749;-0.8431;
655.8000;0.0749;-0.8453;
656.1000;0.0676;-0.8674;
656.4000;0.0757;-0.8431;
656.7000;0.0741;-0.8497;
657.0000;0.0765;-0.8364;
657.3000;0.0741;-0.8364;
657.6000;0.0749;-0.8387;
657.9000;0.0635;-0.8741;
658.2000;0.0847;-0.8232;
658.5000;0.0757;-0.8431;
658.8000;0.0781;-0.8342;
659.1000;0.0635;-0.8718;
659.4000;0.0765;-0.8387;
659.7000;0.0757;-0.8364;
660.0000;0.0733;-0.8453;
660.3000;0.0741;-0.8497;
660.6000;0.0757;-0.8431;
660.9000;0.0757;-0.8387;
661.2000;0.0749;-0.8387;
661.5000;0.0757;-0.8387;
661.8000;0.0724;-0.8475;
662.1000;0.0741;-0.8453;
662.4000;0.0741;-0.8475;
662.7000;0.0757;-0.8453;
663.0000;0.0757;-0.8409;
663.3000;0.0741;-0.8453;
663.6000;0.0749;-0.8497;
663.9000;0.0733;-0.8497;
664.2000;0.0716;-0.8497;
664.5000;0.0741;-0.8541;
664.8000;0.0781;-0.8431;
665.1000;0.0838;-0.8298;
665.4000;0.0749;-0.8541;
665.7000;0.0741;-0.8608;
666.0000;0.0749;-0.8608;
666.3000;0.0765;-0.8696;
666.6000;0.0741;-0.8718;
666.9000;0.0676;-0.8829;
667.2000;0.0757;-0.8564;
667.5000;0.0765;-0.8630;
667.8000;0.0773;-0.8608;
668.1000;0.0757;-0.8652;
668.4000;0.0830;-0.8409;
668.7000;0.0757;-0.8541;
669.0000;0.0790;-0.8475;
669.3000;0.0741;-0.8453;
669.6000;0.0741;-0.8475;
669.9000;0.0757;-0.8409;
670.2000;0.0741;-0.8541;
670.5000;0.0757;-0.8431;
670.8000;0.0716;-0.8431;
671.1000;0.0733;-0.8387;
671.4000;0.0757;-0.8298;
671.7000;0.0757;-0.8254;
672.0000;0.0733;-0.8342;
672.3000;0.0724;-0.8276;
672.6000;0.0741;-0.8232;
672.9000;0.0749;-0.8099;
673.2000;0.0733;-0.8099;
673.5000;0.0773;-0.8033;
673.8000;0.0724;-0.8210;
674.1000;0.0733;-0.8099;
674.4000;0.0733;-0.8121;
674.7000;0.0733;-0.8121;
675.0000;0.0765;-0.8033;
675.3000;0.0676;-0.8254;
675.6000;0.0757;-0.8099;
675.9000;0.0757;-0.8187;
676.2000;0.0733;-0.8320;
676.5000;0.0724;-0.8387;
676.8000;0.0716;-0.8497;
677.1000;0.0749;-0.8320;
677.4000;0.0773;-0.8254;
677.7000;0.0749;-0.8254;
678.0000;0.0757;-0.8298;
678.3000;0.0667;-0.8475;
678.6000;0.0716;-0.8276;
678.9000;0.0627;-0.8519;
679.2000;0.0741;-0.8320;
679.5000;0.0773;-0.8320;
679.8000;0.0716;-0.8453;
680.1000;0.0749;-0.8320;
680.4000;0.0757;-0.8298;
680.7000;0.0733;-0.8320;
681.0000;0.0733;-0.8254;
681.3000;0.0757;-0.8187;
681.6000;0.0757;-0.8254;
681.9000;0.0716;-0.8298;
682.2000;0.0643;-0.8475;
682.5000;0.0749;-0.8187;
682.8000;0.0659;-0.8409;
683.1000;0.0757;-0.8165;
683.4000;0.0757;-0.8187;
683.7000;0.0716;-0.8276;
684.0000;0.0716;-0.8298;
684.3000;0.0741;-0.8298;
684.6000;0.0733;-0.8364;
684.9000;0.0757;-0.8364;
685.2000;0.0749;-0.8320;
685.5000;0.0716;-0.8320;
685.8000;0.0741;-0.8276;
686.1000;0.0733;-0.8298;
686.4000;0.0724;-0.8276;
686.7000;0.0838;-0.8099;
687.0000;0.0724;-0.8409;
687.3000;0.0716;-0.8387;
687.6000;0.0741;-0.8276;
687.9000;0.0757;-0.8276;
688.2000;0.0741;-0.8254;
688.5000;0.0716;-0.8298;
688.8000;0.0724;-0.8232;
689.1000;0.0724;-0.8276;
689.4000;0.0765;-0.8232;
689.7000;0.0724;-0.8298;
690.0000;0.0741;-0.8143;
690.3000;0.0741;-0.7988;
690.6000;0.0757;-0.8033;
690.9000;0.0733;-0.8033;
691.2000;0.0741;-0.8055;
691.5000;0.0773;-0.8077;
691.8000;0.0733;-0.8143;
692.1000;0.0724;-0.8276;
692.4000;0.0676;-0.8342;
692.7000;0.0716;-0.8232;
693.0000;0.0733;-0.8254;
693.3000;0.0733;-0.8276;
693.6000;0.0676;-0.8519;
693.9000;0.0733;-0.8453;
694.2000;0.0651;-0.8652;
694.5000;0.0830;-0.8320;
694.8000;0.0741;-0.8387;
695.1000;0.0733;-0.8364;
695.4000;0.0749;-0.8276;
695.7000;0.0733;-0.8320;
696.0000;0.0733;-0.8364;
696.3000;0.0716;-0.8475;
696.6000;0.0749;-0.8387;
696.9000;0.0741;-0.8387;
697.2000;0.0676;-0.8431;
697.5000;0.0733;-0.8276;
697.8000;0.0757;-0.8342;
698.1000;0.0749;-0.8387;
698.4000;0.0830;-0.8210;
698.7000;0.0724;-0.8409;
699.0000;0.0676;-0.8431;
699.3000;0.0667;-0.8431;
699.6000;0.0716;-0.8276;
699.9000;0.0741;-0.8210;
700.2000;0.0814;-0.7988;
700.5000;0.0741;-0.8232;
700.8000;0.0716;-0.8210;
701.1000;0.0733;-0.8165;
701.4000;0.0749;-0.8077;
701.7000;0.0733;-0.8165;
702.0000;0.0724;-0.8232;
702.3000;0.0749;-0.8165;
702.6000;0.0724;-0.8276;
702.9000;0.0757;-0.8254;
703.2000;0.0749;-0.8364;
703.5000;0.0741;-0.8453;
703.8000;0.0651;-0.8674;
704.1000;0.0733;-0.8342;
704.4000;0.0716;-0.8409;
704.7000;0.0692;-0.8453;
705.0000;0.0716;-0.8453;
705.3000;0.0781;-0.8276;
705.6000;0.0724;-0.8342;
705.9000;0.0741;-0.8276;
706.2000;0.0724;-0.8320;
706.5000;0.0749;-0.8298;
706.8000;0.0724;-0.8165;
707.1000;0.0765;-0.8143;
707.4000;0.0724;-0.8320;
707.7000;0.0700;-0.8364;
708.0000;0.0733;-0.8210;
708.3000;0.0757;-0.8121;
708.6000;0.0716;-0.8254;
708.9000;0.0724;-0.8298;
709.2000;0.0765;-0.8210;
709.5000;0.0733;-0.8342;
709.8000;0.0749;-0.8364;
710.1000;0.0716;-0.8431;
710.4000;0.0724;-0.8409;
710.7000;0.0757;-0.8276;
711.0000;0.0765;-0.8342;
711.3000;0.0700;-0.8431;
711.6000;0.0733;-0.8364;
711.9000;0.0741;-0.8298;
712.2000;0.0724;-0.8387;
712.5000;0.0733;-0.8453;
712.8000;0.0724;-0.8364;
713.1000;0.0733;-0.8320;
713.4000;0.0741;-0.8320;
713.7000;0.0733;-0.8342;
714.0000;0.0741;-0.8298;
714.3000;0.0749;-0.8364;
714.6000;0.0724;-0.8431;
714.9000;0.0790;-0.8276;
715.2000;0.0635;-0.8696;
715.5000;0.0724;-0.8342;
715.8000;0.0749;-0.8254;
716.1000;0.0765;-0.8232;
716.4000;0.0724;-0.8276;
716.7000;0.0700;-0.8342;
717.0000;0.0741;-0.8254;
717.3000;0.0765;-0.8210;
717.6000;0.0700;-0.8387;
717.9000;0.0741;-0.8165;
718.2000;0.0806;-0.8033;
718.5000;0.0700;-0.8298;
718.8000;0.0724;-0.8276;
719.1000;0.0724;-0.8232;
719.4000;0.0798;-0.8099;
719.7000;0.0716;-0.8342;
720.0000;0.0684;-0.8431;
720.3000;0.0765;-0.8276;
720.6000;0.0724;-0.8342;
720.9000;0.0724;-0.8342;
721.2000;0.0716;-0.8387;
721.5000;0.0586;-0.8718;
721.8000;0.0724;-0.8409;
722.1000;0.0708;-0.8409;
722.4000;0.0724;-0.8364;
722.7000;0.0724;-0.8387;
723.0000;0.0838;-0.8055;
723.3000;0.0749;-0.8254;
723.6000;0.0716;-0.8298;
723.9000;0.0708;-0.8320;
724.2000;0.0708;-0.8409;
724.5000;0.0757;-0.8409;
724.8000;0.0757;-0.8431;
725.1000;0.0692;-0.8541;
725.4000;0.0733;-0.8431;
725.7000;0.0749;-0.8342;
726.0000;0.0708;-0.8276;
726.3000;0.0733;-0.8210;
726.6000;0.0733;-0.8165;
726.9000;0.0716;-0.8254;
727.2000;0.0749;-0.8254;
727.5000;0.0741;-0.8298;
727.8000;0.0716;-0.8409;
728.1000;0.0700;-0.8364;
728.4000;0.0749;-0.8364;
728.7000;0.0757;-0.8298;
729.0000;0.0765;-0.8342;
729.3000;0.0700;-0.8431;
729.6000;0.0716;-0.8387;
729.9000;0.0765;-0.8254;
730.2000;0.0741;-0.8364;
730.5000;0.0708;-0.8409;
730.8000;0.0708;-0.8453;
731.1000;0.0806;-0.8165;
731.4000;0.0733;-0.8254;
731.7000;0.0733;-0.8276;
732.0000;0.0716;-0.8298;
732.3000;0.0724;-0.8232;
732.6000;0.0724;-0.8187;
732.9000;0.0716;-0.8254;
733.2000;0.0733;-0.8232;
733.5000;0.0733;-0.8276;
733.8000;0.0798;-0.8165;
734.1000;0.0716;-0.8431;
734.4000;0.0741;-0.8387;
734.7000;0.0716;-0.8453;
735.0000;0.0708;-0.8431;
735.3000;0.0716;-0.8409;
735.6000;0.0749;-0.8254;
735.9000;0.0781;-0.8099;
736.2000;0.0733;-0.8143;
736.5000;0.0716;-0.8232;
736.8000;0.0724;-0.8254;
737.1000;0.0757;-0.8210;
737.4000;0.0733;-0.8254;
737.7000;0.0724;-0.8210;
738.0000;0.0749;-0.8077;
738.3000;0.0847;-0.7833;
738.6000;0.0733;-0.8099;
738.9000;0.0790;-0.7922;
739.2000;0.0700;-0.8055;
739.5000;0.0741;-0.8033;
739.8000;0.0765;-0.8010;
740.1000;0.0700;-0.8165;
740.4000;0.0765;-0.8099;
740.7000;0.0724;-0.8143;
741.0000;0.0684;-0.8254;
741.3000;0.0716;-0.8276;
741.6000;0.0733;-0.8298;
741.9000;0.0724;-0.8364;
742.2000;0.0741;-0.8387;
742.5000;0.0757;-0.8431;
742.8000;0.0741;-0.8453;
743.1000;0.0749;-0.8475;
743.4000;0.0814;-0.8276;
743.7000;0.0741;-0.8453;
744.0000;0.0822;-0.8254;
744.3000;0.0724;-0.8409;
744.6000;0.0724;-0.8320;
744.9000;0.0733;-0.8320;
745.2000;0.0749;-0.8232;
745.5000;0.0733;-0.8387;
745.8000;0.0724;-0.8364;
746.1000;0.0708;-0.8342;
746.4000;0.0749;-0.8364;
746.7000;0.0733;-0.8387;
747.0000;0.0724;-0.8431;
747.3000;0.0724;-0.8409;
747.6000;0.0724;-0.8475;
747.9000;0.0733;-0.8387;
748.2000;0.0716;-0.8519;
748.5000;0.0757;-0.8387;
748.8000;0.0716;-0.8497;
749.1000;0.0806;-0.8187;
749.4000;0.0708;-0.8364;
749.7000;0.0749;-0.8298;
750.0000;0.0724;-0.8342;
750.3000;0.0741;-0.8254;
750.6000;0.0733;-0.8210;
750.9000;0.0749;-0.8210;
751.2000;0.0708;-0.8232;
751.5000;0.0733;-0.8143;
751.8000;0.0741;-0.8143;
752.1000;0.0733;-0.8121;
752.4000;0.0749;-0.8121;
752.7000;0.0806;-0.8055;
753.0000;0.0716;-0.8254;
753.3000;0.0627;-0.8475;
753.6000;0.0749;-0.8254;
753.9000;0.0741;-0.8409;
754.2000;0.0733;-0.8497;
754.5000;0.0749;-0.8475;
754.8000;0.0733;-0.8541;
755.1000;0.0635;-0.8696;
755.4000;0.0724;-0.8431;
755.7000;0.0733;-0.8409;
756.0000;0.0765;-0.8298;
756.3000;0.0708;-0.8364;
756.6000;0.0733;-0.8342;
756.9000;0.0708;-0.8475;
757.2000;0.0611;-0.8741;
757.5000;0.0733;-0.8409;
757.8000;0.0716;-0.8453;
758.1000;0.0757;-0.8475;
758.4000;0.0684;-0.8586;
758.7000;0.0700;-0.8409;
759.0000;0.0724;-0.8276;
759.3000;0.0757;-0.8165;
759.6000;0.0733;-0.8276;
759.9000;0.0733;-0.8276;
760.2000;0.0733;-0.8254;
760.5000;0.0716;-0.8276;
760.8000;0.0708;-0.8320;
761.1000;0.0741;-0.8298;
761.4000;0.0692;-0.8475;
761.7000;0.0790;-0.8298;
762.0000;0.0757;-0.8409;
762.3000;0.0733;-0.8519;
762.6000;0.0733;-0.8519;
762.9000;0.0741;-0.8586;
763.2000;0.0749;-0.8586;
763.5000;0.0724;-0.8652;
763.8000;0.0749;-0.8431;
764.1000;0.0733;-0.8387;
764.4000;0.0724;-0.8320;
764.7000;0.0741;-0.8276;
765.0000;0.0716;-0.8298;
765.3000;0.0733;-0.8210;
765.6000;0.0733;-0.8298;
765.9000;0.0724;-0.8298;
766.2000;0.0716;-0.8320;
766.5000;0.0733;-0.8276;
766.8000;0.0733;-0.8276;
767.1000;0.0733;-0.8232;
767.4000;0.0741;-0.8254;
767.7000;0.0741;-0.8276;
768.0000;0.0781;-0.8210;
768.3000;0.0676;-0.8409;
768.6000;0.0724;-0.8320;
768.9000;0.0708;-0.8342;
769.2000;0.0757;-0.8232;
769.5000;0.0741;-0.8232;
769.8000;0.0667;-0.8431;
770.1000;0.0733;-0.8187;
770.4000;0.0716;-0.8165;
770.7000;0.0716;-0.8165;
771.0000;0.0741;-0.8210;
771.3000;0.0733;-0.8210;
771.6000;0.0708;-0.8342;
771.9000;0.0733;-0.8254;
772.2000;0.0749;-0.8143;
772.5000;0.0716;-0.8232;
772.8000;0.0724;-0.8232;
773.1000;0.0822;-0.7966;
773.4000;0.0724;-0.8187;
773.7000;0.0724;-0.8210;
774.0000;0.0733;-0.8187;
774.3000;0.0724;-0.8254;
774.6000;0.0716;-0.8364;
774.9000;0.0733;-0.8342;
775.2000;0.0749;-0.8254;
775.5000;0.0724;-0.8276;
775.8000;0.0749;-0.8298;
776.1000;0.0749;-0.8254;
776.4000;0.0741;-0.8210;
776.7000;0.0635;-0.8431;
777.0000;0.0741;-0.8143;
777.3000;0.0659;-0.8342;
777.6000;0.0733;-0.8232;
777.9000;0.0708;-0.8210;
778.2000;0.0749;-0.8143;
778.5000;0.0724;-0.8165;
778.8000;0.0830;-0.7922;
779.1000;0.0651;-0.8342;
779.4000;0.0716;-0.8187;
779.7000;0.0741;-0.8143;
780.0000;0.0733;-0.8121;
780.3000;0.0733;-0.8077;
780.6000;0.0716;-0.8099;
780.9000;0.0757;-0.8055;
781.2000;0.0716;-0.8210;
781.5000;0.0757;-0.8077;
781.8000;0.0692;-0.8276;
782.1000;0.0741;-0.8254;
782.4000;0.0741;-0.8276;
782.7000;0.0716;-0.8364;
783.0000;0.0741;-0.8364;
783.3000;0.0733;-0.8298;
783.6000;0.0708;-0.8320;
783.9000;0.0692;-0.8320;
784.2000;0.0757;-0.8187;
784.5000;0.0806;-0.8099;
784.8000;0.0733;-0.8320;
785.1000;0.0724;-0.8254;
785.4000;0.0676;-0.8342;
785.7000;0.0757;-0.8143;
786.0000;0.0741;-0.8121;
786.3000;0.0757;-0.8121;
786.6000;0.0619;-0.8409;
786.9000;0.0724;-0.8121;
787.2000;0.0724;-0.8099;
787.5000;0.0724;-0.8121;
787.8000;0.0733;-0.8121;
788.1000;0.0733;-0.8055;
788.4000;0.0700;-0.8121;
788.7000;0.0724;-0.8143;
789.0000;0.0830;-0.7878;
789.3000;0.0741;-0.8143;
789.6000;0.0724;-0.8121;
789.9000;0.0749;-0.8121;
790.2000;0.0724;-0.8033;
790.5000;0.0733;-0.7966;
790.8000;0.0733;-0.8010;
791.1000;0.0667;-0.8187;
791.4000;0.0716;-0.8143;
791.7000;0.0708;-0.8165;
792.0000;0.0733;-0.7988;
792.3000;0.0733;-0.8099;
792.6000;0.0724;-0.8187;
792.9000;0.0700;-0.8143;
793.2000;0.0733;-0.8099;
793.5000;0.0741;-0.8165;
793.8000;0.0757;-0.8165;
794.1000;0.0684;-0.8320;
794.4000;0.0724;-0.8254;
794.7000;0.0716;-0.8254;
795.0000;0.0749;-0.8187;
795.3000;0.0724;-0.8187;
795.6000;0.0708;-0.8143;
795.9000;0.0822;-0.7944;
796.2000;0.0716;-0.8165;
796.5000;0.0733;-0.8121;
796.8000;0.0716;-0.8187;
797.1000;0.0521;-0.8674;
797.4000;0.0692;-0.8298;
797.7000;0.0724;-0.8187;
798.0000;0.0773;-0.8010;
798.3000;0.0749;-0.8077;
798.6000;0.0708;-0.8210;
798.9000;0.0741;-0.8099;
799.2000;0.0716;-0.8143;
799.5000;0.0716;-0.8077;
799.8000;0.0749;-0.8010;
800.1000;0.0700;-0.8099;
800.4000;0.0757;-0.8010;
800.7000;0.0700;-0.8099;
801.0000;0.0749;-0.7988;
801.3000;0.0724;-0.8055;
801.6000;0.0741;-0.8033;
801.9000;0.0741;-0.8055;
802.2000;0.0741;-0.7988;
802.5000;0.0724;-0.8055;
802.8000;0.0724;-0.8033;
803.1000;0.0773;-0.7900;
803.4000;0.0741;-0.7988;
803.7000;0.0741;-0.8055;
804.0000;0.0724;-0.8077;
804.3000;0.0724;-0.8055;
804.6000;0.0692;-0.8055;
804.9000;0.0757;-0.7900;
805.2000;0.0741;-0.7900;
805.5000;0.0716;-0.8099;
805.8000;0.0708;-0.8165;
806.1000;0.0692;-0.8099;
806.4000;0.0741;-0.8010;
806.7000;0.0757;-0.7944;
807.0000;0.0708;-0.8033;
807.3000;0.0724;-0.7944;
807.6000;0.0700;-0.8055;
807.9000;0.0708;-0.7966;
808.2000;0.0716;-0.7922;
808.5000;0.0724;-0.7944;
808.8000;0.0724;-0.8033;
809.1000;0.0684;-0.8143;
809.4000;0.0667;-0.8276;
809.7000;0.0733;-0.8121;
810.0000;0.0749;-0.8010;
810.3000;0.0700;-0.7966;
810.6000;0.0659;-0.8055;
810.9000;0.0692;-0.7966;
811.2000;0.0733;-0.7855;
811.5000;0.0708;-0.7966;
811.8000;0.0676;-0.8077;
812.1000;0.0635;-0.8210;
812.4000;0.0847;-0.7678;
812.7000;0.0733;-0.7966;
813.0000;0.0790;-0.7878;
813.3000;0.0716;-0.8010;
813.6000;0.0741;-0.7988;
813.9000;0.0611;-0.8320;
814.2000;0.0700;-0.8143;
814.5000;0.0684;-0.8232;
814.8000;0.0724;-0.8099;
815.1000;0.0733;-0.8143;
815.4000;0.0741;-0.8143;
815.7000;0.0741;-0.8077;
816.0000;0.0724;-0.8077;
816.3000;0.0716;-0.8077;
816.6000;0.0700;-0.8077;
816.9000;0.0757;-0.7944;
817.2000;0.0700;-0.8055;
817.5000;0.0749;-0.7922;
817.8000;0.0757;-0.7922;
818.1000;0.0716;-0.8077;
818.4000;0.0733;-0.8033;
818.7000;0.0741;-0.8010;
819.0000;0.0724;-0.8033;
819.3000;0.0757;-0.8010;
819.6000;0.0741;-0.8099;
819.9000;0.0733;-0.8121;
820.2000;0.0667;-0.8254;
820.5000;0.0741;-0.8121;
820.8000;0.0733;-0.8099;
821.1000;0.0684;-0.8210;
821.4000;0.0700;-0.8121;
821.7000;0.0733;-0.8010;
822.0000;0.0667;-0.8077;
822.3000;0.0724;-0.7988;
822.6000;0.0741;-0.7944;
822.9000;0.0724;-0.8033;
823.2000;0.0716;-0.8055;
823.5000;0.0716;-0.7966;
823.8000;0.0708;-0.7966;
824.1000;0.0741;-0.7988;
824.4000;0.0676;-0.8077;
824.7000;0.0741;-0.7922;
825.0000;0.0716;-0.8010;
825.3000;0.0733;-0.8121;
825.6000;0.0733;-0.8187;
825.9000;0.0741;-0.8165;
826.2000;0.0790;-0.8099;
826.5000;0.0741;-0.8276;
826.8000;0.0749;-0.8210;
827.1000;0.0724;-0.8232;
827.4000;0.0716;-0.8143;
827.7000;0.0741;-0.8010;
828.0000;0.0716;-0.7988;
828.3000;0.0724;-0.8033;
828.6000;0.0733;-0.8099;
828.9000;0.0733;-0.8121;
829.2000;0.0716;-0.8121;
829.5000;0.0716;-0.8165;
829.8000;0.0741;-0.8121;
830.1000;0.0765;-0.8077;
830.4000;0.0716;-0.8187;
830.7000;0.0798;-0.7966;
831.0000;0.0700;-0.8232;
831.3000;0.0724;-0.8165;
831.6000;0.0733;-0.8143;
831.9000;0.0708;-0.8165;
832.2000;0.0708;-0.8187;
832.5000;0.0733;-0.8121;
832.8000;0.0733;-0.8121;
833.1000;0.0757;-0.8033;
833.4000;0.0692;-0.8165;
833.7000;0.0733;-0.8033;
834.0000;0.0757;-0.8010;
834.3000;0.0798;-0.7855;
834.6000;0.0708;-0.7988;
834.9000;0.0708;-0.8033;
835.2000;0.0871;-0.7767;
835.5000;0.0733;-0.8121;
835.8000;0.0659;-0.8254;
836.1000;0.0741;-0.8055;
836.4000;0.0741;-0.8121;
836.7000;0.0724;-0.8210;
837.0000;0.0855;-0.7811;
837.3000;0.0684;-0.8320;
837.6000;0.0724;-0.8232;
837.9000;0.0733;-0.8165;
838.2000;0.0733;-0.8143;
838.5000;0.0708;-0.8187;
838.8000;0.0749;-0.8121;
839.1000;0.0887;-0.7701;
839.4000;0.0863;-0.7767;
839.7000;0.0741;-0.8055;
840.0000;0.0684;-0.8165;
840.3000;0.0733;-0.8121;
840.6000;0.0830;-0.7855;
840.9000;0.0716;-0.8055;
841.2000;0.0716;-0.8099;
841.5000;0.0741;-0.8033;
841.8000;0.0741;-0.8055;
842.1000;0.0830;-0.7789;
842.4000;0.0716;-0.8055;
842.7000;0.0733;-0.8077;
843.0000;0.0716;-0.8121;
843.3000;0.0733;-0.8077;
843.6000;0.0700;-0.8210;
843.9000;0.0716;-0.8232;
844.2000;0.0749;-0.8187;
844.5000;0.0741;-0.8165;
844.8000;0.0724;-0.8187;
845.1000;0.0667;-0.8364;
845.4000;0.0733;-0.8276;
845.7000;0.0749;-0.8143;
846.0000;0.0716;-0.8210;
846.3000;0.0724;-0.8298;
846.6000;0.0733;-0.8165;
846.9000;0.0733;-0.8143;
847.2000;0.0700;-0.8210;
847.5000;0.0716;-0.8210;
847.8000;0.0733;-0.8187;
848.1000;0.0700;-0.8165;
848.4000;0.0733;-0.8010;
848.7000;0.0708;-0.8077;
849.0000;0.0724;-0.8077;
849.3000;0.0692;-0.8232;
849.6000;0.0733;-0.8187;
849.9000;0.0676;-0.8342;
850.2000;0.0716;-0.8210;
850.5000;0.0733;-0.8210;
850.8000;0.0724;-0.8276;
851.1000;0.0724;-0.8298;
851.4000;0.0716;-0.8210;
851.7000;0.0749;-0.8165;
852.0000;0.0773;-0.8165;
852.3000;0.0733;-0.8276;
852.6000;0.0724;-0.8254;
852.9000;0.0733;-0.8276;
853.2000;0.0708;-0.8409;
853.5000;0.0733;-0.8298;
853.8000;0.0741;-0.8254;
854.1000;0.0733;-0.8320;
854.4000;0.0643;-0.8453;
854.7000;0.0741;-0.8210;
855.0000;0.0741;-0.8165;
855.3000;0.0676;-0.8364;
855.6000;0.0741;-0.8276;
855.9000;0.0749;-0.8342;
856.2000;0.0741;-0.8342;
856.5000;0.0708;-0.8497;
856.8000;0.0733;-0.8453;
857.1000;0.0708;-0.8409;
857.4000;0.0716;-0.8320;
857.7000;0.0708;-0.8276;
858.0000;0.0716;-0.8276;
858.3000;0.0684;-0.8431;
858.6000;0.0724;-0.8409;
858.9000;0.0741;-0.8364;
859.2000;0.0724;-0.8342;
859.5000;0.0724;-0.8320;
859.8000;0.0806;-0.8033;
860.1000;0.0708;-0.8276;
860.4000;0.0733;-0.8210;
860.7000;0.0741;-0.8165;
861.0000;0.0635;-0.8453;
861.3000;0.0749;-0.8254;
861.6000;0.0741;-0.8320;
861.9000;0.0700;-0.8453;
862.2000;0.0700;-0.8453;
862.5000;0.0724;-0.8453;
862.8000;0.0781;-0.8276;
863.1000;0.0716;-0.8387;
863.4000;0.0724;-0.8453;
863.7000;0.0741;-0.8387;
864.0000;0.0724;-0.8364;
864.3000;0.0741;-0.8320;
864.6000;0.0724;-0.8298;
864.9000;0.0724;-0.8298;
865.2000;0.0708;-0.8342;
865.5000;0.0757;-0.8210;
865.8000;0.0733;-0.8298;
866.1000;0.0724;-0.8276;
866.4000;0.0724;-0.8298;
866.7000;0.0724;-0.8342;
867.0000;0.0757;-0.8342;
867.3000;0.0684;-0.8608;
867.6000;0.0724;-0.8564;
867.9000;0.0716;-0.8586;
868.2000;0.0708;-0.8586;
868.5000;0.0724;-0.8519;
868.8000;0.0724;-0.8497;
869.1000;0.0692;-0.8564;
869.4000;0.0757;-0.8431;
869.7000;0.0724;-0.8586;
870.0000;0.0716;-0.8674;
870.3000;0.0757;-0.8564;
870.6000;0.0749;-0.8674;
870.9000;0.0749;-0.8608;
871.2000;0.0667;-0.8718;
871.5000;0.0708;-0.8608;
871.8000;0.0773;-0.8387;
872.1000;0.0733;-0.8475;
872.4000;0.0724;-0.8475;
872.7000;0.0708;-0.8497;
873.0000;0.0733;-0.8298;
873.3000;0.0765;-0.8210;
873.6000;0.0716;-0.8342;
873.9000;0.0741;-0.8254;
874.2000;0.0765;-0.8276;
874.5000;0.0749;-0.8342;
874.8000;0.0733;-0.8387;
875.1000;0.0749;-0.8320;
875.4000;0.0716;-0.8453;
875.7000;0.0627;-0.8652;
876.0000;0.0724;-0.8431;
876.3000;0.0822;-0.8232;
876.6000;0.0724;-0.8497;
876.9000;0.0733;-0.8475;
877.2000;0.0749;-0.8453;
877.5000;0.0863;-0.8210;
877.8000;0.0733;-0.8608;
878.1000;0.0716;-0.8630;
878.4000;0.0667;-0.8674;
878.7000;0.0733;-0.8519;
879.0000;0.0716;-0.8541;
879.3000;0.0749;-0.8453;
879.6000;0.0830;-0.8276;
879.9000;0.0741;-0.8497;
880.2000;0.0757;-0.8364;
880.5000;0.0822;-0.8210;
880.8000;0.0741;-0.8364;
881.1000;0.0733;-0.8364;
881.4000;0.0700;-0.8453;
881.7000;0.0749;-0.8298;
882.0000;0.0749;-0.8232;
882.3000;0.0716;-0.8342;
882.6000;0.0716;-0.8298;
882.9000;0.0716;-0.8342;
883.2000;0.0741;-0.8254;
883.5000;0.0733;-0.8254;
883.8000;0.0684;-0.8320;
884.1000;0.0716;-0.8254;
884.4000;0.0798;-0.8055;
884.7000;0.0798;-0.8099;
885.0000;0.0733;-0.8342;
885.3000;0.0692;-0.8475;
885.6000;0.0724;-0.8431;
885.9000;0.0724;-0.8453;
886.2000;0.0741;-0.8387;
886.5000;0.0724;-0.8431;
886.8000;0.0749;-0.8298;
887.1000;0.0741;-0.8320;
887.4000;0.0733;-0.8320;
887.7000;0.0716;-0.8298;
888.0000;0.0724;-0.8364;
888.3000;0.0733;-0.8431;
888.6000;0.0684;-0.8564;
888.9000;0.0692;-0.8586;
889.2000;0.0627;-0.8741;
889.5000;0.0733;-0.8497;
889.8000;0.0708;-0.8519;
890.1000;0.0570;-0.8873;
890.4000;0.0716;-0.8387;
890.7000;0.0741;-0.8342;
891.0000;0.0741;-0.8320;
891.3000;0.0716;-0.8364;
891.6000;0.0708;-0.8431;
891.9000;0.0806;-0.8143;
892.2000;0.0838;-0.8099;
892.5000;0.0733;-0.8320;
892.8000;0.0708;-0.8364;
893.1000;0.0724;-0.8320;
893.4000;0.0708;-0.8364;
893.7000;0.0724;-0.8342;
894.0000;0.0757;-0.8254;
894.3000;0.0724;-0.8165;
894.6000;0.0716;-0.8143;
894.9000;0.0757;-0.8099;
895.2000;0.0863;-0.7811;
895.5000;0.0733;-0.8099;
895.8000;0.0741;-0.8121;
896.1000;0.0749;-0.8010;
896.4000;0.0724;-0.8121;
896.7000;0.0781;-0.8010;
897.0000;0.0643;-0.8497;
897.3000;0.0790;-0.8143;
897.6000;0.0733;-0.8342;
897.9000;0.0733;-0.8320;
898.2000;0.0708;-0.8364;
898.5000;0.0724;-0.8387;
898.8000;0.0708;-0.8453;
899.1000;0.0716;-0.8431;
899.4000;0.0741;-0.8364;
899.7000;0.0716;-0.8387;
900.0000;0.0757;-0.8298;
900.3000;0.0822;-0.8055;
900.6000;0.0651;-0.8409;
900.9000;0.0651;-0.8541;
901.2000;0.0733;-0.8320;
901.5000;0.0806;-0.8165;
901.8000;0.0635;-0.8674;
902.1000;0.0708;-0.8431;
902.4000;0.0716;-0.8431;
902.7000;0.0724;-0.8342;
903.0000;0.0700;-0.8387;
903.3000;0.0643;-0.8387;
903.6000;0.0635;-0.8431;
903.9000;0.0733;-0.8165;
904.2000;0.0724;-0.8232;
904.5000;0.0659;-0.8497;
904.8000;0.0716;-0.8298;
905.1000;0.0716;-0.8320;
905.4000;0.0708;-0.8364;
905.7000;0.0716;-0.8342;
906.0000;0.0879;-0.7878;
906.3000;0.0733;-0.8232;
906.6000;0.0724;-0.8276;
906.9000;0.0724;-0.8254;
907.2000;0.0716;-0.8298;
907.5000;0.0708;-0.8342;
907.8000;0.0733;-0.8342;
908.1000;0.0724;-0.8342;
908.4000;0.0700;-0.8320;
908.7000;0.0741;-0.8187;
909.0000;0.0708;-0.8143;
909.3000;0.0741;-0.8143;
909.6000;0.0716;-0.8165;
909.9000;0.0733;-0.8165;
910.2000;0.0749;-0.8165;
910.5000;0.0667;-0.8342;
910.8000;0.0676;-0.8298;
911.1000;0.0692;-0.8276;
911.4000;0.0724;-0.8121;
911.7000;0.0724;-0.8187;
912.0000;0.0749;-0.8187;
912.3000;0.0700;-0.8254;
912.6000;0.0708;-0.8210;
912.9000;0.0757;-0.7988;
913.2000;0.0700;-0.8165;
913.5000;0.0724;-0.8187;
913.8000;0.0855;-0.7789;
914.1000;0.0733;-0.8010;
914.4000;0.0733;-0.8010;
914.7000;0.0724;-0.8055;
915.0000;0.0741;-0.8033;
915.3000;0.0733;-0.8077;
915.6000;0.0724;-0.8099;
915.9000;0.0667;-0.8232;
916.2000;0.0733;-0.8187;
916.5000;0.0757;-0.8143;
916.8000;0.0741;-0.8210;
917.1000;0.0814;-0.8099;
917.4000;0.0684;-0.8497;
917.7000;0.0724;-0.8453;
918.0000;0.0733;-0.8431;
918.3000;0.0708;-0.8541;
918.6000;0.0724;-0.8453;
918.9000;0.0798;-0.8276;
919.2000;0.0716;-0.8387;
919.5000;0.0700;-0.8342;
919.8000;0.0733;-0.8320;
920.1000;0.0733;-0.8232;
920.4000;0.0733;-0.8143;
920.7000;0.0716;-0.8099;
921.0000;0.0700;-0.8121;
921.3000;0.0716;-0.8121;
921.6000;0.0733;-0.8099;
921.9000;0.0781;-0.8055;
922.2000;0.0741;-0.8187;
922.5000;0.0733;-0.8254;
922.8000;0.0643;-0.8409;
923.1000;0.0700;-0.8298;
923.4000;0.0708;-0.8342;
923.7000;0.0724;-0.8364;
924.0000;0.0651;-0.8475;
924.3000;0.0749;-0.8254;
924.6000;0.0716;-0.8320;
924.9000;0.0749;-0.8187;
925.2000;0.0757;-0.8210;
925.5000;0.0700;-0.8342;
925.8000;0.0708;-0.8453;
926.1000;0.0733;-0.8342;
926.4000;0.0733;-0.8254;
926.7000;0.0733;-0.8187;
927.0000;0.0716;-0.8254;
927.3000;0.0765;-0.8121;
927.6000;0.0724;-0.8254;
927.9000;0.0733;-0.8254;
928.2000;0.0724;-0.8254;
928.5000;0.0790;-0.8055;
928.8000;0.0741;-0.8143;
929.1000;0.0700;-0.8187;
929.4000;0.0741;-0.8143;
929.7000;0.0716;-0.8320;
930.0000;0.0684;-0.8475;
930.3000;0.0659;-0.8586;
930.6000;0.0749;-0.8254;
930.9000;0.0757;-0.8320;
931.2000;0.0733;-0.8276;
931.5000;0.0676;-0.8409;
931.8000;0.0733;-0.8254;
932.1000;0.0700;-0.8210;
932.4000;0.0781;-0.8033;
932.7000;0.0741;-0.8121;
933.0000;0.0716;-0.8276;
933.3000;0.0733;-0.8187;
933.6000;0.0708;-0.8320;
933.9000;0.0643;-0.8453;
934.2000;0.0716;-0.8342;
934.5000;0.0741;-0.8342;
934.8000;0.0741;-0.8276;
935.1000;0.0790;-0.8099;
935.4000;0.0749;-0.8143;
935.7000;0.0733;-0.8210;
936.0000;0.0749;-0.8077;
936.3000;0.0708;-0.8165;
936.6000;0.0724;-0.8099;
936.9000;0.0733;-0.8099;
937.2000;0.0716;-0.8165;
937.5000;0.0708;-0.8210;
937.8000;0.0733;-0.8232;
938.1000;0.0749;-0.8298;
938.4000;0.0724;-0.8320;
938.7000;0.0700;-0.8364;
939.0000;0.0741;-0.8232;
939.3000;0.0724;-0.8254;
939.6000;0.0708;-0.8320;
939.9000;0.0708;-0.8276;
940.2000;0.0781;-0.8165;
940.5000;0.0724;-0.8232;
940.8000;0.0733;-0.8210;
941.1000;0.0708;-0.8298;
941.4000;0.0749;-0.8121;
941.7000;0.0724;-0.8210;
942.0000;0.0708;-0.8364;
942.3000;0.0733;-0.8276;
942.6000;0.0716;-0.8409;
942.9000;0.0733;-0.8409;
943.2000;0.0733;-0.8409;
943.5000;0.0724;-0.8409;
943.8000;0.0708;-0.8387;
944.1000;0.0692;-0.8320;
944.4000;0.0733;-0.8143;
944.7000;0.0781;-0.7966;
945.0000;0.0724;-0.8232;
945.3000;0.0724;-0.8232;
945.6000;0.0733;-0.8121;
945.9000;0.0765;-0.8010;
946.2000;0.0749;-0.8010;
946.5000;0.0741;-0.7966;
946.8000;0.0627;-0.8276;
947.1000;0.0733;-0.8077;
947.4000;0.0708;-0.8143;
947.7000;0.0733;-0.8099;
948.0000;0.0741;-0.8077;
948.3000;0.0708;-0.8165;
948.6000;0.0676;-0.8254;
948.9000;0.0741;-0.8143;
949.2000;0.0700;-0.8232;
949.5000;0.0741;-0.8121;
949.8000;0.0635;-0.8298;
950.1000;0.0781;-0.7922;
950.4000;0.0724;-0.8055;
950.7000;0.0724;-0.8121;
951.0000;0.0708;-0.8121;
951.3000;0.0716;-0.8010;
951.6000;0.0724;-0.8033;
951.9000;0.0733;-0.8121;
952.2000;0.0733;-0.8210;
952.5000;0.0790;-0.8121;
952.8000;0.0700;-0.8364;
953.1000;0.0733;-0.8342;
953.4000;0.0643;-0.8564;
953.7000;0.0716;-0.8276;
954.0000;0.0765;-0.8143;
954.3000;0.0700;-0.8276;
954.6000;0.0733;-0.8254;
954.9000;0.0700;-0.8276;
955.2000;0.0659;-0.8387;
955.5000;0.0830;-0.7988;
955.8000;0.0659;-0.8298;
956.1000;0.0724;-0.8077;
956.4000;0.0733;-0.8077;
956.7000;0.0724;-0.8121;
957.0000;0.0716;-0.8099;
957.3000;0.0724;-0.8165;
957.6000;0.0700;-0.8342;
957.9000;0.0724;-0.8387;
958.2000;0.0724;-0.8453;
958.5000;0.0684;-0.8519;
958.8000;0.0765;-0.8364;
959.1000;0.0716;-0.8409;
959.4000;0.0757;-0.8276;
959.7000;0.0716;-0.8342;
960.0000;0.0716;-0.8431;
960.3000;0.0716;-0.8342;
960.6000;0.0741;-0.8298;
960.9000;0.0724;-0.8298;
961.2000;0.0716;-0.8210;
961.5000;0.0724;-0.8232;
961.8000;0.0716;-0.8210;
962.1000;0.0838;-0.7966;
962.4000;0.0708;-0.8254;
962.7000;0.0708;-0.8298;
963.0000;0.0724;-0.8276;
963.3000;0.0708;-0.8254;
963.6000;0.0741;-0.8187;
963.9000;0.0700;-0.8387;
964.2000;0.0741;-0.8342;
964.5000;0.0708;-0.8387;
964.8000;0.0716;-0.8409;
965.1000;0.0692;-0.8497;
965.4000;0.0724;-0.8387;
965.7000;0.0749;-0.8342;
966.0000;0.0724;-0.8342;
966.3000;0.0733;-0.8364;
966.6000;0.0733;-0.8320;
966.9000;0.0724;-0.8342;
967.2000;0.0741;-0.8254;
967.5000;0.0724;-0.8298;
967.8000;0.0700;-0.8298;
968.1000;0.0724;-0.8165;
968.4000;0.0667;-0.8387;
968.7000;0.0741;-0.8187;
969.0000;0.0716;-0.8210;
969.3000;0.0708;-0.8187;
969.6000;0.0716;-0.8143;
969.9000;0.0724;-0.8099;
970.2000;0.0692;-0.8276;
970.5000;0.0708;-0.8210;
970.8000;0.0733;-0.8143;
971.1000;0.0716;-0.8143;
971.4000;0.0716;-0.8232;
971.7000;0.0708;-0.8320;
972.0000;0.0700;-0.8298;
972.3000;0.0700;-0.8298;
972.6000;0.0692;-0.8298;
972.9000;0.0684;-0.8254;
973.2000;0.0700;-0.8276;
973.5000;0.0741;-0.8232;
973.8000;0.0724;-0.8210;
974.1000;0.0749;-0.8254;
974.4000;0.0594;-0.8608;
974.7000;0.0716;-0.8320;
975.0000;0.0716;-0.8254;
975.3000;0.0765;-0.8187;
975.6000;0.0741;-0.8276;
975.9000;0.0708;-0.8364;
976.2000;0.0733;-0.8254;
976.5000;0.0716;-0.8232;
976.8000;0.0733;-0.8232;
977.1000;0.0733;-0.8187;
977.4000;0.0700;-0.8254;
977.7000;0.0716;-0.8210;
978.0000;0.0667;-0.8364;
978.3000;0.0643;-0.8409;
978.6000;0.0741;-0.8143;
978.9000;0.0724;-0.8121;
979.2000;0.0757;-0.8033;
979.5000;0.0749;-0.7966;
979.8000;0.0757;-0.7900;
980.1000;0.0716;-0.8121;
980.4000;0.0733;-0.8143;
980.7000;0.0724;-0.8187;
981.0000;0.0741;-0.8143;
981.3000;0.0741;-0.8187;
981.6000;0.0724;-0.8232;
981.9000;0.0733;-0.8232;
982.2000;0.0724;-0.8320;
982.5000;0.0733;-0.8298;
982.8000;0.0724;-0.8232;
983.1000;0.0716;-0.8232;
983.4000;0.0716;-0.8143;
983.7000;0.0716;-0.8121;
984.0000;0.0716;-0.8099;
984.3000;0.0659;-0.8187;
984.6000;0.0733;-0.8077;
984.9000;0.0733;-0.8055;
985.2000;0.0659;-0.8232;
985.5000;0.0716;-0.8099;
985.8000;0.0716;-0.8077;
986.1000;0.0724;-0.8033;
986.4000;0.0724;-0.8055;
986.7000;0.0724;-0.8055;
987.0000;0.0724;-0.8165;
987.3000;0.0733;-0.8099;
987.6000;0.0724;-0.8121;
987.9000;0.0733;-0.8143;
988.2000;0.0733;-0.8187;
988.5000;0.0708;-0.8254;
988.8000;0.0716;-0.8232;
989.1000;0.0708;-0.8254;
989.4000;0.0708;-0.8143;
989.7000;0.0716;-0.7988;
990.0000;0.0708;-0.7966;
990.3000;0.0749;-0.7922;
990.6000;0.0724;-0.8033;
990.9000;0.0724;-0.8099;
991.2000;0.0741;-0.8099;
991.5000;0.0700;-0.8254;
991.8000;0.0749;-0.8187;
992.1000;0.0733;-0.8187;
992.4000;0.0684;-0.8254;
992.7000;0.0733;-0.8099;
993.0000;0.0716;-0.8099;
993.3000;0.0700;-0.8143;
993.6000;0.0733;-0.8099;
993.9000;0.0708;-0.8187;
994.2000;0.0749;-0.8099;
994.5000;0.0724;-0.8121;
994.8000;0.0733;-0.8121;
995.1000;0.0749;-0.8165;
995.4000;0.0733;-0.8187;
995.7000;0.0724;-0.8210;
996.0000;0.0733;-0.8187;
996.3000;0.0765;-0.8055;
996.6000;0.0724;-0.8143;
996.9000;0.0716;-0.8121;
997.2000;0.0724;-0.8055;
997.5000;0.0716;-0.8033;
997.8000;0.0724;-0.7988;
998.1000;0.0708;-0.7988;
998.4000;0.0724;-0.7966;
998.7000;0.0733;-0.8055;
999.0000;0.0733;-0.8055;
999.3000;0.0798;-0.8033;
999.6000;0.0724;-0.8165;
999.9000;0.0716;-0.8165;
1000.2000;0.0667;-0.8342;
1000.5000;0.0733;-0.8210;
1000.8000;0.0741;-0.8254;
1001.1000;0.0716;-0.8298;
1001.4000;0.0643;-0.8519;
1001.7000;0.0724;-0.8320;
1002.0000;0.0733;-0.8276;
1002.3000;0.0749;-0.8298;
1002.6000;0.0733;-0.8342;
1002.9000;0.0822;-0.8121;
1003.2000;0.0716;-0.8320;
1003.5000;0.0708;-0.8387;
1003.8000;0.0724;-0.8342;
1004.1000;0.0765;-0.8320;
1004.4000;0.0724;-0.8431;
1004.7000;0.0733;-0.8409;
1005.0000;0.0741;-0.8276;
1005.3000;0.0765;-0.8099;
1005.6000;0.0708;-0.8254;
1005.9000;0.0741;-0.8187;
1006.2000;0.0716;-0.8165;
1006.5000;0.0733;-0.8210;
1006.8000;0.0733;-0.8232;
1007.1000;0.0676;-0.8342;
1007.4000;0.0741;-0.8232;
1007.7000;0.0724;-0.8298;
1008.0000;0.0724;-0.8342;
1008.3000;0.0741;-0.8276;
1008.6000;0.0716;-0.8342;
1008.9000;0.0781;-0.8187;
1009.2000;0.0806;-0.8077;
1009.5000;0.0716;-0.8276;
1009.8000;0.0724;-0.8232;
1010.1000;0.0676;-0.8298;
1010.4000;0.0741;-0.8232;
1010.7000;0.0733;-0.8276;
1011.0000;0.0724;-0.8276;
1011.3000;0.0741;-0.8276;
1011.6000;0.0733;-0.8187;
1011.9000;0.0790;-0.8033;
1012.2000;0.0684;-0.8210;
1012.5000;0.0733;-0.8077;
1012.8000;0.0733;-0.8077;
1013.1000;0.0741;-0.8121;
1013.4000;0.0716;-0.8187;
1013.7000;0.0724;-0.8232;
1014.0000;0.0790;-0.7966;
1014.3000;0.0733;-0.8055;
1014.6000;0.0733;-0.8077;
1014.9000;0.0700;-0.8055;
1015.2000;0.0724;-0.8055;
1015.5000;0.0692;-0.8210;
1015.8000;0.0716;-0.8099;
1016.1000;0.0724;-0.8055;
1016.4000;0.0643;-0.8320;
1016.7000;0.0733;-0.8121;
1017.0000;0.0611;-0.8564;
1017.3000;0.0749;-0.8210;
1017.6000;0.0667;-0.8320;
1017.9000;0.0692;-0.8143;
1018.2000;0.0716;-0.8055;
1018.5000;0.0749;-0.8055;
1018.8000;0.0708;-0.8121;
1019.1000;0.0733;-0.8077;
1019.4000;0.0757;-0.8010;
1019.7000;0.0708;-0.8210;
1020.0000;0.0741;-0.8121;
1020.3000;0.0708;-0.8165;
1020.6000;0.0733;-0.8121;
1020.9000;0.0716;-0.8276;
1021.2000;0.0724;-0.8320;
1021.5000;0.0790;-0.8187;
1021.8000;0.0741;-0.8320;
1022.1000;0.0667;-0.8431;
1022.4000;0.0692;-0.8364;
1022.7000;0.0692;-0.8320;
1023.0000;0.0733;-0.8254;
1023.3000;0.0667;-0.8298;
1023.6000;0.0733;-0.8232;
1023.9000;0.0716;-0.8320;
1024.2000;0.0749;-0.8298;
1024.5000;0.0781;-0.8210;
1024.8000;0.0814;-0.8121;
1025.1000;0.0692;-0.8364;
1025.4000;0.0855;-0.7966;
1025.7000;0.0765;-0.8187;
1026.0000;0.0757;-0.8210;
1026.3000;0.0733;-0.8320;
1026.6000;0.0708;-0.8364;
1026.9000;0.0684;-0.8320;
1027.2000;0.0643;-0.8409;
1027.5000;0.0700;-0.8254;
1027.8000;0.0749;-0.8165;
1028.1000;0.0749;-0.8187;
1028.4000;0.0741;-0.8187;
1028.7000;0.0708;-0.8320;
1029.0000;0.0708;-0.8187;
1029.3000;0.0733;-0.8187;
1029.6000;0.0716;-0.8254;
1029.9000;0.0724;-0.8210;
1030.2000;0.0798;-0.8099;
1030.5000;0.0733;-0.8232;
1030.8000;0.0741;-0.8165;
1031.1000;0.0733;-0.8165;
1031.4000;0.0749;-0.8165;
1031.7000;0.0708;-0.8254;
1032.0000;0.0724;-0.8165;
1032.3000;0.0659;-0.8409;
1032.6000;0.0724;-0.8342;
1032.9000;0.0741;-0.8342;
1033.2000;0.0847;-0.8143;
1033.5000;0.0749;-0.8364;
1033.8000;0.0700;-0.8475;
1034.1000;0.0700;-0.8497;
1034.4000;0.0757;-0.8364;
1034.7000;0.0749;-0.8409;
1035.0000;0.0708;-0.8475;
1035.3000;0.0806;-0.8276;
1035.6000;0.0733;-0.8475;
1035.9000;0.0708;-0.8497;
1036.2000;0.0733;-0.8519;
1036.5000;0.0716;-0.8586;
1036.8000;0.0724;-0.8608;
1037.1000;0.0733;-0.8519;
1037.4000;0.0724;-0.8475;
1037.7000;0.0741;-0.8387;
1038.0000;0.0741;-0.8453;
1038.3000;0.0708;-0.8475;
1038.6000;0.0716;-0.8475;
1038.9000;0.0700;-0.8453;
1039.2000;0.0733;-0.8497;
1039.5000;0.0724;-0.8608;
1039.8000;0.0651;-0.8741;
1040.1000;0.0708;-0.8674;
1040.4000;0.0863;-0.8342;
1040.7000;0.0733;-0.8630;
1041.0000;0.0716;-0.8696;
1041.3000;0.0708;-0.8741;
1041.6000;0.0708;-0.8718;
1041.9000;0.0733;-0.8630;
1042.2000;0.0733;-0.8541;
1042.5000;0.0708;-0.8564;
1042.8000;0.0724;-0.8586;
1043.1000;0.0708;-0.8630;
1043.4000;0.0667;-0.8630;
1043.7000;0.0741;-0.8497;
1044.0000;0.0708;-0.8586;
1044.3000;0.0757;-0.8564;
1044.6000;0.0716;-0.8652;
1044.9000;0.0749;-0.8630;
1045.2000;0.0765;-0.8608;
1045.5000;0.0700;-0.8696;
1045.8000;0.0733;-0.8652;
1046.1000;0.0724;-0.8630;
1046.4000;0.0806;-0.8342;
1046.7000;0.0757;-0.8453;
1047.0000;0.0749;-0.8409;
1047.3000;0.0749;-0.8387;
1047.6000;0.0733;-0.8320;
1047.9000;0.0700;-0.8387;
1048.2000;0.0765;-0.8254;
1048.5000;0.0724;-0.8342;
1048.8000;0.0700;-0.8387;
1049.1000;0.0708;-0.8342;
1049.4000;0.0651;-0.8431;
1049.7000;0.0741;-0.8210;
1050.0000;0.0741;-0.8210;
1050.3000;0.0741;-0.8143;
1050.6000;0.0724;-0.8210;
1050.9000;0.0716;-0.8232;
1051.2000;0.0757;-0.8187;
1051.5000;0.0708;-0.8320;
1051.8000;0.0733;-0.8387;
1052.1000;0.0708;-0.8431;
1052.4000;0.0749;-0.8254;
1052.7000;0.0765;-0.8210;
1053.0000;0.0708;-0.8387;
1053.3000;0.0724;-0.8342;
1053.6000;0.0700;-0.8364;
1053.9000;0.0700;-0.8364;
1054.2000;0.0667;-0.8409;
1054.5000;0.0724;-0.8298;
1054.8000;0.0733;-0.8298;
1055.1000;0.0708;-0.8364;
1055.4000;0.0838;-0.8055;
1055.7000;0.0708;-0.8364;
1056.0000;0.0724;-0.8342;
1056.3000;0.0733;-0.8320;
1056.6000;0.0708;-0.8453;
1056.9000;0.0692;-0.8564;
1057.2000;0.0733;-0.8475;
1057.5000;0.0708;-0.8431;
1057.8000;0.0716;-0.8431;
1058.1000;0.0676;-0.8475;
1058.4000;0.0724;-0.8409;
1058.7000;0.0716;-0.8519;
1059.0000;0.0724;-0.8497;
1059.3000;0.0724;-0.8453;
1059.6000;0.0724;-0.8364;
1059.9000;0.0724;-0.8364;
1060.2000;0.0733;-0.8364;
1060.5000;0.0781;-0.8298;
1060.8000;0.0692;-0.8497;
1061.1000;0.0822;-0.8254;
1061.4000;0.0749;-0.8541;
1061.7000;0.0733;-0.8564;
1062.0000;0.0724;-0.8564;
1062.3000;0.0757;-0.8519;
1062.6000;0.0692;-0.8674;
1062.9000;0.0708;-0.8608;
1063.2000;0.0708;-0.8674;
1063.5000;0.0692;-0.8674;
1063.8000;0.0692;-0.8586;
1064.1000;0.0716;-0.8519;
1064.4000;0.0676;-0.8608;
1064.7000;0.0724;-0.8475;
1065.0000;0.0716;-0.8497;
1065.3000;0.0741;-0.8497;
1065.6000;0.0733;-0.8564;
1065.9000;0.0781;-0.8387;
1066.2000;0.0749;-0.8431;
1066.5000;0.0749;-0.8342;
1066.8000;0.0733;-0.8431;
1067.1000;0.0733;-0.8497;
1067.4000;0.0741;-0.8453;
1067.7000;0.0716;-0.8497;
1068.0000;0.0724;-0.8497;
1068.3000;0.0716;-0.8409;
1068.6000;0.0716;-0.8342;
1068.9000;0.0733;-0.8342;
1069.2000;0.0741;-0.8254;
1069.5000;0.0667;-0.8475;
1069.8000;0.0733;-0.8276;
1070.1000;0.0814;-0.8121;
1070.4000;0.0741;-0.8342;
1070.7000;0.0724;-0.8453;
1071.0000;0.0676;-0.8652;
1071.3000;0.0716;-0.8608;
1071.6000;0.0708;-0.8586;
1071.9000;0.0724;-0.8475;
1072.2000;0.0733;-0.8364;
1072.5000;0.0716;-0.8409;
1072.8000;0.0724;-0.8431;
1073.1000;0.0716;-0.8431;
1073.4000;0.0716;-0.8409;
1073.7000;0.0708;-0.8453;
1074.0000;0.0708;-0.8409;
1074.3000;0.0741;-0.8254;
1074.6000;0.0724;-0.8320;
1074.9000;0.0651;-0.8541;
1075.2000;0.0708;-0.8342;
1075.5000;0.0708;-0.8364;
1075.8000;0.0741;-0.8276;
1076.1000;0.0733;-0.8254;
1076.4000;0.0749;-0.8320;
1076.7000;0.0724;-0.8320;
1077.0000;0.0716;-0.8342;
1077.3000;0.0692;-0.8364;
1077.6000;0.0757;-0.8276;
1077.9000;0.0716;-0.8387;
1078.2000;0.0724;-0.8364;
1078.5000;0.0724;-0.8298;
1078.8000;0.0724;-0.8387;
1079.1000;0.0676;-0.8475;
1079.4000;0.0741;-0.8254;
1079.7000;0.0724;-0.8298;
1080.0000;0.0757;-0.8276;
1080.3000;0.0684;-0.8541;
1080.6000;0.0749;-0.8276;
1080.9000;0.0757;-0.8232;
1081.2000;0.0741;-0.8298;
1081.5000;0.0716;-0.8320;
1081.8000;0.0708;-0.8409;
1082.1000;0.0733;-0.8342;
1082.4000;0.0733;-0.8409;
1082.7000;0.0708;-0.8431;
1083.0000;0.0733;-0.8387;
1083.3000;0.0651;-0.8630;
1083.6000;0.0716;-0.8519;
1083.9000;0.0733;-0.8541;
1084.2000;0.0692;-0.8652;
1084.5000;0.0716;-0.8564;
1084.8000;0.0692;-0.8608;
1085.1000;0.0716;-0.8586;
1085.4000;0.0741;-0.8475;
1085.7000;0.0741;-0.8364;
1086.0000;0.0724;-0.8453;
1086.3000;0.0684;-0.8564;
1086.6000;0.0749;-0.8409;
1086.9000;0.0724;-0.8497;
1087.2000;0.0724;-0.8519;
1087.5000;0.0635;-0.8696;
1087.8000;0.0692;-0.8497;
1088.1000;0.0708;-0.8409;
1088.4000;0.0684;-0.8497;
1088.7000;0.0700;-0.8497;
1089.0000;0.0667;-0.8630;
1089.3000;0.0692;-0.8541;
1089.6000;0.0741;-0.8409;
1089.9000;0.0733;-0.8409;
1090.2000;0.0741;-0.8453;
1090.5000;0.0733;-0.8431;
1090.8000;0.0724;-0.8431;
1091.1000;0.0708;-0.8453;
1091.4000;0.0806;-0.8298;
1091.7000;0.0798;-0.8210;
1092.0000;0.0733;-0.8276;
1092.3000;0.0700;-0.8387;
1092.6000;0.0708;-0.8431;
1092.9000;0.0822;-0.8187;
1093.2000;0.0724;-0.8387;
1093.5000;0.0716;-0.8475;
1093.8000;0.0692;-0.8409;
1094.1000;0.0692;-0.8453;
1094.4000;0.0733;-0.8409;
1094.7000;0.0741;-0.8431;
1095.0000;0.0781;-0.8320;
1095.3000;0.0716;-0.8431;
1095.6000;0.0741;-0.8497;
1095.9000;0.0741;-0.8519;
1096.2000;0.0700;-0.8630;
1096.5000;0.0724;-0.8608;
1096.8000;0.0749;-0.8564;
1097.1000;0.0724;-0.8586;
1097.4000;0.0716;-0.8630;
1097.7000;0.0700;-0.8696;
1098.0000;0.0724;-0.8630;
1098.3000;0.0716;-0.8630;
1098.6000;0.0700;-0.8630;
1098.9000;0.0724;-0.8586;
1099.2000;0.0757;-0.8519;
1099.5000;0.0733;-0.8519;
1099.8000;0.0708;-0.8497;
1100.1000;0.0716;-0.8387;
1100.4000;0.0733;-0.8364;
1100.7000;0.0733;-0.8431;
1101.0000;0.0724;-0.8431;
1101.3000;0.0733;-0.8387;
1101.6000;0.0733;-0.8431;
1101.9000;0.0708;-0.8541;
1102.2000;0.0716;-0.8630;
1102.5000;0.0716;-0.8608;
1102.8000;0.0724;-0.8564;
1103.1000;0.0627;-0.8763;
1103.4000;0.0684;-0.8586;
1103.7000;0.0716;-0.8519;
1104.0000;0.0749;-0.8475;
1104.3000;0.0733;-0.8497;
1104.6000;0.0724;-0.8431;
1104.9000;0.0765;-0.8364;
1105.2000;0.0749;-0.8475;
1105.5000;0.0724;-0.8519;
1105.8000;0.0773;-0.8364;
1106.1000;0.0700;-0.8431;
1106.4000;0.0733;-0.8342;
1106.7000;0.0667;-0.8409;
1107.0000;0.0741;-0.8165;
1107.3000;0.0724;-0.8320;
1107.6000;0.0806;-0.8210;
1107.9000;0.0733;-0.8409;
1108.2000;0.0708;-0.8320;
1108.5000;0.0724;-0.8320;
1108.8000;0.0716;-0.8320;
1109.1000;0.0741;-0.8298;
1109.4000;0.0741;-0.8276;
1109.7000;0.0708;-0.8276;
1110.0000;0.0708;-0.8320;
1110.3000;0.0692;-0.8387;
1110.6000;0.0733;-0.8232;
1110.9000;0.0749;-0.8210;
1111.2000;0.0692;-0.8276;
1111.5000;0.0724;-0.8232;
1111.8000;0.0724;-0.8298;
1112.1000;0.0716;-0.8298;
1112.4000;0.0708;-0.8364;
1112.7000;0.0700;-0.8453;
1113.0000;0.0724;-0.8387;
1113.3000;0.0708;-0.8431;
1113.6000;0.0741;-0.8409;
1113.9000;0.0749;-0.8387;
1114.2000;0.0692;-0.8409;
1114.5000;0.0708;-0.8364;
1114.8000;0.0724;-0.8431;
1115.1000;0.0724;-0.8387;
1115.4000;0.0757;-0.8232;
1115.7000;0.0741;-0.8298;
1116.0000;0.0741;-0.8342;
1116.3000;0.0733;-0.8453;
1116.6000;0.0733;-0.8364;
1116.9000;0.0724;-0.8387;
1117.2000;0.0708;-0.8387;
1117.5000;0.0716;-0.8431;
1117.8000;0.0716;-0.8387;
1118.1000;0.0790;-0.8187;
1118.4000;0.0724;-0.8276;
1118.7000;0.0741;-0.8254;
1119.0000;0.0724;-0.8320;
1119.3000;0.0749;-0.8320;
1119.6000;0.0724;-0.8364;
1119.9000;0.0724;-0.8342;
1120.2000;0.0708;-0.8453;
1120.5000;0.0741;-0.8409;
1120.8000;0.0757;-0.8320;
1121.1000;0.0741;-0.8320;
1121.4000;0.0716;-0.8342;
1121.7000;0.0716;-0.8409;
1122.0000;0.0741;-0.8364;
1122.3000;0.0716;-0.8387;
1122.6000;0.0733;-0.8276;
1122.9000;0.0724;-0.8298;
1123.2000;0.0708;-0.8276;
1123.5000;0.0733;-0.8276;
1123.8000;0.0733;-0.8232;
1124.1000;0.0708;-0.8298;
1124.4000;0.0749;-0.8232;
1124.7000;0.0741;-0.8187;
1125.0000;0.0733;-0.8143;
1125.3000;0.0716;-0.8210;
1125.6000;0.0733;-0.8210;
1125.9000;0.0724;-0.8276;
1126.2000;0.0676;-0.8541;
1126.5000;0.0741;-0.8431;
1126.8000;0.0724;-0.8409;
1127.1000;0.0773;-0.8165;
1127.4000;0.0741;-0.8121;
1127.7000;0.0708;-0.8165;
1128.0000;0.0733;-0.8165;
1128.3000;0.0733;-0.8187;
1128.6000;0.0733;-0.8143;
1128.9000;0.0733;-0.8165;
1129.2000;0.0724;-0.8099;
1129.5000;0.0733;-0.8143;
1129.8000;0.0716;-0.8276;
1130.1000;0.0741;-0.8276;
1130.4000;0.0700;-0.8431;
1130.7000;0.0724;-0.8342;
1131.0000;0.0749;-0.8364;
1131.3000;0.0749;-0.8342;
1131.6000;0.0708;-0.8519;
1131.9000;0.0676;-0.8652;
1132.2000;0.0643;-0.8741;
1132.5000;0.0733;-0.8497;
1132.8000;0.0716;-0.8519;
1133.1000;0.0708;-0.8497;
1133.4000;0.0733;-0.8453;
1133.7000;0.0724;-0.8497;
1134.0000;0.0708;-0.8564;
1134.3000;0.0676;-0.8586;
1134.6000;0.0716;-0.8364;
1134.9000;0.0765;-0.8232;
1135.2000;0.0676;-0.8431;
1135.5000;0.0708;-0.8409;
1135.8000;0.0741;-0.8320;
1136.1000;0.0700;-0.8431;
1136.4000;0.0733;-0.8409;
1136.7000;0.0724;-0.8564;
1137.0000;0.0733;-0.8453;
1137.3000;0.0700;-0.8387;
1137.6000;0.0724;-0.8431;
1137.9000;0.0611;-0.8696;
1138.2000;0.0814;-0.8254;
1138.5000;0.0822;-0.8187;
1138.8000;0.0757;-0.8298;
1139.1000;0.0692;-0.8364;
1139.4000;0.0619;-0.8564;
1139.7000;0.0643;-0.8541;
1140.0000;0.0724;-0.8276;
1140.3000;0.0692;-0.8320;
1140.6000;0.0700;-0.8387;
1140.9000;0.0741;-0.8254;
1141.2000;0.0773;-0.8232;
1141.5000;0.0806;-0.8143;
1141.8000;0.0708;-0.8320;
1142.1000;0.0724;-0.8187;
1142.4000;0.0830;-0.7900;
1142.7000;0.0781;-0.8033;
1143.0000;0.0708;-0.8232;
1143.3000;0.0765;-0.8055;
1143.6000;0.0708;-0.8055;
1143.9000;0.0716;-0.8010;
1144.2000;0.0708;-0.8077;
1144.5000;0.0716;-0.8099;
1144.8000;0.0724;-0.8121;
1145.1000;0.0716;-0.8143;
1145.4000;0.0724;-0.8121;
1145.7000;0.0716;-0.8143;
1146.0000;0.0741;-0.8099;
1146.3000;0.0757;-0.8099;
1146.6000;0.0724;-0.8165;
1146.9000;0.0700;-0.8232;
1147.2000;0.0724;-0.8187;
1147.5000;0.0749;-0.8165;
1147.8000;0.0733;-0.8232;
1148.1000;0.0733;-0.8187;
1148.4000;0.0741;-0.8143;
1148.7000;0.0716;-0.8121;
1149.0000;0.0724;-0.8010;
1149.3000;0.0724;-0.7966;
1149.6000;0.0724;-0.8033;
1149.9000;0.0733;-0.8055;
1150.2000;0.0757;-0.8055;
1150.5000;0.0716;-0.8099;
1150.8000;0.0733;-0.8077;
1151.1000;0.0724;-0.8165;
1151.4000;0.0724;-0.8165;
1151.7000;0.0716;-0.8187;
1152.0000;0.0749;-0.8121;
1152.3000;0.0708;-0.8143;
1152.6000;0.0741;-0.8121;
1152.9000;0.0733;-0.8099;
1153.2000;0.0773;-0.8055;
1153.5000;0.0659;-0.8342;
1153.8000;0.0708;-0.8232;
1154.1000;0.0733;-0.8187;
1154.4000;0.0724;-0.8143;
1154.7000;0.0643;-0.8320;
1155.0000;0.0708;-0.8121;
1155.3000;0.0733;-0.8033;
1155.6000;0.0733;-0.8033;
1155.9000;0.0724;-0.8121;
1156.2000;0.0724;-0.8055;
1156.5000;0.0790;-0.7944;
1156.8000;0.0724;-0.8077;
1157.1000;0.0708;-0.8165;
1157.4000;0.0635;-0.8342;
1157.7000;0.0733;-0.8099;
1158.0000;0.0733;-0.8099;
1158.3000;0.0806;-0.7944;
1158.6000;0.0716;-0.8143;
1158.9000;0.0749;-0.8077;
1159.2000;0.0676;-0.8342;
1159.5000;0.0724;-0.8143;
1159.8000;0.0733;-0.8165;
1160.1000;0.0724;-0.8143;
1160.4000;0.0724;-0.8099;
1160.7000;0.0700;-0.8077;
1161.0000;0.0724;-0.8055;
1161.3000;0.0684;-0.8210;
1161.6000;0.0724;-0.8165;
1161.9000;0.0741;-0.8099;
1162.2000;0.0676;-0.8254;
1162.5000;0.0716;-0.8165;
1162.8000;0.0676;-0.8276;
1163.1000;0.0708;-0.8187;
1163.4000;0.0733;-0.8099;
1163.7000;0.0733;-0.8055;
1164.0000;0.0708;-0.8165;
1164.3000;0.0741;-0.8010;
1164.6000;0.0716;-0.8077;
1164.9000;0.0724;-0.8077;
1165.2000;0.0741;-0.8077;
1165.5000;0.0684;-0.8210;
1165.8000;0.0692;-0.8210;
1166.1000;0.0708;-0.8254;
1166.4000;0.0733;-0.8187;
1166.7000;0.0757;-0.8187;
1167.0000;0.0822;-0.8010;
1167.3000;0.0716;-0.8276;
1167.6000;0.0724;-0.8320;
1167.9000;0.0692;-0.8320;
1168.2000;0.0716;-0.8254;
1168.5000;0.0700;-0.8320;
1168.8000;0.0741;-0.8298;
1169.1000;0.0724;-0.8298;
1169.4000;0.0716;-0.8387;
1169.7000;0.0716;-0.8364;
1170.0000;0.0708;-0.8364;
1170.3000;0.0716;-0.8342;
1170.6000;0.0741;-0.8232;
1170.9000;0.0765;-0.8121;
1171.2000;0.0733;-0.8276;
1171.5000;0.0724;-0.8210;
1171.8000;0.0733;-0.8143;
1172.1000;0.0602;-0.8541;
1172.4000;0.0749;-0.8099;
1172.7000;0.0741;-0.8121;
1173.0000;0.0765;-0.8033;
1173.3000;0.0724;-0.8165;
1173.6000;0.0733;-0.8210;
1173.9000;0.0741;-0.8077;
1174.2000;0.0733;-0.8055;
1174.5000;0.0724;-0.8033;
1174.8000;0.0716;-0.8033;
1175.1000;0.0781;-0.7855;
1175.4000;0.0733;-0.7900;
1175.7000;0.0716;-0.8033;
1176.0000;0.0765;-0.7944;
1176.3000;0.0733;-0.8033;
1176.6000;0.0733;-0.7988;
1176.9000;0.0708;-0.8033;
1177.2000;0.0716;-0.8055;
1177.5000;0.0676;-0.8121;
1177.8000;0.0733;-0.8033;
1178.1000;0.0716;-0.8055;
1178.4000;0.0765;-0.7878;
1178.7000;0.0659;-0.8165;
1179.0000;0.0708;-0.7988;
1179.3000;0.0700;-0.8033;
1179.6000;0.0741;-0.8033;
1179.9000;0.0692;-0.8232;
1180.2000;0.0757;-0.8010;
1180.5000;0.0602;-0.8320;
1180.8000;0.0749;-0.7988;
1181.1000;0.0716;-0.8055;
1181.4000;0.0749;-0.8033;
1181.7000;0.0733;-0.8010;
1182.0000;0.0708;-0.7988;
1182.3000;0.0667;-0.8121;
1182.6000;0.0692;-0.8077;
1182.9000;0.0733;-0.7988;
1183.2000;0.0724;-0.7944;
1183.5000;0.0733;-0.7966;
1183.8000;0.0724;-0.8033;
1184.1000;0.0724;-0.8055;
1184.4000;0.0757;-0.8033;
1184.7000;0.0700;-0.8165;
1185.0000;0.0716;-0.8121;
1185.3000;0.0733;-0.8077;
1185.6000;0.0716;-0.8121;
1185.9000;0.0716;-0.8232;
1186.2000;0.0716;-0.8298;
1186.5000;0.0716;-0.8298;
1186.8000;0.0700;-0.8232;
1187.1000;0.0724;-0.8165;
1187.4000;0.0708;-0.8187;
1187.7000;0.0741;-0.8010;
1188.0000;0.0790;-0.7878;
1188.3000;0.0716;-0.7988;
1188.6000;0.0741;-0.7988;
1188.9000;0.0741;-0.7922;
1189.2000;0.0724;-0.7944;
1189.5000;0.0724;-0.7966;
1189.8000;0.0692;-0.7944;
1190.1000;0.0749;-0.7833;
1190.4000;0.0749;-0.7789;
1190.7000;0.0822;-0.7678;
1191.0000;0.0716;-0.7988;
1191.3000;0.0716;-0.7922;
1191.6000;0.0708;-0.7944;
1191.9000;0.0716;-0.7966;
1192.2000;0.0724;-0.7966;
1192.5000;0.0700;-0.8077;
1192.8000;0.0716;-0.8033;
1193.1000;0.0724;-0.7966;
1193.4000;0.0700;-0.7988;
1193.7000;0.0692;-0.7988;
1194.0000;0.0716;-0.7988;
1194.3000;0.0716;-0.7900;
1194.6000;0.0700;-0.7922;
1194.9000;0.0733;-0.7833;
1195.2000;0.0749;-0.7811;
1195.5000;0.0724;-0.7811;
1195.8000;0.0676;-0.7944;
1196.1000;0.0692;-0.8010;
1196.4000;0.0733;-0.7811;
1196.7000;0.0716;-0.7966;
1197.0000;0.0749;-0.7988;
1197.3000;0.0611;-0.8364;
1197.6000;0.0692;-0.8232;
1197.9000;0.0692;-0.8232;
1198.2000;0.0733;-0.7988;
1198.5000;0.0741;-0.7900;
1198.8000;0.0700;-0.8010;
1199.1000;0.0749;-0.7900;
1199.4000;0.0724;-0.7944;
1199.7000;0.0733;-0.7944;
1200.0000;0.0757;-0.7900;
1200.3000;0.0757;-0.7900;
1200.6000;0.0790;-0.7833;
1200.9000;0.0708;-0.8055;
1201.2000;0.0724;-0.8099;
1201.5000;0.0611;-0.8409;
1201.8000;0.0757;-0.8055;
1202.1000;0.0733;-0.8165;
1202.4000;0.0724;-0.8165;
1202.7000;0.0700;-0.8232;
1203.0000;0.0733;-0.8187;
1203.3000;0.0716;-0.8121;
1203.6000;0.0724;-0.8033;
1203.9000;0.0700;-0.8187;
1204.2000;0.0733;-0.8210;
1204.5000;0.0733;-0.8232;
1204.8000;0.0733;-0.8165;
1205.1000;0.0716;-0.8187;
1205.4000;0.0733;-0.8121;
1205.7000;0.0733;-0.8077;
1206.0000;0.0733;-0.8010;
1206.3000;0.0716;-0.8143;
1206.6000;0.0733;-0.8077;
1206.9000;0.0733;-0.8232;
1207.2000;0.0749;-0.8210;
1207.5000;0.0733;-0.8187;
1207.8000;0.0749;-0.8055;
1208.1000;0.0667;-0.8298;
1208.4000;0.0724;-0.8187;
1208.7000;0.0716;-0.8143;
1209.0000;0.0733;-0.8010;
1209.3000;0.0724;-0.8033;
1209.6000;0.0716;-0.7944;
1209.9000;0.0741;-0.7922;
1210.2000;0.0708;-0.8077;
1210.5000;0.0724;-0.7944;
1210.8000;0.0684;-0.7988;
1211.1000;0.0733;-0.7878;
1211.4000;0.0724;-0.7900;
1211.7000;0.0716;-0.7944;
1212.0000;0.0684;-0.8033;
1212.3000;0.0757;-0.7966;
1212.6000;0.0716;-0.8077;
1212.9000;0.0741;-0.8099;
1213.2000;0.0700;-0.8165;
1213.5000;0.0741;-0.8010;
1213.8000;0.0716;-0.8121;
1214.1000;0.0692;-0.8210;
1214.4000;0.0700;-0.8165;
1214.7000;0.0716;-0.8099;
1215.0000;0.0700;-0.8143;
1215.3000;0.0708;-0.8121;
1215.6000;0.0708;-0.8210;
1215.9000;0.0724;-0.8254;
1216.2000;0.0781;-0.8077;
1216.5000;0.0708;-0.8187;
1216.8000;0.0716;-0.8187;
1217.1000;0.0724;-0.8187;
1217.4000;0.0741;-0.8165;
1217.7000;0.0724;-0.8298;
1218.0000;0.0708;-0.8320;
1218.3000;0.0741;-0.8210;
1218.6000;0.0733;-0.8276;
1218.9000;0.0708;-0.8232;
1219.2000;0.0708;-0.8187;
1219.5000;0.0708;-0.8143;
1219.8000;0.0724;-0.8055;
1220.1000;0.0716;-0.8187;
1220.4000;0.0733;-0.8232;
1220.7000;0.0724;-0.8298;
1221.0000;0.0708;-0.8320;
1221.3000;0.0724;-0.8210;
1221.6000;0.0700;-0.8121;
1221.9000;0.0724;-0.8099;
1222.2000;0.0708;-0.8165;
1222.5000;0.0716;-0.8232;
1222.8000;0.0733;-0.8165;
1223.1000;0.0692;-0.8121;
1223.4000;0.0716;-0.8033;
1223.7000;0.0733;-0.8033;
1224.0000;0.0733;-0.8143;
1224.3000;0.0708;-0.8165;
1224.6000;0.0692;-0.8232;
1224.9000;0.0765;-0.8055;
1225.2000;0.0741;-0.8121;
1225.5000;0.0724;-0.8187;
1225.8000;0.0708;-0.8232;
1226.1000;0.0700;-0.8232;
1226.4000;0.0781;-0.7988;
1226.7000;0.0716;-0.8143;
1227.0000;0.0757;-0.8099;
1227.3000;0.0700;-0.8232;
1227.6000;0.0635;-0.8342;
1227.9000;0.0611;-0.8298;
1228.2000;0.0708;-0.8165;
1228.5000;0.0651;-0.8298;
1228.8000;0.0749;-0.7988;
1229.1000;0.0741;-0.7966;
1229.4000;0.0708;-0.8055;
1229.7000;0.0708;-0.8033;
1230.0000;0.0724;-0.8010;
1230.3000;0.0741;-0.7988;
1230.6000;0.0724;-0.8121;
1230.9000;0.0716;-0.8121;
1231.2000;0.0781;-0.7900;
1231.5000;0.0749;-0.7966;
1231.8000;0.0602;-0.8254;
1232.1000;0.0724;-0.7966;
1232.4000;0.0749;-0.7944;
1232.7000;0.0733;-0.8121;
1233.0000;0.0586;-0.8564;
1233.3000;0.0741;-0.8077;
1233.6000;0.0716;-0.8232;
1233.9000;0.0773;-0.8121;
1234.2000;0.0798;-0.7988;
1234.5000;0.0635;-0.8453;
1234.8000;0.0773;-0.8121;
1235.1000;0.0749;-0.8033;
1235.4000;0.0781;-0.7966;
1235.7000;0.0757;-0.7988;
1236.0000;0.0749;-0.8010;
1236.3000;0.0749;-0.8143;
1236.6000;0.0724;-0.8232;
1236.9000;0.0749;-0.8099;
1237.2000;0.0741;-0.8033;
1237.5000;0.0733;-0.7966;
1237.8000;0.0578;-0.8342;
1238.1000;0.0724;-0.7966;
1238.4000;0.0708;-0.8121;
1238.7000;0.0724;-0.8143;
1239.0000;0.0667;-0.8320;
1239.3000;0.0692;-0.8232;
1239.6000;0.0708;-0.8187;
1239.9000;0.0765;-0.8033;
1240.2000;0.0773;-0.8033;
1240.5000;0.0716;-0.8254;
1240.8000;0.0724;-0.8232;
1241.1000;0.0733;-0.8165;
1241.4000;0.0733;-0.8165;
1241.7000;0.0790;-0.8033;
1242.0000;0.0724;-0.8232;
1242.3000;0.0733;-0.8232;
1242.6000;0.0733;-0.8254;
1242.9000;0.0724;-0.8254;
1243.2000;0.0716;-0.8276;
1243.5000;0.0716;-0.8276;
1243.8000;0.0724;-0.8165;
1244.1000;0.0724;-0.8121;
1244.4000;0.0741;-0.7988;
1244.7000;0.0602;-0.8254;
1245.0000;0.0708;-0.8055;
1245.3000;0.0733;-0.8121;
1245.6000;0.0724;-0.8210;
1245.9000;0.0724;-0.8232;
1246.2000;0.0733;-0.8210;
1246.5000;0.0708;-0.8232;
1246.8000;0.0733;-0.8165;
1247.1000;0.0733;-0.8187;
1247.4000;0.0733;-0.8276;
1247.7000;0.0724;-0.8254;
1248.0000;0.0659;-0.8409;
1248.3000;0.0733;-0.8232;
1248.6000;0.0708;-0.8320;
1248.9000;0.0724;-0.8254;
1249.2000;0.0708;-0.8276;
1249.5000;0.0749;-0.8187;
1249.8000;0.0798;-0.7966;
1250.1000;0.0667;-0.8320;
1250.4000;0.0602;-0.8387;
1250.7000;0.0733;-0.8099;
1251.0000;0.0781;-0.7966;
1251.3000;0.0757;-0.8077;
1251.6000;0.0733;-0.8210;
1251.9000;0.0724;-0.8210;
1252.2000;0.0765;-0.8077;
1252.5000;0.0716;-0.8099;
1252.8000;0.0724;-0.8077;
1253.1000;0.0700;-0.8099;
1253.4000;0.0676;-0.8121;
1253.7000;0.0716;-0.8010;
1254.0000;0.0749;-0.7966;
1254.3000;0.0692;-0.8077;
1254.6000;0.0724;-0.8033;
1254.9000;0.0733;-0.8077;
1255.2000;0.0724;-0.8165;
1255.5000;0.0708;-0.8254;
1255.8000;0.0619;-0.8453;
1256.1000;0.0724;-0.8121;
1256.4000;0.0676;-0.8320;
1256.7000;0.0635;-0.8497;
1257.0000;0.0871;-0.7922;
1257.3000;0.0700;-0.8409;
1257.6000;0.0716;-0.8342;
1257.9000;0.0741;-0.8210;
1258.2000;0.0716;-0.8210;
1258.5000;0.0651;-0.8320;
1258.8000;0.0619;-0.8409;
1259.1000;0.0708;-0.8210;
1259.4000;0.0708;-0.8210;
1259.7000;0.0708;-0.8143;
1260.0000;0.0692;-0.8276;
1260.3000;0.0724;-0.8254;
1260.6000;0.0773;-0.8187;
1260.9000;0.0733;-0.8254;
1261.2000;0.0708;-0.8298;
1261.5000;0.0773;-0.8232;
1261.8000;0.0692;-0.8409;
1262.1000;0.0676;-0.8342;
1262.4000;0.0724;-0.8232;
1262.7000;0.0708;-0.8320;
1263.0000;0.0724;-0.8210;
1263.3000;0.0708;-0.8033;
1263.6000;0.0708;-0.7966;
1263.9000;0.0676;-0.8033;
1264.2000;0.0724;-0.8010;
1264.5000;0.0733;-0.7966;
1264.8000;0.0741;-0.7988;
1265.1000;0.0651;-0.8187;
1265.4000;0.0708;-0.8010;
1265.7000;0.0724;-0.8055;
1266.0000;0.0741;-0.8033;
1266.3000;0.0692;-0.8121;
1266.6000;0.0733;-0.8055;
1266.9000;0.0790;-0.7855;
1267.2000;0.0716;-0.8077;
1267.5000;0.0708;-0.8055;
1267.8000;0.0733;-0.8033;
1268.1000;0.0716;-0.8077;
1268.4000;0.0716;-0.8121;
1268.7000;0.0724;-0.8077;
1269.0000;0.0773;-0.7922;
1269.3000;0.0733;-0.8055;
1269.6000;0.0733;-0.7944;
1269.9000;0.0692;-0.8143;
1270.2000;0.0627;-0.8342;
1270.5000;0.0716;-0.8143;
1270.8000;0.0790;-0.7988;
1271.1000;0.0733;-0.8099;
1271.4000;0.0733;-0.8165;
1271.7000;0.0749;-0.8099;
1272.0000;0.0733;-0.8143;
1272.3000;0.0716;-0.8143;
1272.6000;0.0757;-0.8010;
1272.9000;0.0659;-0.8342;
1273.2000;0.0716;-0.8210;
1273.5000;0.0724;-0.8210;
1273.8000;0.0700;-0.8210;
1274.1000;0.0692;-0.8232;
1274.4000;0.0749;-0.8077;
1274.7000;0.0798;-0.7900;
1275.0000;0.0822;-0.7855;
1275.3000;0.0798;-0.7922;
1275.6000;0.0757;-0.8077;
1275.9000;0.0749;-0.8010;
1276.2000;0.0733;-0.8165;
1276.5000;0.0757;-0.8232;
1276.8000;0.0773;-0.8165;
1277.1000;0.0700;-0.8187;
1277.4000;0.0741;-0.8077;
1277.7000;0.0741;-0.8077;
1278.0000;0.0708;-0.8143;
1278.3000;0.0733;-0.8121;
1278.6000;0.0716;-0.8121;
1278.9000;0.0724;-0.8099;
1279.2000;0.0708;-0.8121;
1279.5000;0.0741;-0.8010;
1279.8000;0.0733;-0.7944;
1280.1000;0.0765;-0.7900;
1280.4000;0.0724;-0.7966;
1280.7000;0.0724;-0.7966;
1281.0000;0.0765;-0.7878;
1281.3000;0.0733;-0.7966;
1281.6000;0.0716;-0.8143;
1281.9000;0.0733;-0.8121;
1282.2000;0.0708;-0.8210;
1282.5000;0.0708;-0.8143;
1282.8000;0.0716;-0.8143;
1283.1000;0.0781;-0.8077;
1283.4000;0.0708;-0.8298;
1283.7000;0.0716;-0.8276;
1284.0000;0.0733;-0.8187;
1284.3000;0.0733;-0.8121;
1284.6000;0.0700;-0.8232;
1284.9000;0.0822;-0.7944;
1285.2000;0.0733;-0.8165;
1285.5000;0.0733;-0.8099;
1285.8000;0.0749;-0.8099;
1286.1000;0.0773;-0.7988;
1286.4000;0.0733;-0.8077;
1286.7000;0.0749;-0.8055;
1287.0000;0.0724;-0.8099;
1287.3000;0.0724;-0.8033;
1287.6000;0.0724;-0.8010;
1287.9000;0.0700;-0.8010;
1288.2000;0.0708;-0.8033;
1288.5000;0.0757;-0.7922;
1288.8000;0.0741;-0.7944;
1289.1000;0.0724;-0.8010;
1289.4000;0.0708;-0.8033;
1289.7000;0.0733;-0.7966;
1290.0000;0.0708;-0.8033;
1290.3000;0.0700;-0.8055;
1290.6000;0.0733;-0.8010;
1290.9000;0.0724;-0.8099;
1291.2000;0.0741;-0.8055;
1291.5000;0.0741;-0.8077;
1291.8000;0.0733;-0.8055;
1292.1000;0.0708;-0.8077;
1292.4000;0.0781;-0.7944;
1292.7000;0.0716;-0.8099;
1293.0000;0.0773;-0.7944;
1293.3000;0.0667;-0.8165;
1293.6000;0.0724;-0.7988;
1293.9000;0.0700;-0.8033;
1294.2000;0.0716;-0.7944;
1294.5000;0.0676;-0.8010;
1294.8000;0.0765;-0.7988;
1295.1000;0.0781;-0.7922;
1295.4000;0.0822;-0.7767;
1295.7000;0.0741;-0.7988;
1296.0000;0.0757;-0.8010;
1296.3000;0.0741;-0.8033;
1296.6000;0.0733;-0.7988;
1296.9000;0.0708;-0.8121;
1297.2000;0.0676;-0.8210;
1297.5000;0.0724;-0.8099;
1297.8000;0.0692;-0.8165;
1298.1000;0.0716;-0.8121;
1298.4000;0.0659;-0.8342;
1298.7000;0.0700;-0.8276;
1299.0000;0.0708;-0.8232;
1299.3000;0.0708;-0.8276;
1299.6000;0.0716;-0.8320;
1299.9000;0.0757;-0.8165;
1300.2000;0.0773;-0.8121;
1300.5000;0.0724;-0.8210;
1300.8000;0.0700;-0.8232;
1301.1000;0.0790;-0.7988;
1301.4000;0.0724;-0.8055;
1301.7000;0.0733;-0.8033;
1302.0000;0.0716;-0.8143;
1302.3000;0.0724;-0.8121;
1302.6000;0.0716;-0.8165;
1302.9000;0.0676;-0.8232;
1303.2000;0.0716;-0.8187;
1303.5000;0.0708;-0.8210;
1303.8000;0.0716;-0.8254;
1304.1000;0.0749;-0.8210;
1304.4000;0.0708;-0.8254;
1304.7000;0.0733;-0.8143;
1305.0000;0.0724;-0.8077;
1305.3000;0.0749;-0.7966;
1305.6000;0.0724;-0.7988;
1305.9000;0.0716;-0.8077;
1306.2000;0.0700;-0.8165;
1306.5000;0.0716;-0.8010;
1306.8000;0.0708;-0.8077;
1307.1000;0.0692;-0.8165;
1307.4000;0.0716;-0.7988;
1307.7000;0.0716;-0.8055;
1308.0000;0.0757;-0.8010;
1308.3000;0.0667;-0.8210;
1308.6000;0.0749;-0.8077;
1308.9000;0.0724;-0.8099;
1309.2000;0.0724;-0.8121;
1309.5000;0.0700;-0.8165;
1309.8000;0.0741;-0.8077;
1310.1000;0.0765;-0.7988;
1310.4000;0.0749;-0.7988;
1310.7000;0.0733;-0.8033;
1311.0000;0.0700;-0.8099;
1311.3000;0.0716;-0.8165;
1311.6000;0.0733;-0.8099;
1311.9000;0.0716;-0.8099;
1312.2000;0.0700;-0.8077;
1312.5000;0.0733;-0.8033;
1312.8000;0.0733;-0.8099;
1313.1000;0.0741;-0.8099;
1313.4000;0.0716;-0.8187;
1313.7000;0.0733;-0.8232;
1314.0000;0.0724;-0.8254;
1314.3000;0.0724;-0.8276;
1314.6000;0.0733;-0.8276;
1314.9000;0.0716;-0.8232;
1315.2000;0.0724;-0.8210;
1315.5000;0.0733;-0.8165;
1315.8000;0.0757;-0.8143;
1316.1000;0.0765;-0.8010;
1316.4000;0.0708;-0.8055;
1316.7000;0.0724;-0.7966;
1317.0000;0.0635;-0.8232;
1317.3000;0.0724;-0.8010;
1317.6000;0.0659;-0.8187;
1317.9000;0.0733;-0.7922;
1318.2000;0.0741;-0.7944;
1318.5000;0.0757;-0.7833;
1318.8000;0.0733;-0.7878;
1319.1000;0.0724;-0.7944;
1319.4000;0.0724;-0.7966;
1319.7000;0.0724;-0.7966;
1320.0000;0.0724;-0.8077;
1320.3000;0.0733;-0.8077;
1320.6000;0.0741;-0.8099;
1320.9000;0.0773;-0.8010;
1321.2000;0.0716;-0.8165;
1321.5000;0.0708;-0.8165;
1321.8000;0.0724;-0.8121;
1322.1000;0.0684;-0.8187;
1322.4000;0.0716;-0.8099;
1322.7000;0.0708;-0.8055;
1323.0000;0.0822;-0.7811;
1323.3000;0.0741;-0.7966;
1323.6000;0.0724;-0.7944;
1323.9000;0.0716;-0.7878;
1324.2000;0.0724;-0.7966;
1324.5000;0.0733;-0.7878;
1324.8000;0.0724;-0.7855;
1325.1000;0.0659;-0.8055;
1325.4000;0.0741;-0.7878;
1325.7000;0.0724;-0.7966;
1326.0000;0.0724;-0.8033;
1326.3000;0.0716;-0.7988;
1326.6000;0.0708;-0.7878;
1326.9000;0.0708;-0.7900;
1327.2000;0.0700;-0.7966;
1327.5000;0.0708;-0.8010;
1327.8000;0.0724;-0.7966;
1328.1000;0.0773;-0.7878;
1328.4000;0.0741;-0.7922;
1328.7000;0.0724;-0.7900;
1329.0000;0.0773;-0.7811;
1329.3000;0.0708;-0.7944;
1329.6000;0.0733;-0.7900;
1329.9000;0.0733;-0.7922;
1330.2000;0.0724;-0.7922;
1330.5000;0.0757;-0.7855;
1330.8000;0.0749;-0.7878;
1331.1000;0.0724;-0.7922;
1331.4000;0.0724;-0.7855;
1331.7000;0.0757;-0.7723;
1332.0000;0.0741;-0.7878;
1332.3000;0.0724;-0.8033;
1332.6000;0.0708;-0.8033;
1332.9000;0.0708;-0.8055;
1333.2000;0.0781;-0.7855;
1333.5000;0.0684;-0.8121;
1333.8000;0.0708;-0.8010;
1334.1000;0.0667;-0.8077;
1334.4000;0.0724;-0.7922;
1334.7000;0.0724;-0.8010;
1335.0000;0.0716;-0.8010;
1335.3000;0.0724;-0.7900;
1335.6000;0.0716;-0.7900;
1335.9000;0.0830;-0.7745;
1336.2000;0.0749;-0.7966;
1336.5000;0.0716;-0.8033;
1336.8000;0.0871;-0.7723;
1337.1000;0.0724;-0.8099;
1337.4000;0.0716;-0.8143;
1337.7000;0.0733;-0.8121;
1338.0000;0.0724;-0.8143;
1338.3000;0.0724;-0.8187;
1338.6000;0.0724;-0.8121;
1338.9000;0.0724;-0.8165;
1339.2000;0.0733;-0.8121;
1339.5000;0.0741;-0.8121;
1339.8000;0.0765;-0.8143;
1340.1000;0.0708;-0.8320;
1340.4000;0.0676;-0.8475;
1340.7000;0.0741;-0.8276;
1341.0000;0.0692;-0.8320;
1341.3000;0.0814;-0.8010;
1341.6000;0.0724;-0.8187;
1341.9000;0.0692;-0.8165;
1342.2000;0.0716;-0.8077;
1342.5000;0.0724;-0.8055;
1342.8000;0.0700;-0.8165;
1343.1000;0.0684;-0.8210;
1343.4000;0.0790;-0.7988;
1343.7000;0.0724;-0.8165;
1344.0000;0.0733;-0.8210;
1344.3000;0.0708;-0.8276;
1344.6000;0.0790;-0.8099;
1344.9000;0.0651;-0.8387;
1345.2000;0.0708;-0.8276;
1345.5000;0.0749;-0.8165;
1345.8000;0.0733;-0.8232;
1346.1000;0.0708;-0.8254;
1346.4000;0.0708;-0.8298;
1346.7000;0.0724;-0.8210;
1347.0000;0.0700;-0.8254;
1347.3000;0.0838;-0.8010;
1347.6000;0.0741;-0.8232;
1347.9000;0.0708;-0.8364;
1348.2000;0.0741;-0.8320;
1348.5000;0.0700;-0.8342;
1348.8000;0.0708;-0.8254;
1349.1000;0.0716;-0.8342;
1349.4000;0.0708;-0.8364;
1349.7000;0.0871;-0.7966;
1350.0000;0.0798;-0.8210;
1350.3000;0.0733;-0.8364;
1350.6000;0.0692;-0.8409;
1350.9000;0.0733;-0.8276;
1351.2000;0.0773;-0.8143;
1351.5000;0.0716;-0.8276;
1351.8000;0.0757;-0.8276;
1352.1000;0.0676;-0.8409;
1352.4000;0.0716;-0.8276;
1352.7000;0.0716;-0.8276;
1353.0000;0.0716;-0.8276;
1353.3000;0.0724;-0.8210;
1353.6000;0.0708;-0.8232;
1353.9000;0.0676;-0.8254;
1354.2000;0.0716;-0.8165;
1354.5000;0.0708;-0.8276;
1354.8000;0.0716;-0.8210;
1355.1000;0.0716;-0.8165;
1355.4000;0.0733;-0.8143;
1355.7000;0.0724;-0.8210;
1356.0000;0.0586;-0.8541;
1356.3000;0.0765;-0.8010;
1356.6000;0.0790;-0.7944;
1356.9000;0.0684;-0.8165;
1357.2000;0.0733;-0.8010;
1357.5000;0.0676;-0.8143;
1357.8000;0.0814;-0.7833;
1358.1000;0.0700;-0.8033;
1358.4000;0.0724;-0.8099;
1358.7000;0.0724;-0.8165;
1359.0000;0.0724;-0.8187;
1359.3000;0.0635;-0.8409;
1359.6000;0.0733;-0.8232;
1359.9000;0.0781;-0.8121;
1360.2000;0.0700;-0.8320;
1360.5000;0.0708;-0.8210;
1360.8000;0.0724;-0.8099;
1361.1000;0.0708;-0.8143;
1361.4000;0.0684;-0.8165;
1361.7000;0.0724;-0.8055;
1362.0000;0.0741;-0.8033;
1362.3000;0.0733;-0.8033;
1362.6000;0.0724;-0.8077;
1362.9000;0.0790;-0.7966;
1363.2000;0.0741;-0.8099;
1363.5000;0.0749;-0.8033;
1363.8000;0.0733;-0.8077;
1364.1000;0.0692;-0.8187;
1364.4000;0.0700;-0.8298;
1364.7000;0.0716;-0.8232;
1365.0000;0.0741;-0.8187;
1365.3000;0.0619;-0.8608;
1365.6000;0.0724;-0.8254;
1365.9000;0.0749;-0.8143;
1366.2000;0.0676;-0.8320;
1366.5000;0.0863;-0.7878;
1366.8000;0.0733;-0.8077;
1367.1000;0.0733;-0.8055;
1367.4000;0.0684;-0.8165;
1367.7000;0.0700;-0.8165;
1368.0000;0.0733;-0.8165;
1368.3000;0.0700;-0.8187;
1368.6000;0.0765;-0.7988;
1368.9000;0.0724;-0.8099;
1369.2000;0.0757;-0.7988;
1369.5000;0.0733;-0.8099;
1369.8000;0.0716;-0.8077;
1370.1000;0.0741;-0.8033;
1370.4000;0.0757;-0.7966;
1370.7000;0.0733;-0.8055;
1371.0000;0.0733;-0.8099;
1371.3000;0.0855;-0.7900;
1371.6000;0.0724;-0.8187;
1371.9000;0.0814;-0.8033;
1372.2000;0.0724;-0.8210;
1372.5000;0.0716;-0.8187;
1372.8000;0.0659;-0.8276;
1373.1000;0.0716;-0.8210;
1373.4000;0.0708;-0.8165;
1373.7000;0.0716;-0.8187;
1374.0000;0.0716;-0.8165;
1374.3000;0.0724;-0.8232;
1374.6000;0.0716;-0.8254;
1374.9000;0.0716;-0.8298;
1375.2000;0.0733;-0.8276;
1375.5000;0.0765;-0.8187;
1375.8000;0.0643;-0.8497;
1376.1000;0.0749;-0.8055;
1376.4000;0.0724;-0.8121;
1376.7000;0.0700;-0.8165;
1377.0000;0.0700;-0.8077;
1377.3000;0.0716;-0.8033;
1377.6000;0.0724;-0.8010;
1377.9000;0.0716;-0.8033;
1378.2000;0.0733;-0.7944;
1378.5000;0.0757;-0.8010;
1378.8000;0.0741;-0.8099;
1379.1000;0.0708;-0.8187;
1379.4000;0.0716;-0.8143;
1379.7000;0.0716;-0.8165;
1380.0000;0.0757;-0.8033;
1380.3000;0.0684;-0.8210;
1380.6000;0.0733;-0.8077;
1380.9000;0.0708;-0.8143;
1381.2000;0.0667;-0.8298;
1381.5000;0.0724;-0.8276;
1381.8000;0.0733;-0.8232;
1382.1000;0.0602;-0.8541;
1382.4000;0.0765;-0.8010;
1382.7000;0.0716;-0.8099;
1383.0000;0.0700;-0.8121;
1383.3000;0.0741;-0.8055;
1383.6000;0.0741;-0.8010;
1383.9000;0.0757;-0.7922;
1384.2000;0.0692;-0.8099;
1384.5000;0.0716;-0.8099;
1384.8000;0.0611;-0.8409;
1385.1000;0.0733;-0.8121;
1385.4000;0.0749;-0.8099;
1385.7000;0.0733;-0.8210;
1386.0000;0.0692;-0.8210;
1386.3000;0.0765;-0.8077;
1386.6000;0.0749;-0.8143;
1386.9000;0.0708;-0.8121;
1387.2000;0.0716;-0.8055;
1387.5000;0.0781;-0.7855;
1387.8000;0.0676;-0.8121;
1388.1000;0.0708;-0.8099;
1388.4000;0.0594;-0.8453;
1388.7000;0.0749;-0.8099;
1389.0000;0.0741;-0.8099;
1389.3000;0.0765;-0.8010;
1389.6000;0.0619;-0.8364;
1389.9000;0.0773;-0.7988;
1390.2000;0.0708;-0.8254;
1390.5000;0.0741;-0.8210;
1390.8000;0.0724;-0.8254;
1391.1000;0.0733;-0.8232;
1391.4000;0.0724;-0.8165;
1391.7000;0.0724;-0.8121;
1392.0000;0.0749;-0.8187;
1392.3000;0.0716;-0.8276;
1392.6000;0.0733;-0.8254;
1392.9000;0.0798;-0.7944;
1393.2000;0.0733;-0.8077;
1393.5000;0.0716;-0.8099;
1393.8000;0.0635;-0.8276;
1394.1000;0.0733;-0.8077;
1394.4000;0.0724;-0.8077;
1394.7000;0.0733;-0.8143;
1395.0000;0.0724;-0.8121;
1395.3000;0.0733;-0.8165;
1395.6000;0.0716;-0.8121;
1395.9000;0.0733;-0.8121;
1396.2000;0.0724;-0.8121;
1396.5000;0.0733;-0.8099;
1396.8000;0.0749;-0.8165;
1397.1000;0.0733;-0.8099;
1397.4000;0.0724;-0.8099;
1397.7000;0.0749;-0.8033;
1398.0000;0.0733;-0.8033;
1398.3000;0.0724;-0.8055;
1398.6000;0.0724;-0.8165;
1398.9000;0.0586;-0.8564;
1399.2000;0.0733;-0.8165;
1399.5000;0.0708;-0.8232;
1399.8000;0.0724;-0.8187;
