time/ms;Fluo/V;P700 deltaI/I x10³;
-199.8000;0.0806;-0.7789;
-199.5000;0.0814;-0.7723;
-199.2000;0.0773;-0.7811;
-198.9000;0.0781;-0.7855;
-198.6000;0.0798;-0.7878;
-198.3000;0.0806;-0.7811;
-198.0000;0.0781;-0.7900;
-197.7000;0.0814;-0.7878;
-197.4000;0.0773;-0.8033;
-197.1000;0.0781;-0.7966;
-196.8000;0.0814;-0.7944;
-196.5000;0.0830;-0.7767;
-196.2000;0.0773;-0.7833;
-195.9000;0.0790;-0.7767;
-195.6000;0.0765;-0.7767;
-195.3000;0.0814;-0.7678;
-195.0000;0.0790;-0.7745;
-194.7000;0.0806;-0.7678;
-194.4000;0.0790;-0.7723;
-194.1000;0.0790;-0.7833;
-193.8000;0.0790;-0.7789;
-193.5000;0.0798;-0.7767;
-193.2000;0.0806;-0.7811;
-192.9000;0.0781;-0.7833;
-192.6000;0.0765;-0.7833;
-192.3000;0.0806;-0.7811;
-192.0000;0.0790;-0.7833;
-191.7000;0.0798;-0.7789;
-191.4000;0.0798;-0.7855;
-191.1000;0.0822;-0.7922;
-190.8000;0.0798;-0.7944;
-190.5000;0.0814;-0.7855;
-190.2000;0.0814;-0.7789;
-189.9000;0.0790;-0.7855;
-189.6000;0.0814;-0.7789;
-189.3000;0.0773;-0.7855;
-189.0000;0.0814;-0.7767;
-188.7000;0.0757;-0.7833;
-188.4000;0.0790;-0.7900;
-188.1000;0.0798;-0.7922;
-187.8000;0.0806;-0.7811;
-187.5000;0.0781;-0.7833;
-187.2000;0.0781;-0.7855;
-186.9000;0.0765;-0.7878;
-186.6000;0.0822;-0.7723;
-186.3000;0.0806;-0.7745;
-186.0000;0.0781;-0.7789;
-185.7000;0.0773;-0.7767;
-185.4000;0.0814;-0.7723;
-185.1000;0.0871;-0.7723;
-184.8000;0.0790;-0.7944;
-184.5000;0.0790;-0.7922;
-184.2000;0.0806;-0.7966;
-183.9000;0.0798;-0.7900;
-183.6000;0.0773;-0.7988;
-183.3000;0.0773;-0.8033;
-183.0000;0.0806;-0.7944;
-182.7000;0.0822;-0.7833;
-182.4000;0.0790;-0.7900;
-182.1000;0.0806;-0.7855;
-181.8000;0.0806;-0.7900;
-181.5000;0.0806;-0.7966;
-181.2000;0.0798;-0.7988;
-180.9000;0.0798;-0.7944;
-180.6000;0.0790;-0.7944;
-180.3000;0.0765;-0.7966;
-180.0000;0.0790;-0.7922;
-179.7000;0.0798;-0.7900;
-179.4000;0.0781;-0.7900;
-179.1000;0.0822;-0.7833;
-178.8000;0.0708;-0.7988;
-178.5000;0.0798;-0.7745;
-178.2000;0.0781;-0.7767;
-177.9000;0.0790;-0.7789;
-177.6000;0.0765;-0.7789;
-177.3000;0.0781;-0.7811;
-177.0000;0.0790;-0.7789;
-176.7000;0.0781;-0.7811;
-176.4000;0.0749;-0.7811;
-176.1000;0.0806;-0.7789;
-175.8000;0.0806;-0.7833;
-175.5000;0.0781;-0.7922;
-175.2000;0.0798;-0.7944;
-174.9000;0.0773;-0.7944;
-174.6000;0.0798;-0.7922;
-174.3000;0.0798;-0.7900;
-174.0000;0.0790;-0.7922;
-173.7000;0.0814;-0.7811;
-173.4000;0.0790;-0.7900;
-173.1000;0.0781;-0.7878;
-172.8000;0.0806;-0.7833;
-172.5000;0.0781;-0.7878;
-172.2000;0.0798;-0.7789;
-171.9000;0.0806;-0.7789;
-171.6000;0.0806;-0.7767;
-171.3000;0.0806;-0.7767;
-171.0000;0.0822;-0.7678;
-170.7000;0.0790;-0.7723;
-170.4000;0.0798;-0.7723;
-170.1000;0.0806;-0.7767;
-169.8000;0.0806;-0.7789;
-169.5000;0.0790;-0.7745;
-169.2000;0.0806;-0.7745;
-168.9000;0.0814;-0.7745;
-168.6000;0.0773;-0.7767;
-168.3000;0.0798;-0.7701;
-168.0000;0.0798;-0.7701;
-167.7000;0.0798;-0.7612;
-167.4000;0.0798;-0.7612;
-167.1000;0.0781;-0.7590;
-166.8000;0.0822;-0.7501;
-166.5000;0.0814;-0.7479;
-166.2000;0.0806;-0.7634;
-165.9000;0.0798;-0.7634;
-165.6000;0.0806;-0.7656;
-165.3000;0.0798;-0.7723;
-165.0000;0.0806;-0.7767;
-164.7000;0.0790;-0.7745;
-164.4000;0.0773;-0.7767;
-164.1000;0.0790;-0.7767;
-163.8000;0.0781;-0.7767;
-163.5000;0.0773;-0.7811;
-163.2000;0.0822;-0.7723;
-162.9000;0.0790;-0.7878;
-162.6000;0.0814;-0.7900;
-162.3000;0.0798;-0.7789;
-162.0000;0.0790;-0.7745;
-161.7000;0.0798;-0.7723;
-161.4000;0.0814;-0.7723;
-161.1000;0.0781;-0.7767;
-160.8000;0.0790;-0.7767;
-160.5000;0.0847;-0.7678;
-160.2000;0.0798;-0.7833;
-159.9000;0.0790;-0.7855;
-159.6000;0.0790;-0.7900;
-159.3000;0.0806;-0.7900;
-159.0000;0.0798;-0.7833;
-158.7000;0.0814;-0.7767;
-158.4000;0.0700;-0.8010;
-158.1000;0.0781;-0.7767;
-157.8000;0.0781;-0.7944;
-157.5000;0.0781;-0.7966;
-157.2000;0.0765;-0.8010;
-156.9000;0.0781;-0.7944;
-156.6000;0.0773;-0.7944;
-156.3000;0.0773;-0.7944;
-156.0000;0.0790;-0.7922;
-155.7000;0.0790;-0.8033;
-155.4000;0.0765;-0.8010;
-155.1000;0.0781;-0.7988;
-154.8000;0.0773;-0.8033;
-154.5000;0.0790;-0.8010;
-154.2000;0.0781;-0.7900;
-153.9000;0.0781;-0.7833;
-153.6000;0.0806;-0.7767;
-153.3000;0.0757;-0.7922;
-153.0000;0.0749;-0.7966;
-152.7000;0.0790;-0.7900;
-152.4000;0.0814;-0.7833;
-152.1000;0.0798;-0.7944;
-151.8000;0.0838;-0.7900;
-151.5000;0.0724;-0.8055;
-151.2000;0.0790;-0.7855;
-150.9000;0.0822;-0.7767;
-150.6000;0.0790;-0.7922;
-150.3000;0.0651;-0.8210;
-150.0000;0.0814;-0.7855;
-149.7000;0.0806;-0.7878;
-149.4000;0.0781;-0.7922;
-149.1000;0.0798;-0.7922;
-148.8000;0.0765;-0.7966;
-148.5000;0.0781;-0.7900;
-148.2000;0.0765;-0.7966;
-147.9000;0.0692;-0.8143;
-147.6000;0.0781;-0.7922;
-147.3000;0.0692;-0.8121;
-147.0000;0.0781;-0.7855;
-146.7000;0.0790;-0.7833;
-146.4000;0.0806;-0.7789;
-146.1000;0.0773;-0.7833;
-145.8000;0.0822;-0.7811;
-145.5000;0.0773;-0.7855;
-145.2000;0.0765;-0.7966;
-144.9000;0.0798;-0.7900;
-144.6000;0.0790;-0.7922;
-144.3000;0.0773;-0.7966;
-144.0000;0.0773;-0.7988;
-143.7000;0.0757;-0.7966;
-143.4000;0.0798;-0.7833;
-143.1000;0.0814;-0.7833;
-142.8000;0.0806;-0.7767;
-142.5000;0.0798;-0.7811;
-142.2000;0.0895;-0.7501;
-141.9000;0.0733;-0.7944;
-141.6000;0.0798;-0.7723;
-141.3000;0.0814;-0.7723;
-141.0000;0.0798;-0.7701;
-140.7000;0.0790;-0.7723;
-140.4000;0.0781;-0.7634;
-140.1000;0.0790;-0.7612;
-139.8000;0.0838;-0.7457;
-139.5000;0.0765;-0.7612;
-139.2000;0.0830;-0.7501;
-138.9000;0.0790;-0.7568;
-138.6000;0.0790;-0.7701;
-138.3000;0.0773;-0.7811;
-138.0000;0.0781;-0.7789;
-137.7000;0.0773;-0.7723;
-137.4000;0.0781;-0.7678;
-137.1000;0.0806;-0.7678;
-136.8000;0.0806;-0.7612;
-136.5000;0.0781;-0.7723;
-136.2000;0.0741;-0.7811;
-135.9000;0.0790;-0.7723;
-135.6000;0.0790;-0.7701;
-135.3000;0.0798;-0.7723;
-135.0000;0.0798;-0.7767;
-134.7000;0.0749;-0.7833;
-134.4000;0.0847;-0.7678;
-134.1000;0.0912;-0.7501;
-133.8000;0.0773;-0.7789;
-133.5000;0.0798;-0.7767;
-133.2000;0.0798;-0.7811;
-132.9000;0.0790;-0.7789;
-132.6000;0.0765;-0.7855;
-132.3000;0.0855;-0.7634;
-132.0000;0.0790;-0.7855;
-131.7000;0.0798;-0.7833;
-131.4000;0.0790;-0.7789;
-131.1000;0.0790;-0.7811;
-130.8000;0.0790;-0.7878;
-130.5000;0.0790;-0.7789;
-130.2000;0.0790;-0.7767;
-129.9000;0.0790;-0.7723;
-129.6000;0.0781;-0.7811;
-129.3000;0.0798;-0.7811;
-129.0000;0.0790;-0.7855;
-128.7000;0.0765;-0.7833;
-128.4000;0.0790;-0.7723;
-128.1000;0.0798;-0.7723;
-127.8000;0.0781;-0.7767;
-127.5000;0.0798;-0.7723;
-127.2000;0.0798;-0.7701;
-126.9000;0.0798;-0.7723;
-126.6000;0.0806;-0.7656;
-126.3000;0.0659;-0.8010;
-126.0000;0.0806;-0.7723;
-125.7000;0.0814;-0.7723;
-125.4000;0.0806;-0.7855;
-125.1000;0.0781;-0.7855;
-124.8000;0.0798;-0.7833;
-124.5000;0.0814;-0.7811;
-124.2000;0.0814;-0.7855;
-123.9000;0.0790;-0.7855;
-123.6000;0.0790;-0.7900;
-123.3000;0.0798;-0.7922;
-123.0000;0.0781;-0.7878;
-122.7000;0.0765;-0.7944;
-122.4000;0.0757;-0.7900;
-122.1000;0.0798;-0.7811;
-121.8000;0.0863;-0.7723;
-121.5000;0.0765;-0.7833;
-121.2000;0.0790;-0.7745;
-120.9000;0.0790;-0.7767;
-120.6000;0.0790;-0.7855;
-120.3000;0.0822;-0.7789;
-120.0000;0.0790;-0.7789;
-119.7000;0.0798;-0.7723;
-119.4000;0.0757;-0.7833;
-119.1000;0.0798;-0.7767;
-118.8000;0.0790;-0.7789;
-118.5000;0.0781;-0.7811;
-118.2000;0.0781;-0.7789;
-117.9000;0.0790;-0.7855;
-117.6000;0.0757;-0.8010;
-117.3000;0.0798;-0.7922;
-117.0000;0.0798;-0.7878;
-116.7000;0.0798;-0.7855;
-116.4000;0.0781;-0.7811;
-116.1000;0.0790;-0.7701;
-115.8000;0.0806;-0.7723;
-115.5000;0.0871;-0.7634;
-115.2000;0.0749;-0.7900;
-114.9000;0.0790;-0.7789;
-114.6000;0.0790;-0.7878;
-114.3000;0.0822;-0.7789;
-114.0000;0.0790;-0.7878;
-113.7000;0.0781;-0.7855;
-113.4000;0.0806;-0.7789;
-113.1000;0.0790;-0.7789;
-112.8000;0.0790;-0.7855;
-112.5000;0.0773;-0.7878;
-112.2000;0.0838;-0.7745;
-111.9000;0.0790;-0.7878;
-111.6000;0.0806;-0.7855;
-111.3000;0.0822;-0.7811;
-111.0000;0.0790;-0.7922;
-110.7000;0.0887;-0.7634;
-110.4000;0.0692;-0.8077;
-110.1000;0.0790;-0.7855;
-109.8000;0.0781;-0.7855;
-109.5000;0.0798;-0.7767;
-109.2000;0.0806;-0.7723;
-108.9000;0.0790;-0.7767;
-108.6000;0.0781;-0.7811;
-108.3000;0.0790;-0.7767;
-108.0000;0.0790;-0.7723;
-107.7000;0.0798;-0.7656;
-107.4000;0.0790;-0.7612;
-107.1000;0.0781;-0.7656;
-106.8000;0.0806;-0.7612;
-106.5000;0.0806;-0.7701;
-106.2000;0.0798;-0.7701;
-105.9000;0.0806;-0.7723;
-105.6000;0.0790;-0.7811;
-105.3000;0.0871;-0.7612;
-105.0000;0.0773;-0.7789;
-104.7000;0.0757;-0.7900;
-104.4000;0.0830;-0.7789;
-104.1000;0.0773;-0.7811;
-103.8000;0.0773;-0.7855;
-103.5000;0.0806;-0.7811;
-103.2000;0.0822;-0.7701;
-102.9000;0.0798;-0.7723;
-102.6000;0.0814;-0.7678;
-102.3000;0.0790;-0.7789;
-102.0000;0.0781;-0.7767;
-101.7000;0.0798;-0.7789;
-101.4000;0.0830;-0.7767;
-101.1000;0.0790;-0.7767;
-100.8000;0.0798;-0.7833;
-100.5000;0.0790;-0.7900;
-100.2000;0.0798;-0.7988;
-99.9000;0.0798;-0.7966;
-99.6000;0.0765;-0.7922;
-99.3000;0.0781;-0.7855;
-99.0000;0.0790;-0.7833;
-98.7000;0.0773;-0.7900;
-98.4000;0.0781;-0.7966;
-98.1000;0.0773;-0.7944;
-97.8000;0.0863;-0.7701;
-97.5000;0.0790;-0.7944;
-97.2000;0.0781;-0.7988;
-96.9000;0.0798;-0.8055;
-96.6000;0.0790;-0.8077;
-96.3000;0.0790;-0.8033;
-96.0000;0.0798;-0.8033;
-95.7000;0.0781;-0.8121;
-95.4000;0.0781;-0.8055;
-95.1000;0.0781;-0.8010;
-94.8000;0.0806;-0.7944;
-94.5000;0.0781;-0.8055;
-94.2000;0.0781;-0.8033;
-93.9000;0.0798;-0.7966;
-93.6000;0.0814;-0.7944;
-93.3000;0.0798;-0.8055;
-93.0000;0.0790;-0.8077;
-92.7000;0.0765;-0.8077;
-92.4000;0.0863;-0.7878;
-92.1000;0.0838;-0.7944;
-91.8000;0.0798;-0.8055;
-91.5000;0.0790;-0.7922;
-91.2000;0.0863;-0.7656;
-90.9000;0.0806;-0.7745;
-90.6000;0.0716;-0.7944;
-90.3000;0.0847;-0.7656;
-90.0000;0.0814;-0.7723;
-89.7000;0.0773;-0.7833;
-89.4000;0.0716;-0.7966;
-89.1000;0.0781;-0.7833;
-88.8000;0.0790;-0.7855;
-88.5000;0.0781;-0.7789;
-88.2000;0.0798;-0.7878;
-87.9000;0.0700;-0.8099;
-87.6000;0.0798;-0.7900;
-87.3000;0.0822;-0.7878;
-87.0000;0.0790;-0.8033;
-86.7000;0.0863;-0.7855;
-86.4000;0.0790;-0.7988;
-86.1000;0.0806;-0.7900;
-85.8000;0.0798;-0.7988;
-85.5000;0.0798;-0.7900;
-85.2000;0.0773;-0.7878;
-84.9000;0.0790;-0.7789;
-84.6000;0.0773;-0.7855;
-84.3000;0.0838;-0.7701;
-84.0000;0.0806;-0.7789;
-83.7000;0.0757;-0.7900;
-83.4000;0.0781;-0.7855;
-83.1000;0.0798;-0.7789;
-82.8000;0.0798;-0.7900;
-82.5000;0.0806;-0.7878;
-82.2000;0.0798;-0.7789;
-81.9000;0.0798;-0.7789;
-81.6000;0.0798;-0.7745;
-81.3000;0.0798;-0.7745;
-81.0000;0.0765;-0.7811;
-80.7000;0.0765;-0.7855;
-80.4000;0.0781;-0.7811;
-80.1000;0.0781;-0.7878;
-79.8000;0.0692;-0.8055;
-79.5000;0.0790;-0.7855;
-79.2000;0.0757;-0.7878;
-78.9000;0.0781;-0.7855;
-78.6000;0.0773;-0.7900;
-78.3000;0.0781;-0.7878;
-78.0000;0.0790;-0.7855;
-77.7000;0.0790;-0.7833;
-77.4000;0.0830;-0.7745;
-77.1000;0.0806;-0.7745;
-76.8000;0.0806;-0.7678;
-76.5000;0.0806;-0.7656;
-76.2000;0.0798;-0.7701;
-75.9000;0.0806;-0.7701;
-75.6000;0.0814;-0.7723;
-75.3000;0.0790;-0.7745;
-75.0000;0.0814;-0.7701;
-74.7000;0.0806;-0.7745;
-74.4000;0.0790;-0.7745;
-74.1000;0.0790;-0.7767;
-73.8000;0.0798;-0.7833;
-73.5000;0.0798;-0.7922;
-73.2000;0.0765;-0.7944;
-72.9000;0.0765;-0.7855;
-72.6000;0.0773;-0.7922;
-72.3000;0.0814;-0.7767;
-72.0000;0.0814;-0.7745;
-71.7000;0.0798;-0.7833;
-71.4000;0.0790;-0.7855;
-71.1000;0.0863;-0.7701;
-70.8000;0.0798;-0.7789;
-70.5000;0.0765;-0.7878;
-70.2000;0.0814;-0.7855;
-69.9000;0.0838;-0.7855;
-69.6000;0.0773;-0.7900;
-69.3000;0.0733;-0.7944;
-69.0000;0.0806;-0.7723;
-68.7000;0.0822;-0.7590;
-68.4000;0.0847;-0.7546;
-68.1000;0.0773;-0.7789;
-67.8000;0.0741;-0.7833;
-67.5000;0.0806;-0.7745;
-67.2000;0.0659;-0.8033;
-66.9000;0.0822;-0.7656;
-66.6000;0.0773;-0.7745;
-66.3000;0.0724;-0.7944;
-66.0000;0.0814;-0.7723;
-65.7000;0.0822;-0.7723;
-65.4000;0.0814;-0.7701;
-65.1000;0.0781;-0.7723;
-64.8000;0.0928;-0.7347;
-64.5000;0.0798;-0.7656;
-64.2000;0.0765;-0.7745;
-63.9000;0.0798;-0.7789;
-63.6000;0.0781;-0.7789;
-63.3000;0.0757;-0.7789;
-63.0000;0.0773;-0.7767;
-62.7000;0.0781;-0.7723;
-62.4000;0.0806;-0.7701;
-62.1000;0.0806;-0.7701;
-61.8000;0.0790;-0.7767;
-61.5000;0.0806;-0.7723;
-61.2000;0.0773;-0.7767;
-60.9000;0.0790;-0.7789;
-60.6000;0.0798;-0.7745;
-60.3000;0.0781;-0.7811;
-60.0000;0.0798;-0.7767;
-59.7000;0.0773;-0.7767;
-59.4000;0.0798;-0.7723;
-59.1000;0.0790;-0.7767;
-58.8000;0.0838;-0.7612;
-58.5000;0.0838;-0.7612;
-58.2000;0.0822;-0.7723;
-57.9000;0.0773;-0.7767;
-57.6000;0.0798;-0.7767;
-57.3000;0.0781;-0.7745;
-57.0000;0.0790;-0.7701;
-56.7000;0.0790;-0.7767;
-56.4000;0.0806;-0.7833;
-56.1000;0.0798;-0.7745;
-55.8000;0.0822;-0.7701;
-55.5000;0.0814;-0.7678;
-55.2000;0.0798;-0.7767;
-54.9000;0.0806;-0.7811;
-54.6000;0.0822;-0.7789;
-54.3000;0.0790;-0.7855;
-54.0000;0.0757;-0.7811;
-53.7000;0.0790;-0.7811;
-53.4000;0.0798;-0.7767;
-53.1000;0.0798;-0.7745;
-52.8000;0.0781;-0.7789;
-52.5000;0.0781;-0.7745;
-52.2000;0.0871;-0.7546;
-51.9000;0.0822;-0.7723;
-51.6000;0.0781;-0.7811;
-51.3000;0.0765;-0.7833;
-51.0000;0.0798;-0.7833;
-50.7000;0.0838;-0.7745;
-50.4000;0.0936;-0.7391;
-50.1000;0.0790;-0.7745;
-49.8000;0.0765;-0.7789;
-49.5000;0.0814;-0.7745;
-49.2000;0.0806;-0.7855;
-48.9000;0.0773;-0.7900;
-48.6000;0.0781;-0.7966;
-48.3000;0.0822;-0.7833;
-48.0000;0.0806;-0.7878;
-47.7000;0.0790;-0.7966;
-47.4000;0.0781;-0.8055;
-47.1000;0.0798;-0.8055;
-46.8000;0.0806;-0.8055;
-46.5000;0.0773;-0.8077;
-46.2000;0.0790;-0.8099;
-45.9000;0.0806;-0.8077;
-45.6000;0.0765;-0.8077;
-45.3000;0.0700;-0.8187;
-45.0000;0.0790;-0.8010;
-44.7000;0.0790;-0.7966;
-44.4000;0.0838;-0.7922;
-44.1000;0.0814;-0.7966;
-43.8000;0.0757;-0.8077;
-43.5000;0.0773;-0.8010;
-43.2000;0.0822;-0.7878;
-42.9000;0.0806;-0.7855;
-42.6000;0.0806;-0.7723;
-42.3000;0.0773;-0.7745;
-42.0000;0.0814;-0.7612;
-41.7000;0.0790;-0.7745;
-41.4000;0.0806;-0.7767;
-41.1000;0.0814;-0.7701;
-40.8000;0.0798;-0.7745;
-40.5000;0.0806;-0.7767;
-40.2000;0.0798;-0.7745;
-39.9000;0.0814;-0.7723;
-39.6000;0.0798;-0.7833;
-39.3000;0.0781;-0.7767;
-39.0000;0.0781;-0.7678;
-38.7000;0.0733;-0.7745;
-38.4000;0.0757;-0.7656;
-38.1000;0.0773;-0.7678;
-37.8000;0.0814;-0.7612;
-37.5000;0.0781;-0.7701;
-37.2000;0.0781;-0.7767;
-36.9000;0.0822;-0.7678;
-36.6000;0.0790;-0.7678;
-36.3000;0.0790;-0.7568;
-36.0000;0.0806;-0.7524;
-35.7000;0.0781;-0.7612;
-35.4000;0.0781;-0.7590;
-35.1000;0.0749;-0.7612;
-34.8000;0.0781;-0.7568;
-34.5000;0.0806;-0.7568;
-34.2000;0.0773;-0.7701;
-33.9000;0.0847;-0.7568;
-33.6000;0.0741;-0.7833;
-33.3000;0.0806;-0.7701;
-33.0000;0.0757;-0.7723;
-32.7000;0.0790;-0.7656;
-32.4000;0.0773;-0.7612;
-32.1000;0.0798;-0.7546;
-31.8000;0.0790;-0.7524;
-31.5000;0.0798;-0.7568;
-31.2000;0.0790;-0.7634;
-30.9000;0.0773;-0.7678;
-30.6000;0.0806;-0.7590;
-30.3000;0.0781;-0.7656;
-30.0000;0.0773;-0.7701;
-29.7000;0.0781;-0.7701;
-29.4000;0.0724;-0.7767;
-29.1000;0.0798;-0.7656;
-28.8000;0.0806;-0.7612;
-28.5000;0.0904;-0.7369;
-28.2000;0.0790;-0.7634;
-27.9000;0.0806;-0.7590;
-27.6000;0.0773;-0.7678;
-27.3000;0.0781;-0.7656;
-27.0000;0.0814;-0.7479;
-26.7000;0.0798;-0.7590;
-26.4000;0.0773;-0.7656;
-26.1000;0.0773;-0.7590;
-25.8000;0.0781;-0.7634;
-25.5000;0.0814;-0.7590;
-25.2000;0.0781;-0.7723;
-24.9000;0.0781;-0.7656;
-24.6000;0.0773;-0.7656;
-24.3000;0.0790;-0.7634;
-24.0000;0.0757;-0.7767;
-23.7000;0.0798;-0.7656;
-23.4000;0.0757;-0.7767;
-23.1000;0.0790;-0.7745;
-22.8000;0.0773;-0.7701;
-22.5000;0.0790;-0.7678;
-22.2000;0.0781;-0.7745;
-21.9000;0.0806;-0.7701;
-21.6000;0.0773;-0.7767;
-21.3000;0.0781;-0.7701;
-21.0000;0.0773;-0.7789;
-20.7000;0.0806;-0.7745;
-20.4000;0.0781;-0.7811;
-20.1000;0.0773;-0.7833;
-19.8000;0.0781;-0.7789;
-19.5000;0.0781;-0.7855;
-19.2000;0.0781;-0.7855;
-18.9000;0.0798;-0.7833;
-18.6000;0.0749;-0.8010;
-18.3000;0.0773;-0.7944;
-18.0000;0.0798;-0.7878;
-17.7000;0.0790;-0.7878;
-17.4000;0.0781;-0.7900;
-17.1000;0.0733;-0.7966;
-16.8000;0.0798;-0.7878;
-16.5000;0.0798;-0.7811;
-16.2000;0.0773;-0.7966;
-15.9000;0.0798;-0.7922;
-15.6000;0.0781;-0.7966;
-15.3000;0.0781;-0.7922;
-15.0000;0.0781;-0.7922;
-14.7000;0.0790;-0.7855;
-14.4000;0.0781;-0.7833;
-14.1000;0.0781;-0.7811;
-13.8000;0.0814;-0.7789;
-13.5000;0.0798;-0.7723;
-13.2000;0.0781;-0.7767;
-12.9000;0.0798;-0.7767;
-12.6000;0.0814;-0.7678;
-12.3000;0.0651;-0.8033;
-12.0000;0.0790;-0.7723;
-11.7000;0.0806;-0.7634;
-11.4000;0.0855;-0.7524;
-11.1000;0.0790;-0.7723;
-10.8000;0.0773;-0.7811;
-10.5000;0.0879;-0.7590;
-10.2000;0.0798;-0.7767;
-9.9000;0.0790;-0.7745;
-9.6000;0.0781;-0.7723;
-9.3000;0.0790;-0.7723;
-9.0000;0.0757;-0.7767;
-8.7000;0.0847;-0.7634;
-8.4000;0.0757;-0.7833;
-8.1000;0.0765;-0.7723;
-7.8000;0.0790;-0.7767;
-7.5000;0.0798;-0.7811;
-7.2000;0.0773;-0.7833;
-6.9000;0.0806;-0.7767;
-6.6000;0.0781;-0.7767;
-6.3000;0.0822;-0.7723;
-6.0000;0.0781;-0.7789;
-5.7000;0.0741;-0.7922;
-5.4000;0.0822;-0.7656;
-5.1000;0.0814;-0.7634;
-4.8000;0.0814;-0.7634;
-4.5000;0.0790;-0.7701;
-4.2000;0.0781;-0.7701;
-3.9000;0.0781;-0.7745;
-3.6000;0.0790;-0.7723;
-3.3000;0.0806;-0.7590;
-3.0000;0.0806;-0.7612;
-2.7000;0.0798;-0.7634;
-2.4000;0.0806;-0.7612;
-2.1000;0.0798;-0.7612;
-1.8000;0.0806;-0.7590;
-1.5000;0.0790;-0.7612;
-1.2000;0.0806;-0.7524;
-0.9000;0.0798;-0.7568;
-0.6000;0.0838;-0.7501;
-0.3000;0.0952;-0.7302;
0.0000;0.0952;-0.7302;
0.3000;0.0814;-0.7878;
0.6000;0.0798;-0.7878;
0.9000;0.0961;-0.7391;
1.2000;0.0830;-0.7745;
1.5000;0.0830;-0.7678;
1.8000;0.0904;-0.7391;
2.1000;0.0847;-0.7347;
2.4000;0.0863;-0.7236;
2.7000;0.0863;-0.7258;
3.0000;0.0871;-0.7214;
3.3000;0.0863;-0.7214;
3.6000;0.0847;-0.7170;
3.9000;0.0863;-0.7059;
4.2000;0.0855;-0.7059;
4.5000;0.0855;-0.6904;
4.8000;0.0830;-0.6904;
5.1000;0.0928;-0.6638;
5.4000;0.0830;-0.6882;
5.7000;0.0814;-0.6948;
6.0000;0.0863;-0.6948;
6.3000;0.0855;-0.7015;
6.6000;0.0838;-0.7081;
6.9000;0.0863;-0.7059;
7.2000;0.0855;-0.7059;
7.5000;0.0993;-0.6616;
7.8000;0.0895;-0.6727;
8.1000;0.0863;-0.6793;
8.4000;0.0871;-0.6749;
8.7000;0.0863;-0.6793;
9.0000;0.0879;-0.6838;
9.3000;0.0887;-0.6793;
9.6000;0.0822;-0.6926;
9.9000;0.0863;-0.6860;
10.2000;0.0855;-0.6838;
10.5000;0.0871;-0.6815;
10.8000;0.0863;-0.6793;
11.1000;0.0822;-0.6793;
11.4000;0.0863;-0.6771;
11.7000;0.0920;-0.6638;
12.0000;0.0887;-0.6749;
12.3000;0.0855;-0.6705;
12.6000;0.0912;-0.6616;
12.9000;0.0895;-0.6616;
13.2000;0.0830;-0.6860;
13.5000;0.0781;-0.6882;
13.8000;0.0879;-0.6705;
14.1000;0.0863;-0.6793;
14.4000;0.0887;-0.6705;
14.7000;0.0904;-0.6594;
15.0000;0.0806;-0.6815;
15.3000;0.0879;-0.6749;
15.6000;0.0871;-0.6727;
15.9000;0.0855;-0.6771;
16.2000;0.0790;-0.6882;
16.5000;0.0847;-0.6793;
16.8000;0.0733;-0.6992;
17.1000;0.0863;-0.6705;
17.4000;0.0847;-0.6683;
17.7000;0.0904;-0.6528;
18.0000;0.0912;-0.6528;
18.3000;0.0871;-0.6683;
18.6000;0.0847;-0.6705;
18.9000;0.0895;-0.6616;
19.2000;0.0847;-0.6705;
19.5000;0.0847;-0.6661;
19.8000;0.0895;-0.6528;
20.1000;0.0863;-0.6661;
20.4000;0.0920;-0.6572;
20.7000;0.0871;-0.6661;
21.0000;0.0847;-0.6705;
21.3000;0.0863;-0.6683;
21.6000;0.0895;-0.6638;
21.9000;0.0847;-0.6749;
22.2000;0.0887;-0.6705;
22.5000;0.0879;-0.6749;
22.8000;0.0838;-0.6838;
23.1000;0.0887;-0.6661;
23.4000;0.0904;-0.6727;
23.7000;0.0814;-0.6882;
24.0000;0.0879;-0.6727;
24.3000;0.0871;-0.6705;
24.6000;0.0879;-0.6661;
24.9000;0.0847;-0.6661;
25.2000;0.0871;-0.6638;
25.5000;0.0920;-0.6550;
25.8000;0.0863;-0.6727;
26.1000;0.0871;-0.6771;
26.4000;0.0871;-0.6771;
26.7000;0.0887;-0.6771;
27.0000;0.0879;-0.6793;
27.3000;0.0806;-0.7015;
27.6000;0.0887;-0.6815;
27.9000;0.0895;-0.6727;
28.2000;0.0904;-0.6661;
28.5000;0.0863;-0.6661;
28.8000;0.0830;-0.6661;
29.1000;0.0871;-0.6528;
29.4000;0.0871;-0.6550;
29.7000;0.0855;-0.6616;
30.0000;0.0887;-0.6550;
30.3000;0.0879;-0.6528;
30.6000;0.0887;-0.6417;
30.9000;0.0855;-0.6506;
31.2000;0.0863;-0.6506;
31.5000;0.0855;-0.6506;
31.8000;0.0912;-0.6417;
32.1000;0.0887;-0.6506;
32.4000;0.0895;-0.6594;
32.7000;0.0961;-0.6484;
33.0000;0.0904;-0.6594;
33.3000;0.0895;-0.6616;
33.6000;0.0904;-0.6550;
33.9000;0.0904;-0.6506;
34.2000;0.0871;-0.6638;
34.5000;0.0879;-0.6616;
34.8000;0.0871;-0.6661;
35.1000;0.0871;-0.6727;
35.4000;0.0879;-0.6661;
35.7000;0.0863;-0.6661;
36.0000;0.0879;-0.6572;
36.3000;0.0855;-0.6638;
36.6000;0.0871;-0.6572;
36.9000;0.0871;-0.6550;
37.2000;0.0863;-0.6661;
37.5000;0.0863;-0.6616;
37.8000;0.0847;-0.6594;
38.1000;0.0847;-0.6616;
38.4000;0.0855;-0.6683;
38.7000;0.0863;-0.6661;
39.0000;0.0920;-0.6572;
39.3000;0.0871;-0.6705;
39.6000;0.0879;-0.6683;
39.9000;0.1034;-0.6240;
40.2000;0.0879;-0.6594;
40.5000;0.0895;-0.6594;
40.8000;0.0944;-0.6484;
41.1000;0.0871;-0.6705;
41.4000;0.0847;-0.6771;
41.7000;0.0847;-0.6749;
42.0000;0.0895;-0.6661;
42.3000;0.0863;-0.6705;
42.6000;0.0863;-0.6838;
42.9000;0.0936;-0.6572;
43.2000;0.0887;-0.6705;
43.5000;0.0879;-0.6705;
43.8000;0.0879;-0.6771;
44.1000;0.0887;-0.6771;
44.4000;0.0912;-0.6815;
44.7000;0.0863;-0.6904;
45.0000;0.0871;-0.6904;
45.3000;0.0879;-0.6860;
45.6000;0.0936;-0.6661;
45.9000;0.0895;-0.6727;
46.2000;0.0806;-0.7015;
46.5000;0.0895;-0.6882;
46.8000;0.0912;-0.6771;
47.1000;0.0847;-0.6926;
47.4000;0.0830;-0.6926;
47.7000;0.0879;-0.6793;
48.0000;0.0912;-0.6749;
48.3000;0.0895;-0.6749;
48.6000;0.0887;-0.6838;
48.9000;0.0830;-0.6970;
49.2000;0.0904;-0.6838;
49.5000;0.0895;-0.6838;
49.8000;0.0887;-0.6683;
50.1000;0.0887;-0.6616;
50.4000;0.0920;-0.6572;
50.7000;0.0977;-0.6506;
51.0000;0.0879;-0.6860;
51.3000;0.0895;-0.6838;
51.6000;0.0863;-0.6882;
51.9000;0.0895;-0.6793;
52.2000;0.0863;-0.6815;
52.5000;0.0855;-0.6838;
52.8000;0.0871;-0.6749;
53.1000;0.0920;-0.6793;
53.4000;0.0912;-0.6838;
53.7000;0.0871;-0.6838;
54.0000;0.0863;-0.6771;
54.3000;0.0887;-0.6683;
54.6000;0.0887;-0.6749;
54.9000;0.0871;-0.6771;
55.2000;0.0838;-0.6860;
55.5000;0.0912;-0.6705;
55.8000;0.0855;-0.6838;
56.1000;0.0863;-0.6793;
56.4000;0.0838;-0.6926;
56.7000;0.0879;-0.6882;
57.0000;0.0855;-0.6882;
57.3000;0.0879;-0.6815;
57.6000;0.0887;-0.6815;
57.9000;0.0822;-0.7059;
58.2000;0.0895;-0.6948;
58.5000;0.0887;-0.6970;
58.8000;0.0887;-0.6904;
59.1000;0.0855;-0.6948;
59.4000;0.0879;-0.6838;
59.7000;0.0887;-0.6727;
60.0000;0.0871;-0.6793;
60.3000;0.0912;-0.6749;
60.6000;0.0895;-0.6683;
60.9000;0.0871;-0.6771;
61.2000;0.0879;-0.6727;
61.5000;0.0871;-0.6661;
61.8000;0.0887;-0.6572;
62.1000;0.0879;-0.6550;
62.4000;0.0895;-0.6484;
62.7000;0.0838;-0.6616;
63.0000;0.0863;-0.6550;
63.3000;0.0879;-0.6616;
63.6000;0.0895;-0.6572;
63.9000;0.0814;-0.6749;
64.2000;0.0863;-0.6683;
64.5000;0.0985;-0.6373;
64.8000;0.0838;-0.6727;
65.1000;0.0838;-0.6705;
65.4000;0.0855;-0.6683;
65.7000;0.0969;-0.6439;
66.0000;0.0879;-0.6616;
66.3000;0.0879;-0.6661;
66.6000;0.0806;-0.6882;
66.9000;0.0879;-0.6727;
67.2000;0.0847;-0.6838;
67.5000;0.0879;-0.6749;
67.8000;0.0847;-0.6815;
68.1000;0.0871;-0.6705;
68.4000;0.0871;-0.6638;
68.7000;0.0879;-0.6683;
69.0000;0.0871;-0.6683;
69.3000;0.0871;-0.6705;
69.6000;0.0822;-0.6838;
69.9000;0.0863;-0.6705;
70.2000;0.0871;-0.6727;
70.5000;0.0977;-0.6484;
70.8000;0.0895;-0.6638;
71.1000;0.0879;-0.6705;
71.4000;0.0798;-0.7015;
71.7000;0.0871;-0.6771;
72.0000;0.0847;-0.6882;
72.3000;0.0847;-0.6793;
72.6000;0.0879;-0.6771;
72.9000;0.0847;-0.6838;
73.2000;0.0879;-0.6838;
73.5000;0.0969;-0.6638;
73.8000;0.0871;-0.6948;
74.1000;0.0863;-0.6992;
74.4000;0.0887;-0.6970;
74.7000;0.0895;-0.6904;
75.0000;0.0904;-0.6838;
75.3000;0.0847;-0.6970;
75.6000;0.0887;-0.6860;
75.9000;0.0855;-0.6860;
76.2000;0.0847;-0.6904;
76.5000;0.0863;-0.6882;
76.8000;0.0871;-0.6793;
77.1000;0.0895;-0.6771;
77.4000;0.0814;-0.7015;
77.7000;0.0879;-0.6948;
78.0000;0.0879;-0.6970;
78.3000;0.0863;-0.6992;
78.6000;0.0904;-0.6926;
78.9000;0.0920;-0.6860;
79.2000;0.0871;-0.6904;
79.5000;0.0895;-0.6815;
79.8000;0.0871;-0.6860;
80.1000;0.0895;-0.6815;
80.4000;0.0887;-0.6815;
80.7000;0.0904;-0.6771;
81.0000;0.0863;-0.6904;
81.3000;0.0863;-0.6904;
81.6000;0.0863;-0.6970;
81.9000;0.0863;-0.6904;
82.2000;0.0895;-0.6727;
82.5000;0.0887;-0.6705;
82.8000;0.0855;-0.6771;
83.1000;0.0879;-0.6727;
83.4000;0.0879;-0.6793;
83.7000;0.0895;-0.6793;
84.0000;0.0887;-0.6882;
84.3000;0.0879;-0.6948;
84.6000;0.0879;-0.6904;
84.9000;0.0871;-0.6771;
85.2000;0.0879;-0.6815;
85.5000;0.0863;-0.6904;
85.8000;0.0863;-0.6948;
86.1000;0.0871;-0.6926;
86.4000;0.0822;-0.6992;
86.7000;0.0879;-0.6838;
87.0000;0.0871;-0.6860;
87.3000;0.0806;-0.7015;
87.6000;0.0838;-0.6838;
87.9000;0.0871;-0.6661;
88.2000;0.0863;-0.6661;
88.5000;0.0895;-0.6661;
88.8000;0.0904;-0.6727;
89.1000;0.0879;-0.6749;
89.4000;0.0879;-0.6683;
89.7000;0.0871;-0.6771;
90.0000;0.0895;-0.6705;
90.3000;0.0904;-0.6815;
90.6000;0.0879;-0.6815;
90.9000;0.0871;-0.6948;
91.2000;0.0879;-0.6882;
91.5000;0.0879;-0.6838;
91.8000;0.0887;-0.6838;
92.1000;0.0863;-0.6904;
92.4000;0.0879;-0.6838;
92.7000;0.0879;-0.6838;
93.0000;0.0887;-0.6815;
93.3000;0.0847;-0.6882;
93.6000;0.0879;-0.6793;
93.9000;0.0863;-0.6771;
94.2000;0.0887;-0.6793;
94.5000;0.0936;-0.6594;
94.8000;0.0863;-0.6860;
95.1000;0.0879;-0.6838;
95.4000;0.0871;-0.6860;
95.7000;0.0871;-0.6926;
96.0000;0.0863;-0.6970;
96.3000;0.0855;-0.6926;
96.6000;0.0904;-0.6793;
96.9000;0.0879;-0.6815;
97.2000;0.0838;-0.6815;
97.5000;0.0952;-0.6572;
97.8000;0.0871;-0.6749;
98.1000;0.0871;-0.6550;
98.4000;0.0887;-0.6506;
98.7000;0.0879;-0.6484;
99.0000;0.0895;-0.6395;
99.3000;0.0814;-0.6661;
99.6000;0.0863;-0.6572;
99.9000;0.0871;-0.6683;
100.2000;0.0871;-0.6616;
100.5000;0.0871;-0.6638;
100.8000;0.0871;-0.6683;
101.1000;0.0863;-0.6727;
101.4000;0.0895;-0.6705;
101.7000;0.0879;-0.6815;
102.0000;0.0871;-0.6882;
102.3000;0.0904;-0.6793;
102.6000;0.0887;-0.6904;
102.9000;0.0904;-0.6838;
103.2000;0.0887;-0.6860;
103.5000;0.0847;-0.6970;
103.8000;0.0895;-0.6882;
104.1000;0.0879;-0.6815;
104.4000;0.0887;-0.6727;
104.7000;0.0855;-0.6771;
105.0000;0.0871;-0.6661;
105.3000;0.0887;-0.6683;
105.6000;0.0814;-0.6838;
105.9000;0.0871;-0.6727;
106.2000;0.0863;-0.6749;
106.5000;0.0871;-0.6771;
106.8000;0.0863;-0.6815;
107.1000;0.0879;-0.6749;
107.4000;0.0847;-0.6793;
107.7000;0.0887;-0.6749;
108.0000;0.0887;-0.6727;
108.3000;0.0871;-0.6749;
108.6000;0.0871;-0.6793;
108.9000;0.0871;-0.6860;
109.2000;0.0887;-0.6860;
109.5000;0.0863;-0.6904;
109.8000;0.0822;-0.6948;
110.1000;0.0887;-0.6683;
110.4000;0.0887;-0.6638;
110.7000;0.0871;-0.6683;
111.0000;0.0855;-0.6771;
111.3000;0.0847;-0.6815;
111.6000;0.0855;-0.6882;
111.9000;0.0912;-0.6771;
112.2000;0.0863;-0.6838;
112.5000;0.0871;-0.6749;
112.8000;0.0887;-0.6683;
113.1000;0.0887;-0.6683;
113.4000;0.0904;-0.6528;
113.7000;0.0887;-0.6550;
114.0000;0.0879;-0.6528;
114.3000;0.0863;-0.6550;
114.6000;0.0871;-0.6572;
114.9000;0.0871;-0.6550;
115.2000;0.1091;-0.5975;
115.5000;0.0863;-0.6484;
115.8000;0.0855;-0.6484;
116.1000;0.0855;-0.6528;
116.4000;0.0863;-0.6572;
116.7000;0.0961;-0.6373;
117.0000;0.0887;-0.6506;
117.3000;0.0871;-0.6572;
117.6000;0.0863;-0.6572;
117.9000;0.0855;-0.6572;
118.2000;0.0781;-0.6727;
118.5000;0.0904;-0.6461;
118.8000;0.0855;-0.6616;
119.1000;0.0887;-0.6572;
119.4000;0.0847;-0.6594;
119.7000;0.0879;-0.6484;
120.0000;0.0871;-0.6572;
120.3000;0.0887;-0.6550;
120.6000;0.0985;-0.6373;
120.9000;0.0847;-0.6727;
121.2000;0.0944;-0.6461;
121.5000;0.0912;-0.6550;
121.8000;0.0936;-0.6461;
122.1000;0.0806;-0.6771;
122.4000;0.0887;-0.6550;
122.7000;0.0855;-0.6594;
123.0000;0.0814;-0.6749;
123.3000;0.0847;-0.6749;
123.6000;0.0920;-0.6572;
123.9000;0.0895;-0.6638;
124.2000;0.0895;-0.6572;
124.5000;0.0822;-0.6727;
124.8000;0.0887;-0.6594;
125.1000;0.0879;-0.6661;
125.4000;0.0879;-0.6705;
125.7000;0.0863;-0.6771;
126.0000;0.0871;-0.6838;
126.3000;0.0871;-0.6860;
126.6000;0.0814;-0.6970;
126.9000;0.0879;-0.6727;
127.2000;0.0904;-0.6572;
127.5000;0.0895;-0.6638;
127.8000;0.0871;-0.6683;
128.1000;0.0920;-0.6638;
128.4000;0.0895;-0.6661;
128.7000;0.0838;-0.6771;
129.0000;0.0879;-0.6661;
129.3000;0.0912;-0.6572;
129.6000;0.0887;-0.6594;
129.9000;0.0855;-0.6661;
130.2000;0.0871;-0.6638;
130.5000;0.0904;-0.6506;
130.8000;0.0887;-0.6528;
131.1000;0.0887;-0.6550;
131.4000;0.0920;-0.6506;
131.7000;0.0895;-0.6616;
132.0000;0.0879;-0.6616;
132.3000;0.0895;-0.6572;
132.6000;0.0936;-0.6439;
132.9000;0.0952;-0.6439;
133.2000;0.0895;-0.6616;
133.5000;0.0887;-0.6616;
133.8000;0.0895;-0.6638;
134.1000;0.0847;-0.6771;
134.4000;0.0887;-0.6683;
134.7000;0.0904;-0.6594;
135.0000;0.0904;-0.6638;
135.3000;0.0871;-0.6771;
135.6000;0.0773;-0.6970;
135.9000;0.0879;-0.6683;
136.2000;0.0887;-0.6616;
136.5000;0.0912;-0.6506;
136.8000;0.0895;-0.6550;
137.1000;0.0887;-0.6683;
137.4000;0.0912;-0.6638;
137.7000;0.0936;-0.6616;
138.0000;0.0871;-0.6771;
138.3000;0.0855;-0.6793;
138.6000;0.0871;-0.6683;
138.9000;0.0879;-0.6661;
139.2000;0.0871;-0.6705;
139.5000;0.0863;-0.6661;
139.8000;0.0920;-0.6528;
140.1000;0.0904;-0.6550;
140.4000;0.0895;-0.6550;
140.7000;0.0895;-0.6439;
141.0000;0.0879;-0.6461;
141.3000;0.0871;-0.6484;
141.6000;0.0895;-0.6528;
141.9000;0.0871;-0.6528;
142.2000;0.0871;-0.6506;
142.5000;0.0879;-0.6506;
142.8000;0.0920;-0.6373;
143.1000;0.0895;-0.6417;
143.4000;0.0871;-0.6439;
143.7000;0.0855;-0.6528;
144.0000;0.0855;-0.6550;
144.3000;0.0863;-0.6572;
144.6000;0.0879;-0.6506;
144.9000;0.0830;-0.6661;
145.2000;0.0887;-0.6506;
145.5000;0.0904;-0.6484;
145.8000;0.0887;-0.6638;
146.1000;0.0936;-0.6550;
146.4000;0.0871;-0.6683;
146.7000;0.0895;-0.6638;
147.0000;0.0912;-0.6594;
147.3000;0.0895;-0.6638;
147.6000;0.0871;-0.6616;
147.9000;0.0863;-0.6683;
148.2000;0.0871;-0.6661;
148.5000;0.0871;-0.6638;
148.8000;0.0887;-0.6572;
149.1000;0.0871;-0.6683;
149.4000;0.0863;-0.6638;
149.7000;0.0887;-0.6506;
150.0000;0.0863;-0.6550;
150.3000;0.0863;-0.6550;
150.6000;0.0863;-0.6572;
150.9000;0.0871;-0.6638;
151.2000;0.0871;-0.6616;
151.5000;0.0871;-0.6528;
151.8000;0.0879;-0.6528;
152.1000;0.0863;-0.6461;
152.4000;0.0887;-0.6461;
152.7000;0.0879;-0.6439;
153.0000;0.0936;-0.6395;
153.3000;0.0895;-0.6594;
153.6000;0.0871;-0.6594;
153.9000;0.0895;-0.6528;
154.2000;0.0855;-0.6683;
154.5000;0.0928;-0.6506;
154.8000;0.0871;-0.6572;
155.1000;0.0936;-0.6484;
155.4000;0.0920;-0.6506;
155.7000;0.0871;-0.6771;
156.0000;0.0895;-0.6771;
156.3000;0.0855;-0.6793;
156.6000;0.1009;-0.6329;
156.9000;0.0887;-0.6506;
157.2000;0.1001;-0.6174;
157.5000;0.0904;-0.6373;
157.8000;0.0863;-0.6528;
158.1000;0.0871;-0.6484;
158.4000;0.0871;-0.6439;
158.7000;0.0871;-0.6461;
159.0000;0.0879;-0.6417;
159.3000;0.0904;-0.6307;
159.6000;0.0798;-0.6616;
159.9000;0.0895;-0.6461;
160.2000;0.0863;-0.6528;
160.5000;0.0887;-0.6439;
160.8000;0.0855;-0.6528;
161.1000;0.0887;-0.6528;
161.4000;0.0847;-0.6594;
161.7000;0.0871;-0.6594;
162.0000;0.0887;-0.6484;
162.3000;0.0879;-0.6528;
162.6000;0.0871;-0.6572;
162.9000;0.0838;-0.6594;
163.2000;0.0920;-0.6461;
163.5000;0.0863;-0.6594;
163.8000;0.0887;-0.6550;
164.1000;0.0863;-0.6638;
164.4000;0.0904;-0.6528;
164.7000;0.0887;-0.6506;
165.0000;0.0879;-0.6484;
165.3000;0.0895;-0.6484;
165.6000;0.0895;-0.6506;
165.9000;0.0887;-0.6572;
166.2000;0.0855;-0.6638;
166.5000;0.0879;-0.6683;
166.8000;0.0855;-0.6793;
167.1000;0.0904;-0.6705;
167.4000;0.0863;-0.6638;
167.7000;0.0895;-0.6550;
168.0000;0.0855;-0.6683;
168.3000;0.0928;-0.6594;
168.6000;0.0855;-0.6727;
168.9000;0.0912;-0.6572;
169.2000;0.0904;-0.6506;
169.5000;0.0814;-0.6727;
169.8000;0.0855;-0.6661;
170.1000;0.0879;-0.6594;
170.4000;0.0895;-0.6528;
170.7000;0.0895;-0.6484;
171.0000;0.0871;-0.6550;
171.3000;0.0904;-0.6373;
171.6000;0.0904;-0.6417;
171.9000;0.0879;-0.6506;
172.2000;0.0895;-0.6506;
172.5000;0.0879;-0.6528;
172.8000;0.0887;-0.6528;
173.1000;0.0895;-0.6550;
173.4000;0.0920;-0.6506;
173.7000;0.0928;-0.6528;
174.0000;0.0895;-0.6683;
174.3000;0.0904;-0.6550;
174.6000;0.0879;-0.6661;
174.9000;0.0895;-0.6683;
175.2000;0.0920;-0.6594;
175.5000;0.0879;-0.6683;
175.8000;0.0920;-0.6550;
176.1000;0.0879;-0.6528;
176.4000;0.0895;-0.6484;
176.7000;0.0895;-0.6550;
177.0000;0.0847;-0.6705;
177.3000;0.0879;-0.6638;
177.6000;0.0969;-0.6417;
177.9000;0.0912;-0.6572;
178.2000;0.0879;-0.6616;
178.5000;0.0847;-0.6771;
178.8000;0.0920;-0.6661;
179.1000;0.0895;-0.6661;
179.4000;0.0912;-0.6550;
179.7000;0.0928;-0.6572;
180.0000;0.0798;-0.6860;
180.3000;0.0855;-0.6705;
180.6000;0.0847;-0.6749;
180.9000;0.0855;-0.6793;
181.2000;0.0757;-0.6948;
181.5000;0.0863;-0.6727;
181.8000;0.0904;-0.6616;
182.1000;0.0863;-0.6661;
182.4000;0.0879;-0.6661;
182.7000;0.0887;-0.6683;
183.0000;0.0838;-0.6793;
183.3000;0.0895;-0.6550;
183.6000;0.0814;-0.6727;
183.9000;0.0887;-0.6506;
184.2000;0.0879;-0.6506;
184.5000;0.0863;-0.6550;
184.8000;0.0904;-0.6461;
185.1000;0.0887;-0.6616;
185.4000;0.0887;-0.6572;
185.7000;0.0879;-0.6572;
186.0000;0.0871;-0.6594;
186.3000;0.0887;-0.6528;
186.6000;0.0863;-0.6594;
186.9000;0.0879;-0.6550;
187.2000;0.0895;-0.6550;
187.5000;0.0863;-0.6550;
187.8000;0.0871;-0.6528;
188.1000;0.0847;-0.6616;
188.4000;0.0781;-0.6771;
188.7000;0.0863;-0.6528;
189.0000;0.0879;-0.6572;
189.3000;0.0887;-0.6616;
189.6000;0.0871;-0.6705;
189.9000;0.0879;-0.6616;
190.2000;0.0879;-0.6638;
190.5000;0.0895;-0.6638;
190.8000;0.0871;-0.6705;
191.1000;0.0879;-0.6661;
191.4000;0.0977;-0.6439;
191.7000;0.0887;-0.6705;
192.0000;0.0895;-0.6638;
192.3000;0.0871;-0.6683;
192.6000;0.0847;-0.6705;
192.9000;0.0879;-0.6638;
193.2000;0.0855;-0.6661;
193.5000;0.0847;-0.6616;
193.8000;0.0904;-0.6550;
194.1000;0.0879;-0.6638;
194.4000;0.0904;-0.6550;
194.7000;0.0977;-0.6395;
195.0000;0.0895;-0.6594;
195.3000;0.0904;-0.6572;
195.6000;0.0838;-0.6705;
195.9000;0.0863;-0.6683;
196.2000;0.0879;-0.6616;
196.5000;0.0871;-0.6638;
196.8000;0.0879;-0.6594;
197.1000;0.0863;-0.6661;
197.4000;0.0871;-0.6594;
197.7000;0.0863;-0.6594;
198.0000;0.0895;-0.6528;
198.3000;0.0904;-0.6484;
198.6000;0.0871;-0.6594;
198.9000;0.0871;-0.6616;
199.2000;0.0855;-0.6661;
199.5000;0.0887;-0.6506;
199.8000;0.0895;-0.6550;
200.1000;0.0798;-0.6815;
200.4000;0.0895;-0.6594;
200.7000;0.0855;-0.6705;
201.0000;0.0863;-0.6638;
201.3000;0.0871;-0.6661;
201.6000;0.0863;-0.6638;
201.9000;0.0879;-0.6638;
202.2000;0.0879;-0.6616;
202.5000;0.0977;-0.6351;
202.8000;0.0822;-0.6705;
203.1000;0.0838;-0.6749;
203.4000;0.0879;-0.6616;
203.7000;0.0887;-0.6572;
204.0000;0.0749;-0.6815;
204.3000;0.0879;-0.6439;
204.6000;0.0920;-0.6417;
204.9000;0.0871;-0.6506;
205.2000;0.0879;-0.6439;
205.5000;0.0871;-0.6550;
205.8000;0.0879;-0.6616;
206.1000;0.0887;-0.6638;
206.4000;0.0863;-0.6594;
206.7000;0.0863;-0.6616;
207.0000;0.0863;-0.6683;
207.3000;0.0879;-0.6705;
207.6000;0.0887;-0.6705;
207.9000;0.0879;-0.6749;
208.2000;0.0904;-0.6727;
208.5000;0.0879;-0.6860;
208.8000;0.0847;-0.6948;
209.1000;0.0879;-0.6815;
209.4000;0.0871;-0.6838;
209.7000;0.0912;-0.6793;
210.0000;0.0879;-0.6904;
210.3000;0.0871;-0.6904;
210.6000;0.0863;-0.6838;
210.9000;0.0887;-0.6771;
211.2000;0.0871;-0.6815;
211.5000;0.0887;-0.6705;
211.8000;0.0847;-0.6838;
212.1000;0.0871;-0.6860;
212.4000;0.0879;-0.6793;
212.7000;0.0895;-0.6771;
213.0000;0.0871;-0.6749;
213.3000;0.0895;-0.6705;
213.6000;0.0912;-0.6661;
213.9000;0.0895;-0.6638;
214.2000;0.0879;-0.6749;
214.5000;0.0961;-0.6572;
214.8000;0.0887;-0.6705;
215.1000;0.0871;-0.6638;
215.4000;0.0887;-0.6594;
215.7000;0.0871;-0.6683;
216.0000;0.0871;-0.6705;
216.3000;0.0871;-0.6683;
216.6000;0.0879;-0.6616;
216.9000;0.0830;-0.6749;
217.2000;0.0879;-0.6705;
217.5000;0.0814;-0.6904;
217.8000;0.0863;-0.6771;
218.1000;0.0887;-0.6661;
218.4000;0.0871;-0.6727;
218.7000;0.0781;-0.7037;
219.0000;0.0855;-0.6904;
219.3000;0.0863;-0.6926;
219.6000;0.0879;-0.6926;
219.9000;0.0887;-0.6926;
220.2000;0.0895;-0.6904;
220.5000;0.0895;-0.6948;
220.8000;0.0895;-0.6904;
221.1000;0.0871;-0.6948;
221.4000;0.0879;-0.6838;
221.7000;0.0871;-0.6793;
222.0000;0.0879;-0.6727;
222.3000;0.0879;-0.6727;
222.6000;0.0985;-0.6395;
222.9000;0.0879;-0.6484;
223.2000;0.0887;-0.6417;
223.5000;0.0871;-0.6461;
223.8000;0.0895;-0.6439;
224.1000;0.0879;-0.6484;
224.4000;0.0863;-0.6550;
224.7000;0.0871;-0.6506;
225.0000;0.0887;-0.6417;
225.3000;0.0887;-0.6395;
225.6000;0.0863;-0.6373;
225.9000;0.0928;-0.6351;
226.2000;0.0879;-0.6506;
226.5000;0.0879;-0.6594;
226.8000;0.0863;-0.6572;
227.1000;0.0879;-0.6528;
227.4000;0.0879;-0.6572;
227.7000;0.0879;-0.6661;
228.0000;0.0871;-0.6572;
228.3000;0.0928;-0.6417;
228.6000;0.0895;-0.6439;
228.9000;0.0879;-0.6484;
229.2000;0.0879;-0.6461;
229.5000;0.0863;-0.6528;
229.8000;0.0904;-0.6461;
230.1000;0.0871;-0.6373;
230.4000;0.0895;-0.6417;
230.7000;0.0863;-0.6506;
231.0000;0.0871;-0.6550;
231.3000;0.0871;-0.6572;
231.6000;0.0879;-0.6572;
231.9000;0.0855;-0.6705;
232.2000;0.0871;-0.6572;
232.5000;0.0879;-0.6572;
232.8000;0.0887;-0.6484;
233.1000;0.0871;-0.6594;
233.4000;0.0887;-0.6528;
233.7000;0.0871;-0.6616;
234.0000;0.0879;-0.6550;
234.3000;0.0895;-0.6572;
234.6000;0.0871;-0.6616;
234.9000;0.0863;-0.6661;
235.2000;0.0912;-0.6594;
235.5000;0.0977;-0.6373;
235.8000;0.0871;-0.6528;
236.1000;0.0847;-0.6572;
236.4000;0.0847;-0.6594;
236.7000;0.0895;-0.6506;
237.0000;0.0871;-0.6484;
237.3000;0.0879;-0.6484;
237.6000;0.0920;-0.6373;
237.9000;0.0895;-0.6506;
238.2000;0.0887;-0.6484;
238.5000;0.0904;-0.6395;
238.8000;0.0887;-0.6395;
239.1000;0.0887;-0.6506;
239.4000;0.0895;-0.6506;
239.7000;0.0904;-0.6484;
240.0000;0.0887;-0.6594;
240.3000;0.0814;-0.6683;
240.6000;0.0871;-0.6439;
240.9000;0.0985;-0.6196;
241.2000;0.0871;-0.6528;
241.5000;0.0863;-0.6461;
241.8000;0.0879;-0.6417;
242.1000;0.0814;-0.6616;
242.4000;0.0879;-0.6528;
242.7000;0.0895;-0.6484;
243.0000;0.0871;-0.6550;
243.3000;0.0887;-0.6594;
243.6000;0.0887;-0.6594;
243.9000;0.0798;-0.6661;
244.2000;0.0887;-0.6506;
244.5000;0.0879;-0.6461;
244.8000;0.0912;-0.6351;
245.1000;0.0895;-0.6461;
245.4000;0.0871;-0.6461;
245.7000;0.0879;-0.6395;
246.0000;0.0904;-0.6329;
246.3000;0.0895;-0.6329;
246.6000;0.0895;-0.6262;
246.9000;0.0912;-0.6307;
247.2000;0.0765;-0.6638;
247.5000;0.0838;-0.6484;
247.8000;0.0830;-0.6550;
248.1000;0.0871;-0.6484;
248.4000;0.0944;-0.6329;
248.7000;0.0879;-0.6439;
249.0000;0.0879;-0.6461;
249.3000;0.0879;-0.6395;
249.6000;0.0863;-0.6439;
249.9000;0.0887;-0.6461;
250.2000;0.0879;-0.6461;
250.5000;0.0969;-0.6329;
250.8000;0.0871;-0.6616;
251.1000;0.0863;-0.6594;
251.4000;0.0871;-0.6550;
251.7000;0.0838;-0.6661;
252.0000;0.0920;-0.6484;
252.3000;0.0977;-0.6439;
252.6000;0.0871;-0.6749;
252.9000;0.0887;-0.6727;
253.2000;0.0961;-0.6484;
253.5000;0.0879;-0.6638;
253.8000;0.1001;-0.6395;
254.1000;0.0879;-0.6705;
254.4000;0.0879;-0.6705;
254.7000;0.0879;-0.6661;
255.0000;0.0838;-0.6793;
255.3000;0.0879;-0.6705;
255.6000;0.0887;-0.6727;
255.9000;0.0863;-0.6860;
256.2000;0.0871;-0.6793;
256.5000;0.0895;-0.6749;
256.8000;0.0879;-0.6793;
257.1000;0.0887;-0.6793;
257.4000;0.0904;-0.6727;
257.7000;0.0879;-0.6815;
258.0000;0.0863;-0.6926;
258.3000;0.0887;-0.6882;
258.6000;0.0969;-0.6616;
258.9000;0.0904;-0.6771;
259.2000;0.0920;-0.6727;
259.5000;0.0912;-0.6705;
259.8000;0.0855;-0.6793;
260.1000;0.0895;-0.6616;
260.4000;0.0904;-0.6550;
260.7000;0.0879;-0.6616;
261.0000;0.0871;-0.6683;
261.3000;0.0871;-0.6705;
261.6000;0.0863;-0.6838;
261.9000;0.0871;-0.6793;
262.2000;0.0838;-0.6838;
262.5000;0.0838;-0.6793;
262.8000;0.0904;-0.6683;
263.1000;0.0871;-0.6815;
263.4000;0.0863;-0.6904;
263.7000;0.0879;-0.6815;
264.0000;0.0863;-0.6860;
264.3000;0.0879;-0.6793;
264.6000;0.0871;-0.6793;
264.9000;0.0936;-0.6594;
265.2000;0.0871;-0.6661;
265.5000;0.0855;-0.6572;
265.8000;0.0904;-0.6461;
266.1000;0.0830;-0.6616;
266.4000;0.0879;-0.6638;
266.7000;0.0961;-0.6395;
267.0000;0.0887;-0.6616;
267.3000;0.0855;-0.6749;
267.6000;0.0985;-0.6461;
267.9000;0.0838;-0.6727;
268.2000;0.0879;-0.6616;
268.5000;0.0936;-0.6439;
268.8000;0.0871;-0.6594;
269.1000;0.0936;-0.6417;
269.4000;0.0855;-0.6528;
269.7000;0.0895;-0.6506;
270.0000;0.0879;-0.6550;
270.3000;0.0887;-0.6638;
270.6000;0.0871;-0.6616;
270.9000;0.0863;-0.6638;
271.2000;0.0912;-0.6528;
271.5000;0.0904;-0.6550;
271.8000;0.0847;-0.6749;
272.1000;0.0830;-0.6815;
272.4000;0.0871;-0.6793;
272.7000;0.0912;-0.6705;
273.0000;0.0879;-0.6727;
273.3000;0.0887;-0.6572;
273.6000;0.0871;-0.6683;
273.9000;0.0847;-0.6727;
274.2000;0.0887;-0.6638;
274.5000;0.0847;-0.6815;
274.8000;0.0757;-0.7015;
275.1000;0.0887;-0.6638;
275.4000;0.1009;-0.6417;
275.7000;0.0961;-0.6506;
276.0000;0.0952;-0.6528;
276.3000;0.0871;-0.6683;
276.6000;0.0920;-0.6550;
276.9000;0.0879;-0.6661;
277.2000;0.0879;-0.6638;
277.5000;0.0879;-0.6572;
277.8000;0.0895;-0.6506;
278.1000;0.0879;-0.6484;
278.4000;0.0879;-0.6484;
278.7000;0.0887;-0.6417;
279.0000;0.0879;-0.6395;
279.3000;0.0895;-0.6351;
279.6000;0.0879;-0.6417;
279.9000;0.0887;-0.6395;
280.2000;0.0855;-0.6528;
280.5000;0.0944;-0.6373;
280.8000;0.0879;-0.6572;
281.1000;0.0863;-0.6661;
281.4000;0.0863;-0.6705;
281.7000;0.0895;-0.6661;
282.0000;0.0895;-0.6661;
282.3000;0.0887;-0.6550;
282.6000;0.0871;-0.6616;
282.9000;0.0871;-0.6638;
283.2000;0.0879;-0.6572;
283.5000;0.0912;-0.6572;
283.8000;0.0904;-0.6683;
284.1000;0.0838;-0.6793;
284.4000;0.0879;-0.6749;
284.7000;0.0895;-0.6683;
285.0000;0.0855;-0.6727;
285.3000;0.0871;-0.6638;
285.6000;0.0969;-0.6484;
285.9000;0.0887;-0.6705;
286.2000;0.0879;-0.6727;
286.5000;0.0887;-0.6771;
286.8000;0.0830;-0.6948;
287.1000;0.0887;-0.6838;
287.4000;0.0855;-0.6904;
287.7000;0.0838;-0.6926;
288.0000;0.0904;-0.6705;
288.3000;0.0887;-0.6594;
288.6000;0.0749;-0.6882;
288.9000;0.0871;-0.6661;
289.2000;0.0879;-0.6594;
289.5000;0.0863;-0.6616;
289.8000;0.0790;-0.6838;
290.1000;0.0863;-0.6683;
290.4000;0.0863;-0.6683;
290.7000;0.0716;-0.7037;
291.0000;0.0944;-0.6461;
291.3000;0.0887;-0.6572;
291.6000;0.0838;-0.6594;
291.9000;0.0904;-0.6461;
292.2000;0.0790;-0.6793;
292.5000;0.0895;-0.6506;
292.8000;0.0855;-0.6661;
293.1000;0.0887;-0.6661;
293.4000;0.0887;-0.6727;
293.7000;0.0920;-0.6594;
294.0000;0.0904;-0.6661;
294.3000;0.0863;-0.6705;
294.6000;0.0936;-0.6638;
294.9000;0.0871;-0.6727;
295.2000;0.0863;-0.6705;
295.5000;0.0871;-0.6661;
295.8000;0.0887;-0.6705;
296.1000;0.0838;-0.6904;
296.4000;0.0944;-0.6638;
296.7000;0.0879;-0.6793;
297.0000;0.0871;-0.6815;
297.3000;0.0887;-0.6793;
297.6000;0.0887;-0.6860;
297.9000;0.0871;-0.6904;
298.2000;0.0863;-0.6860;
298.5000;0.0879;-0.6860;
298.8000;0.0887;-0.6771;
299.1000;0.0887;-0.6705;
299.4000;0.0879;-0.6705;
299.7000;0.0863;-0.6683;
300.0000;0.0871;-0.6616;
300.3000;0.0879;-0.6683;
300.6000;0.0871;-0.6771;
300.9000;0.0879;-0.6661;
301.2000;0.0879;-0.6550;
301.5000;0.0887;-0.6417;
301.8000;0.0871;-0.6506;
302.1000;0.0871;-0.6506;
302.4000;0.0871;-0.6417;
302.7000;0.0863;-0.6572;
303.0000;0.0879;-0.6528;
303.3000;0.0879;-0.6550;
303.6000;0.0863;-0.6638;
303.9000;0.0887;-0.6616;
304.2000;0.0871;-0.6638;
304.5000;0.0928;-0.6506;
304.8000;0.0895;-0.6661;
305.1000;0.0887;-0.6638;
305.4000;0.0887;-0.6616;
305.7000;0.0871;-0.6749;
306.0000;0.0855;-0.6860;
306.3000;0.0895;-0.6749;
306.6000;0.0895;-0.6683;
306.9000;0.0871;-0.6771;
307.2000;0.0879;-0.6727;
307.5000;0.0855;-0.6705;
307.8000;0.0887;-0.6683;
308.1000;0.0871;-0.6749;
308.4000;0.0920;-0.6705;
308.7000;0.0912;-0.6661;
309.0000;0.0895;-0.6661;
309.3000;0.0895;-0.6550;
309.6000;0.0879;-0.6550;
309.9000;0.0871;-0.6550;
310.2000;0.0887;-0.6638;
310.5000;0.0871;-0.6771;
310.8000;0.0838;-0.6860;
311.1000;0.0871;-0.6727;
311.4000;0.0879;-0.6727;
311.7000;0.0790;-0.6904;
312.0000;0.0822;-0.6860;
312.3000;0.0879;-0.6705;
312.6000;0.0830;-0.6838;
312.9000;0.0879;-0.6683;
313.2000;0.0806;-0.6882;
313.5000;0.0887;-0.6749;
313.8000;0.0912;-0.6616;
314.1000;0.0904;-0.6616;
314.4000;0.0904;-0.6661;
314.7000;0.0895;-0.6661;
315.0000;0.0879;-0.6661;
315.3000;0.0928;-0.6528;
315.6000;0.0822;-0.6860;
315.9000;0.0895;-0.6705;
316.2000;0.0814;-0.6838;
316.5000;0.0790;-0.6882;
316.8000;0.0855;-0.6771;
317.1000;0.0879;-0.6705;
317.4000;0.0920;-0.6528;
317.7000;0.0944;-0.6373;
318.0000;0.0879;-0.6528;
318.3000;0.0879;-0.6506;
318.6000;0.0887;-0.6439;
318.9000;0.0887;-0.6484;
319.2000;0.0904;-0.6506;
319.5000;0.0838;-0.6572;
319.8000;0.0879;-0.6550;
320.1000;0.0879;-0.6594;
320.4000;0.0928;-0.6417;
320.7000;0.0871;-0.6616;
321.0000;0.0879;-0.6572;
321.3000;0.0879;-0.6594;
321.6000;0.0895;-0.6572;
321.9000;0.0871;-0.6661;
322.2000;0.0863;-0.6616;
322.5000;0.0855;-0.6594;
322.8000;0.0895;-0.6550;
323.1000;0.0887;-0.6572;
323.4000;0.0871;-0.6638;
323.7000;0.0904;-0.6616;
324.0000;0.0871;-0.6661;
324.3000;0.0879;-0.6638;
324.6000;0.0871;-0.6661;
324.9000;0.0879;-0.6705;
325.2000;0.0887;-0.6661;
325.5000;0.0871;-0.6683;
325.8000;0.0830;-0.6838;
326.1000;0.0863;-0.6815;
326.4000;0.0879;-0.6705;
326.7000;0.0871;-0.6661;
327.0000;0.0871;-0.6683;
327.3000;0.0895;-0.6749;
327.6000;0.0863;-0.6838;
327.9000;0.0912;-0.6705;
328.2000;0.0895;-0.6749;
328.5000;0.0969;-0.6594;
328.8000;0.0871;-0.6860;
329.1000;0.0887;-0.6838;
329.4000;0.0838;-0.6926;
329.7000;0.0847;-0.6948;
330.0000;0.0895;-0.6793;
330.3000;0.0863;-0.6838;
330.6000;0.0879;-0.6815;
330.9000;0.0879;-0.6860;
331.2000;0.0904;-0.6771;
331.5000;0.0879;-0.6793;
331.8000;0.0887;-0.6815;
332.1000;0.0863;-0.6882;
332.4000;0.0887;-0.6815;
332.7000;0.0879;-0.6815;
333.0000;0.0863;-0.6749;
333.3000;0.0879;-0.6594;
333.6000;0.0847;-0.6528;
333.9000;0.0895;-0.6417;
334.2000;0.0879;-0.6506;
334.5000;0.0887;-0.6506;
334.8000;0.0887;-0.6506;
335.1000;0.0879;-0.6616;
335.4000;0.0887;-0.6705;
335.7000;0.0863;-0.6882;
336.0000;0.0879;-0.6838;
336.3000;0.0871;-0.6838;
336.6000;0.0879;-0.6815;
336.9000;0.0871;-0.6771;
337.2000;0.0887;-0.6727;
337.5000;0.0871;-0.6705;
337.8000;0.0855;-0.6771;
338.1000;0.0936;-0.6572;
338.4000;0.0847;-0.6771;
338.7000;0.0781;-0.6904;
339.0000;0.0830;-0.6815;
339.3000;0.0871;-0.6683;
339.6000;0.0871;-0.6638;
339.9000;0.0879;-0.6572;
340.2000;0.0961;-0.6484;
340.5000;0.0879;-0.6616;
340.8000;0.0863;-0.6705;
341.1000;0.0863;-0.6727;
341.4000;0.0855;-0.6860;
341.7000;0.1131;-0.6284;
342.0000;0.0871;-0.6838;
342.3000;0.0871;-0.6860;
342.6000;0.0895;-0.6749;
342.9000;0.0961;-0.6616;
343.2000;0.0871;-0.6815;
343.5000;0.0895;-0.6815;
343.8000;0.0806;-0.6992;
344.1000;0.0879;-0.6749;
344.4000;0.0773;-0.6970;
344.7000;0.0961;-0.6439;
345.0000;0.0912;-0.6484;
345.3000;0.0879;-0.6550;
345.6000;0.0895;-0.6638;
345.9000;0.0863;-0.6749;
346.2000;0.0879;-0.6705;
346.5000;0.0887;-0.6727;
346.8000;0.0871;-0.6771;
347.1000;0.0798;-0.6926;
347.4000;0.0855;-0.6815;
347.7000;0.0887;-0.6661;
348.0000;0.0895;-0.6705;
348.3000;0.0847;-0.6771;
348.6000;0.0887;-0.6616;
348.9000;0.0895;-0.6638;
349.2000;0.0798;-0.6860;
349.5000;0.0895;-0.6594;
349.8000;0.0863;-0.6771;
350.1000;0.0806;-0.6926;
350.4000;0.0781;-0.7059;
350.7000;0.0863;-0.6860;
351.0000;0.0887;-0.6838;
351.3000;0.0790;-0.7059;
351.6000;0.0895;-0.6771;
351.9000;0.0871;-0.6749;
352.2000;0.0863;-0.6771;
352.5000;0.0822;-0.6838;
352.8000;0.0863;-0.6838;
353.1000;0.0879;-0.6683;
353.4000;0.0928;-0.6528;
353.7000;0.0887;-0.6661;
354.0000;0.0887;-0.6749;
354.3000;0.0863;-0.6793;
354.6000;0.0887;-0.6661;
354.9000;0.0871;-0.6727;
355.2000;0.0871;-0.6749;
355.5000;0.0895;-0.6705;
355.8000;0.0879;-0.6705;
356.1000;0.0879;-0.6683;
356.4000;0.0895;-0.6749;
356.7000;0.0904;-0.6815;
357.0000;0.0871;-0.6882;
357.3000;0.0912;-0.6838;
357.6000;0.0895;-0.6860;
357.9000;0.0871;-0.6948;
358.2000;0.0912;-0.6815;
358.5000;0.0863;-0.7059;
358.8000;0.0920;-0.6970;
359.1000;0.0904;-0.6904;
359.4000;0.0879;-0.6948;
359.7000;0.0798;-0.7170;
360.0000;0.0887;-0.6970;
360.3000;0.0895;-0.6904;
360.6000;0.0863;-0.7015;
360.9000;0.0838;-0.7147;
361.2000;0.0863;-0.7147;
361.5000;0.0920;-0.7081;
361.8000;0.0920;-0.7059;
362.1000;0.0879;-0.7081;
362.4000;0.0871;-0.6992;
362.7000;0.0879;-0.6882;
363.0000;0.0879;-0.6904;
363.3000;0.0887;-0.6904;
363.6000;0.0855;-0.6948;
363.9000;0.0887;-0.6882;
364.2000;0.0863;-0.6904;
364.5000;0.0920;-0.6771;
364.8000;0.0879;-0.6815;
365.1000;0.0887;-0.6705;
365.4000;0.0855;-0.6749;
365.7000;0.0887;-0.6661;
366.0000;0.0912;-0.6727;
366.3000;0.0887;-0.6727;
366.6000;0.0936;-0.6638;
366.9000;0.0936;-0.6616;
367.2000;0.0847;-0.6793;
367.5000;0.0961;-0.6506;
367.8000;0.0920;-0.6572;
368.1000;0.0895;-0.6572;
368.4000;0.0879;-0.6638;
368.7000;0.0920;-0.6550;
369.0000;0.0871;-0.6727;
369.3000;0.0871;-0.6771;
369.6000;0.0887;-0.6838;
369.9000;0.0798;-0.7015;
370.2000;0.0847;-0.6904;
370.5000;0.0887;-0.6705;
370.8000;0.0855;-0.6838;
371.1000;0.0928;-0.6638;
371.4000;0.0838;-0.6815;
371.7000;0.0838;-0.6793;
372.0000;0.0895;-0.6705;
372.3000;0.0806;-0.6838;
372.6000;0.0847;-0.6771;
372.9000;0.0847;-0.6838;
373.2000;0.0855;-0.6860;
373.5000;0.0871;-0.6771;
373.8000;0.0822;-0.6860;
374.1000;0.0863;-0.6661;
374.4000;0.0863;-0.6727;
374.7000;0.0879;-0.6749;
375.0000;0.0895;-0.6815;
375.3000;0.0863;-0.6860;
375.6000;0.0847;-0.6860;
375.9000;0.0863;-0.6793;
376.2000;0.0895;-0.6683;
376.5000;0.0806;-0.6926;
376.8000;0.0871;-0.6793;
377.1000;0.0863;-0.6771;
377.4000;0.0871;-0.6705;
377.7000;0.0838;-0.6793;
378.0000;0.0879;-0.6661;
378.3000;0.0904;-0.6683;
378.6000;0.0871;-0.6749;
378.9000;0.0871;-0.6771;
379.2000;0.0806;-0.6948;
379.5000;0.0895;-0.6727;
379.8000;0.0912;-0.6749;
380.1000;0.0952;-0.6661;
380.4000;0.0904;-0.6793;
380.7000;0.0847;-0.6882;
381.0000;0.0879;-0.6815;
381.3000;0.0871;-0.6860;
381.6000;0.0847;-0.6815;
381.9000;0.0847;-0.6882;
382.2000;0.0822;-0.6793;
382.5000;0.0895;-0.6638;
382.8000;0.0887;-0.6572;
383.1000;0.0855;-0.6705;
383.4000;0.0863;-0.6661;
383.7000;0.0838;-0.6638;
384.0000;0.0895;-0.6550;
384.3000;0.0855;-0.6705;
384.6000;0.0887;-0.6705;
384.9000;0.0847;-0.6860;
385.2000;0.0879;-0.6860;
385.5000;0.0920;-0.6793;
385.8000;0.0887;-0.6860;
386.1000;0.0887;-0.6838;
386.4000;0.0879;-0.6860;
386.7000;0.0895;-0.6727;
387.0000;0.0912;-0.6638;
387.3000;0.0887;-0.6661;
387.6000;0.0847;-0.6749;
387.9000;0.0887;-0.6661;
388.2000;0.0871;-0.6661;
388.5000;0.0863;-0.6638;
388.8000;0.0871;-0.6638;
389.1000;0.0879;-0.6638;
389.4000;0.0855;-0.6683;
389.7000;0.0871;-0.6727;
390.0000;0.0879;-0.6793;
390.3000;0.0790;-0.7059;
390.6000;0.0871;-0.6860;
390.9000;0.0887;-0.6815;
391.2000;0.0887;-0.6793;
391.5000;0.0855;-0.6882;
391.8000;0.0912;-0.6749;
392.1000;0.0887;-0.6838;
392.4000;0.0887;-0.6815;
392.7000;0.0904;-0.6771;
393.0000;0.0822;-0.6948;
393.3000;0.0871;-0.6793;
393.6000;0.0871;-0.6904;
393.9000;0.0912;-0.6882;
394.2000;0.0920;-0.6749;
394.5000;0.0871;-0.6771;
394.8000;0.0871;-0.6661;
395.1000;0.0895;-0.6572;
395.4000;0.0838;-0.6661;
395.7000;0.0895;-0.6484;
396.0000;0.0871;-0.6461;
396.3000;0.0887;-0.6284;
396.6000;0.0855;-0.6439;
396.9000;0.0871;-0.6550;
397.2000;0.0863;-0.6528;
397.5000;0.0871;-0.6528;
397.8000;0.0838;-0.6550;
398.1000;0.0871;-0.6461;
398.4000;0.0863;-0.6506;
398.7000;0.0887;-0.6528;
399.0000;0.0920;-0.6528;
399.3000;0.0895;-0.6572;
399.6000;0.0871;-0.6572;
399.9000;0.0871;-0.6572;
400.2000;0.0887;-0.6572;
400.5000;0.0830;-0.6749;
400.8000;0.0863;-0.6683;
401.1000;0.0871;-0.6594;
401.4000;0.0904;-0.6594;
401.7000;0.0871;-0.6749;
402.0000;0.0879;-0.6638;
402.3000;0.0871;-0.6705;
402.6000;0.0912;-0.6506;
402.9000;0.0904;-0.6616;
403.2000;0.0871;-0.6705;
403.5000;0.0887;-0.6661;
403.8000;0.0863;-0.6727;
404.1000;0.0904;-0.6616;
404.4000;0.0871;-0.6705;
404.7000;0.0741;-0.6970;
405.0000;0.0904;-0.6550;
405.3000;0.0871;-0.6594;
405.6000;0.0895;-0.6528;
405.9000;0.0871;-0.6572;
406.2000;0.0863;-0.6661;
406.5000;0.0847;-0.6749;
406.8000;0.0855;-0.6838;
407.1000;0.0855;-0.6793;
407.4000;0.0863;-0.6727;
407.7000;0.0928;-0.6506;
408.0000;0.0895;-0.6594;
408.3000;0.0855;-0.6727;
408.6000;0.0879;-0.6638;
408.9000;0.0904;-0.6594;
409.2000;0.0879;-0.6683;
409.5000;0.0822;-0.6860;
409.8000;0.0847;-0.6793;
410.1000;0.0781;-0.7081;
410.4000;0.0871;-0.6860;
410.7000;0.0887;-0.6838;
411.0000;0.0944;-0.6705;
411.3000;0.0855;-0.6838;
411.6000;0.0887;-0.6838;
411.9000;0.0887;-0.6838;
412.2000;0.0952;-0.6661;
412.5000;0.0912;-0.6838;
412.8000;0.0904;-0.6860;
413.1000;0.0895;-0.6749;
413.4000;0.0871;-0.6815;
413.7000;0.0855;-0.6815;
414.0000;0.0887;-0.6727;
414.3000;0.0977;-0.6616;
414.6000;0.0863;-0.6882;
414.9000;0.0863;-0.6904;
415.2000;0.0895;-0.6948;
415.5000;0.0863;-0.7059;
415.8000;0.0879;-0.7037;
416.1000;0.0838;-0.7103;
416.4000;0.0895;-0.6926;
416.7000;0.0855;-0.6992;
417.0000;0.0904;-0.6793;
417.3000;0.0904;-0.6793;
417.6000;0.0863;-0.6926;
417.9000;0.0855;-0.6970;
418.2000;0.0904;-0.6838;
418.5000;0.0887;-0.7059;
418.8000;0.0855;-0.7192;
419.1000;0.0879;-0.7037;
419.4000;0.0879;-0.7059;
419.7000;0.0871;-0.6948;
420.0000;0.0863;-0.6948;
420.3000;0.0887;-0.6882;
420.6000;0.0822;-0.7015;
420.9000;0.0879;-0.6882;
421.2000;0.0977;-0.6683;
421.5000;0.0879;-0.6815;
421.8000;0.0863;-0.6860;
422.1000;0.0904;-0.6683;
422.4000;0.0879;-0.6838;
422.7000;0.0863;-0.6771;
423.0000;0.0863;-0.6771;
423.3000;0.0887;-0.6705;
423.6000;0.0879;-0.6749;
423.9000;0.0895;-0.6749;
424.2000;0.0904;-0.6638;
424.5000;0.0879;-0.6749;
424.8000;0.0871;-0.6727;
425.1000;0.0895;-0.6683;
425.4000;0.0879;-0.6727;
425.7000;0.0879;-0.6727;
426.0000;0.0895;-0.6683;
426.3000;0.0855;-0.6793;
426.6000;0.0895;-0.6771;
426.9000;0.0895;-0.6727;
427.2000;0.0847;-0.6882;
427.5000;0.0855;-0.6838;
427.8000;0.0871;-0.6860;
428.1000;0.0887;-0.6771;
428.4000;0.0879;-0.6838;
428.7000;0.0879;-0.6749;
429.0000;0.0895;-0.6727;
429.3000;0.0887;-0.6683;
429.6000;0.0920;-0.6683;
429.9000;0.0863;-0.6882;
430.2000;0.0871;-0.6860;
430.5000;0.0887;-0.6838;
430.8000;0.0871;-0.6860;
431.1000;0.0895;-0.6882;
431.4000;0.0847;-0.7015;
431.7000;0.0838;-0.7125;
432.0000;0.0871;-0.7015;
432.3000;0.0863;-0.7059;
432.6000;0.0798;-0.7192;
432.9000;0.0790;-0.7081;
433.2000;0.0887;-0.6793;
433.5000;0.0887;-0.6771;
433.8000;0.0838;-0.6815;
434.1000;0.0806;-0.6904;
434.4000;0.0904;-0.6705;
434.7000;0.0847;-0.6838;
435.0000;0.0887;-0.6705;
435.3000;0.0879;-0.6749;
435.6000;0.0863;-0.6771;
435.9000;0.0895;-0.6616;
436.2000;0.0871;-0.6727;
436.5000;0.0871;-0.6727;
436.8000;0.0773;-0.6992;
437.1000;0.0847;-0.6838;
437.4000;0.0855;-0.6793;
437.7000;0.0879;-0.6727;
438.0000;0.0895;-0.6638;
438.3000;0.0993;-0.6484;
438.6000;0.0863;-0.6815;
438.9000;0.0920;-0.6661;
439.2000;0.0879;-0.6793;
439.5000;0.0847;-0.6838;
439.8000;0.1001;-0.6417;
440.1000;0.0855;-0.6771;
440.4000;0.0928;-0.6683;
440.7000;0.0904;-0.6616;
441.0000;0.0879;-0.6661;
441.3000;0.0928;-0.6506;
441.6000;0.0871;-0.6616;
441.9000;0.0887;-0.6683;
442.2000;0.0798;-0.6948;
442.5000;0.0904;-0.6661;
442.8000;0.0887;-0.6661;
443.1000;0.0790;-0.6838;
443.4000;0.0887;-0.6638;
443.7000;0.0879;-0.6815;
444.0000;0.0847;-0.6860;
444.3000;0.0985;-0.6572;
444.6000;0.0904;-0.6705;
444.9000;0.0912;-0.6727;
445.2000;0.0895;-0.6793;
445.5000;0.0871;-0.6860;
445.8000;0.0863;-0.6904;
446.1000;0.0838;-0.6860;
446.4000;0.0847;-0.6705;
446.7000;0.0863;-0.6705;
447.0000;0.0895;-0.6705;
447.3000;0.0912;-0.6815;
447.6000;0.0863;-0.7015;
447.9000;0.0855;-0.7059;
448.2000;0.0879;-0.7037;
448.5000;0.0887;-0.6970;
448.8000;0.0879;-0.6926;
449.1000;0.0871;-0.6970;
449.4000;0.0887;-0.6882;
449.7000;0.0887;-0.6904;
450.0000;0.0952;-0.6771;
450.3000;0.0855;-0.6992;
450.6000;0.0879;-0.6860;
450.9000;0.0887;-0.6926;
451.2000;0.0879;-0.6948;
451.5000;0.0871;-0.6882;
451.8000;0.0879;-0.6771;
452.1000;0.0895;-0.6727;
452.4000;0.0879;-0.6727;
452.7000;0.0871;-0.6793;
453.0000;0.0863;-0.6838;
453.3000;0.0895;-0.6771;
453.6000;0.0904;-0.6771;
453.9000;0.0912;-0.6705;
454.2000;0.0855;-0.6815;
454.5000;0.0895;-0.6771;
454.8000;0.0904;-0.6705;
455.1000;0.0863;-0.6749;
455.4000;0.0822;-0.6948;
455.7000;0.0895;-0.6948;
456.0000;0.0871;-0.6992;
456.3000;0.0895;-0.6904;
456.6000;0.0887;-0.6860;
456.9000;0.0871;-0.6838;
457.2000;0.0806;-0.6904;
457.5000;0.0871;-0.6815;
457.8000;0.0871;-0.6860;
458.1000;0.0847;-0.6860;
458.4000;0.0838;-0.6926;
458.7000;0.0871;-0.6793;
459.0000;0.0887;-0.6815;
459.3000;0.0879;-0.6860;
459.6000;0.0904;-0.6727;
459.9000;0.0977;-0.6395;
460.2000;0.0863;-0.6661;
460.5000;0.0879;-0.6683;
460.8000;0.1018;-0.6307;
461.1000;0.0904;-0.6661;
461.4000;0.0895;-0.6705;
461.7000;0.0879;-0.6638;
462.0000;0.0879;-0.6727;
462.3000;0.0879;-0.6727;
462.6000;0.0798;-0.6860;
462.9000;0.0863;-0.6661;
463.2000;0.0847;-0.6749;
463.5000;0.0887;-0.6661;
463.8000;0.0871;-0.6749;
464.1000;0.0830;-0.6771;
464.4000;0.0871;-0.6727;
464.7000;0.0863;-0.6793;
465.0000;0.0895;-0.6683;
465.3000;0.0863;-0.6749;
465.6000;0.0830;-0.6904;
465.9000;0.0887;-0.6771;
466.2000;0.0887;-0.6838;
466.5000;0.0904;-0.6815;
466.8000;0.0879;-0.6860;
467.1000;0.0944;-0.6616;
467.4000;0.0904;-0.6771;
467.7000;0.0887;-0.6904;
468.0000;0.0847;-0.6992;
468.3000;0.0944;-0.6683;
468.6000;0.0863;-0.6882;
468.9000;0.0871;-0.6860;
469.2000;0.0879;-0.6793;
469.5000;0.0879;-0.6749;
469.8000;0.0887;-0.6727;
470.1000;0.0765;-0.7015;
470.4000;0.0895;-0.6594;
470.7000;0.0871;-0.6616;
471.0000;0.0855;-0.6683;
471.3000;0.0887;-0.6638;
471.6000;0.0822;-0.6838;
471.9000;0.0871;-0.6661;
472.2000;0.0863;-0.6661;
472.5000;0.0863;-0.6638;
472.8000;0.0879;-0.6683;
473.1000;0.0847;-0.6749;
473.4000;0.0863;-0.6683;
473.7000;0.0879;-0.6683;
474.0000;0.0863;-0.6661;
474.3000;0.0871;-0.6683;
474.6000;0.0871;-0.6594;
474.9000;0.0895;-0.6572;
475.2000;0.0895;-0.6638;
475.5000;0.0887;-0.6594;
475.8000;0.0904;-0.6594;
476.1000;0.0904;-0.6683;
476.4000;0.0879;-0.6860;
476.7000;0.0863;-0.6948;
477.0000;0.0887;-0.6970;
477.3000;0.0871;-0.6992;
477.6000;0.0887;-0.6860;
477.9000;0.0863;-0.6970;
478.2000;0.0871;-0.6948;
478.5000;0.0952;-0.6683;
478.8000;0.0887;-0.6882;
479.1000;0.0928;-0.6771;
479.4000;0.0928;-0.6727;
479.7000;0.0871;-0.6882;
480.0000;0.0912;-0.6727;
480.3000;0.0887;-0.6815;
480.6000;0.0887;-0.6661;
480.9000;0.0838;-0.6771;
481.2000;0.0871;-0.6683;
481.5000;0.0879;-0.6638;
481.8000;0.0847;-0.6749;
482.1000;0.0887;-0.6749;
482.4000;0.0887;-0.6882;
482.7000;0.0879;-0.6838;
483.0000;0.0863;-0.6882;
483.3000;0.0838;-0.6992;
483.6000;0.0936;-0.6661;
483.9000;0.0904;-0.6793;
484.2000;0.0969;-0.6616;
484.5000;0.0863;-0.6948;
484.8000;0.0806;-0.7081;
485.1000;0.0871;-0.6860;
485.4000;0.0863;-0.6882;
485.7000;0.0838;-0.6860;
486.0000;0.0806;-0.6992;
486.3000;0.0895;-0.6815;
486.6000;0.0944;-0.6705;
486.9000;0.0871;-0.6860;
487.2000;0.0904;-0.6793;
487.5000;0.0944;-0.6815;
487.8000;0.0822;-0.7170;
488.1000;0.0863;-0.7125;
488.4000;0.0838;-0.7258;
488.7000;0.0887;-0.7236;
489.0000;0.0879;-0.7236;
489.3000;0.0863;-0.7214;
489.6000;0.0871;-0.7125;
489.9000;0.0895;-0.7103;
490.2000;0.0895;-0.7059;
490.5000;0.0871;-0.6992;
490.8000;0.0920;-0.6815;
491.1000;0.0871;-0.6793;
491.4000;0.0814;-0.6926;
491.7000;0.0912;-0.6638;
492.0000;0.0830;-0.6771;
492.3000;0.0879;-0.6616;
492.6000;0.0871;-0.6661;
492.9000;0.0928;-0.6461;
493.2000;0.0904;-0.6528;
493.5000;0.0887;-0.6550;
493.8000;0.0879;-0.6506;
494.1000;0.0855;-0.6594;
494.4000;0.0855;-0.6594;
494.7000;0.0847;-0.6661;
495.0000;0.0855;-0.6705;
495.3000;0.0895;-0.6638;
495.6000;0.0871;-0.6705;
495.9000;0.0904;-0.6638;
496.2000;0.0863;-0.6771;
496.5000;0.0830;-0.6948;
496.8000;0.0944;-0.6616;
497.1000;0.0879;-0.6860;
497.4000;0.0855;-0.6926;
497.7000;0.0895;-0.6771;
498.0000;0.0855;-0.6860;
498.3000;0.0904;-0.6727;
498.6000;0.0863;-0.6815;
498.9000;0.0895;-0.6683;
499.2000;0.0895;-0.6683;
499.5000;0.0920;-0.6661;
499.8000;0.0765;-0.7015;
500.1000;0.0887;-0.6594;
500.4000;0.0863;-0.6638;
500.7000;0.0781;-0.6860;
501.0000;0.0887;-0.6661;
501.3000;0.0928;-0.6594;
501.6000;0.0912;-0.6638;
501.9000;0.0936;-0.6572;
502.2000;0.0912;-0.6683;
502.5000;0.0904;-0.6683;
502.8000;0.0895;-0.6793;
503.1000;0.0904;-0.6727;
503.4000;0.0879;-0.6793;
503.7000;0.0879;-0.6838;
504.0000;0.0904;-0.6793;
504.3000;0.0920;-0.6793;
504.6000;0.0879;-0.6926;
504.9000;0.0806;-0.7125;
505.2000;0.0855;-0.6970;
505.5000;0.0887;-0.6948;
505.8000;0.0879;-0.6882;
506.1000;0.0863;-0.6926;
506.4000;0.0895;-0.6838;
506.7000;0.0887;-0.6815;
507.0000;0.0863;-0.6882;
507.3000;0.0879;-0.6882;
507.6000;0.0887;-0.6838;
507.9000;0.0887;-0.6838;
508.2000;0.0879;-0.6838;
508.5000;0.0879;-0.6727;
508.8000;0.0936;-0.6727;
509.1000;0.0895;-0.6860;
509.4000;0.0904;-0.6926;
509.7000;0.0879;-0.7037;
510.0000;0.0871;-0.7103;
510.3000;0.0806;-0.7258;
510.6000;0.0887;-0.7015;
510.9000;0.0879;-0.6970;
511.2000;0.0895;-0.6948;
511.5000;0.0871;-0.6904;
511.8000;0.0855;-0.6860;
512.1000;0.0879;-0.6815;
512.4000;0.0871;-0.6838;
512.7000;0.0855;-0.6904;
513.0000;0.0871;-0.6815;
513.3000;0.0887;-0.6860;
513.6000;0.0847;-0.6970;
513.9000;0.0798;-0.7081;
514.2000;0.0871;-0.6793;
514.5000;0.0887;-0.6793;
514.8000;0.0887;-0.6705;
515.1000;0.0855;-0.6683;
515.4000;0.0847;-0.6727;
515.7000;0.0871;-0.6683;
516.0000;0.0887;-0.6683;
516.3000;0.0895;-0.6727;
516.6000;0.0985;-0.6461;
516.9000;0.0879;-0.6705;
517.2000;0.0977;-0.6461;
517.5000;0.0887;-0.6705;
517.8000;0.0871;-0.6594;
518.1000;0.0879;-0.6506;
518.4000;0.0904;-0.6439;
518.7000;0.0830;-0.6638;
519.0000;0.0871;-0.6572;
519.3000;0.0904;-0.6550;
519.6000;0.0895;-0.6572;
519.9000;0.0871;-0.6727;
520.2000;0.0887;-0.6771;
520.5000;0.0895;-0.6705;
520.8000;0.0863;-0.6771;
521.1000;0.0830;-0.6882;
521.4000;0.0855;-0.6815;
521.7000;0.0855;-0.6771;
522.0000;0.0830;-0.6882;
522.3000;0.0879;-0.6771;
522.6000;0.0887;-0.6838;
522.9000;0.0887;-0.6838;
523.2000;0.0887;-0.6838;
523.5000;0.0847;-0.6904;
523.8000;0.0781;-0.7125;
524.1000;0.0887;-0.6727;
524.4000;0.0887;-0.6749;
524.7000;0.0920;-0.6727;
525.0000;0.0904;-0.6815;
525.3000;0.0847;-0.6992;
525.6000;0.0904;-0.6860;
525.9000;0.0879;-0.6838;
526.2000;0.0871;-0.6860;
526.5000;0.0871;-0.6838;
526.8000;0.0871;-0.6882;
527.1000;0.0887;-0.6749;
527.4000;0.0952;-0.6528;
527.7000;0.0879;-0.6683;
528.0000;0.0904;-0.6661;
528.3000;0.0773;-0.6948;
528.6000;0.0863;-0.6793;
528.9000;0.0895;-0.6749;
529.2000;0.0847;-0.6793;
529.5000;0.0895;-0.6638;
529.8000;0.0904;-0.6572;
530.1000;0.0879;-0.6638;
530.4000;0.0871;-0.6661;
530.7000;0.0871;-0.6705;
531.0000;0.0879;-0.6638;
531.3000;0.0806;-0.6926;
531.6000;0.0855;-0.6749;
531.9000;0.0855;-0.6838;
532.2000;0.0838;-0.6948;
532.5000;0.0847;-0.6970;
532.8000;0.0855;-0.6970;
533.1000;0.0863;-0.6948;
533.4000;0.0952;-0.6683;
533.7000;0.0879;-0.6904;
534.0000;0.0871;-0.6926;
534.3000;0.0871;-0.6815;
534.6000;0.0871;-0.6705;
534.9000;0.0887;-0.6727;
535.2000;0.0847;-0.6815;
535.5000;0.0887;-0.6793;
535.8000;0.0871;-0.6793;
536.1000;0.0879;-0.6793;
536.4000;0.0847;-0.6838;
536.7000;0.0814;-0.6860;
537.0000;0.0879;-0.6638;
537.3000;0.0887;-0.6550;
537.6000;0.0863;-0.6616;
537.9000;0.0871;-0.6638;
538.2000;0.0863;-0.6661;
538.5000;0.0904;-0.6661;
538.8000;0.0871;-0.6749;
539.1000;0.0871;-0.6749;
539.4000;0.0912;-0.6616;
539.7000;0.0847;-0.6793;
540.0000;0.0871;-0.6727;
540.3000;0.0871;-0.6793;
540.6000;0.0855;-0.6771;
540.9000;0.0741;-0.6992;
541.2000;0.0879;-0.6793;
541.5000;0.0887;-0.6793;
541.8000;0.0912;-0.6793;
542.1000;0.0879;-0.6815;
542.4000;0.0855;-0.6793;
542.7000;0.0879;-0.6749;
543.0000;0.0871;-0.6838;
543.3000;0.0863;-0.6882;
543.6000;0.0871;-0.6860;
543.9000;0.0863;-0.6860;
544.2000;0.0887;-0.6815;
544.5000;0.0855;-0.6970;
544.8000;0.0895;-0.6904;
545.1000;0.0887;-0.6860;
545.4000;0.0879;-0.6815;
545.7000;0.0904;-0.6771;
546.0000;0.0879;-0.6838;
546.3000;0.0887;-0.6793;
546.6000;0.0904;-0.6705;
546.9000;0.0847;-0.6838;
547.2000;0.0904;-0.6727;
547.5000;0.0887;-0.6683;
547.8000;0.0838;-0.6838;
548.1000;0.0879;-0.6749;
548.4000;0.0871;-0.6793;
548.7000;0.0871;-0.6727;
549.0000;0.0879;-0.6838;
549.3000;0.0814;-0.6992;
549.6000;0.0871;-0.6882;
549.9000;0.0879;-0.6815;
550.2000;0.0969;-0.6594;
550.5000;0.0879;-0.6793;
550.8000;0.0879;-0.6815;
551.1000;0.0904;-0.6815;
551.4000;0.0920;-0.6749;
551.7000;0.0879;-0.6815;
552.0000;0.0863;-0.6815;
552.3000;0.0887;-0.6771;
552.6000;0.0887;-0.6749;
552.9000;0.0822;-0.6948;
553.2000;0.0879;-0.6838;
553.5000;0.0871;-0.6838;
553.8000;0.0912;-0.6771;
554.1000;0.0895;-0.6793;
554.4000;0.0847;-0.6970;
554.7000;0.0904;-0.6815;
555.0000;0.0863;-0.6838;
555.3000;0.0895;-0.6793;
555.6000;0.0855;-0.6860;
555.9000;0.0895;-0.6727;
556.2000;0.0887;-0.6705;
556.5000;0.0863;-0.6771;
556.8000;0.0871;-0.6815;
557.1000;0.0863;-0.6838;
557.4000;0.0871;-0.6815;
557.7000;0.0879;-0.6793;
558.0000;0.0879;-0.6882;
558.3000;0.0879;-0.6992;
558.6000;0.0855;-0.6992;
558.9000;0.0871;-0.6926;
559.2000;0.0847;-0.6970;
559.5000;0.0879;-0.6860;
559.8000;0.0863;-0.6882;
560.1000;0.0863;-0.6860;
560.4000;0.0871;-0.6838;
560.7000;0.0871;-0.6948;
561.0000;0.0879;-0.6992;
561.3000;0.0871;-0.6970;
561.6000;0.0904;-0.6882;
561.9000;0.0847;-0.6926;
562.2000;0.0895;-0.6882;
562.5000;0.0814;-0.7103;
562.8000;0.0871;-0.6860;
563.1000;0.0879;-0.6749;
563.4000;0.0879;-0.6771;
563.7000;0.0879;-0.6749;
564.0000;0.0904;-0.6749;
564.3000;0.0814;-0.6904;
564.6000;0.0863;-0.6749;
564.9000;0.0863;-0.6727;
565.2000;0.0895;-0.6683;
565.5000;0.0863;-0.6771;
565.8000;0.0985;-0.6484;
566.1000;0.0806;-0.7037;
566.4000;0.0904;-0.6705;
566.7000;0.0871;-0.6771;
567.0000;0.0887;-0.6727;
567.3000;0.0830;-0.6860;
567.6000;0.0879;-0.6727;
567.9000;0.0863;-0.6683;
568.2000;0.0863;-0.6727;
568.5000;0.0912;-0.6616;
568.8000;0.0904;-0.6638;
569.1000;0.0879;-0.6683;
569.4000;0.0879;-0.6683;
569.7000;0.0887;-0.6594;
570.0000;0.0895;-0.6506;
570.3000;0.0904;-0.6506;
570.6000;0.0887;-0.6594;
570.9000;0.0879;-0.6616;
571.2000;0.0863;-0.6638;
571.5000;0.0912;-0.6572;
571.8000;0.0887;-0.6616;
572.1000;0.0879;-0.6683;
572.4000;0.0912;-0.6638;
572.7000;0.0920;-0.6638;
573.0000;0.0863;-0.6749;
573.3000;0.0871;-0.6661;
573.6000;0.0855;-0.6727;
573.9000;0.0790;-0.6970;
574.2000;0.0879;-0.6749;
574.5000;0.0879;-0.6793;
574.8000;0.0879;-0.6771;
575.1000;0.0904;-0.6749;
575.4000;0.0781;-0.6926;
575.7000;0.0879;-0.6727;
576.0000;0.0895;-0.6616;
576.3000;0.0879;-0.6683;
576.6000;0.0904;-0.6638;
576.9000;0.0863;-0.6838;
577.2000;0.0855;-0.6948;
577.5000;0.0879;-0.6992;
577.8000;0.0871;-0.6992;
578.1000;0.0895;-0.6860;
578.4000;0.0863;-0.6860;
578.7000;0.0887;-0.6838;
579.0000;0.0879;-0.6970;
579.3000;0.0895;-0.6948;
579.6000;0.0871;-0.7015;
579.9000;0.0895;-0.6904;
580.2000;0.0871;-0.6948;
580.5000;0.0863;-0.6904;
580.8000;0.0887;-0.6882;
581.1000;0.0928;-0.6815;
581.4000;0.0871;-0.6926;
581.7000;0.0871;-0.6948;
582.0000;0.0912;-0.6838;
582.3000;0.0863;-0.6882;
582.6000;0.0863;-0.6838;
582.9000;0.0871;-0.6904;
583.2000;0.0847;-0.6970;
583.5000;0.0871;-0.6860;
583.8000;0.0879;-0.6860;
584.1000;0.0904;-0.6727;
584.4000;0.0887;-0.6771;
584.7000;0.0904;-0.6683;
585.0000;0.0871;-0.6815;
585.3000;0.0879;-0.6815;
585.6000;0.0895;-0.6860;
585.9000;0.0895;-0.6860;
586.2000;0.0871;-0.6992;
586.5000;0.0855;-0.7081;
586.8000;0.0863;-0.7081;
587.1000;0.0904;-0.6970;
587.4000;0.0871;-0.7103;
587.7000;0.0863;-0.7059;
588.0000;0.0879;-0.7059;
588.3000;0.0895;-0.6992;
588.6000;0.0871;-0.7037;
588.9000;0.0838;-0.7147;
589.2000;0.0887;-0.7125;
589.5000;0.0757;-0.7413;
589.8000;0.0912;-0.7037;
590.1000;0.0879;-0.7059;
590.4000;0.0879;-0.7081;
590.7000;0.0944;-0.6992;
591.0000;0.0863;-0.7103;
591.3000;0.0879;-0.6970;
591.6000;0.0863;-0.6926;
591.9000;0.0830;-0.6948;
592.2000;0.0895;-0.6815;
592.5000;0.0863;-0.6992;
592.8000;0.0863;-0.6970;
593.1000;0.0871;-0.6904;
593.4000;0.0879;-0.6838;
593.7000;0.0879;-0.6838;
594.0000;0.0904;-0.6661;
594.3000;0.0863;-0.6705;
594.6000;0.0887;-0.6727;
594.9000;0.0781;-0.7059;
595.2000;0.0887;-0.6815;
595.5000;0.1001;-0.6638;
595.8000;0.0904;-0.6970;
596.1000;0.0879;-0.6992;
596.4000;0.0936;-0.6838;
596.7000;0.0928;-0.6860;
597.0000;0.0895;-0.6904;
597.3000;0.0879;-0.6838;
597.6000;0.0871;-0.6926;
597.9000;0.0838;-0.6970;
598.2000;0.0879;-0.6860;
598.5000;0.0863;-0.6771;
598.8000;0.0863;-0.6727;
599.1000;0.0871;-0.6705;
599.4000;0.0838;-0.6749;
599.7000;0.0887;-0.6683;
600.0000;0.0847;-0.6838;
600.3000;0.0920;-0.6705;
600.6000;0.0879;-0.6815;
600.9000;0.0879;-0.6860;
601.2000;0.0847;-0.6970;
601.5000;0.0855;-0.7081;
601.8000;0.0871;-0.7081;
602.1000;0.0847;-0.7125;
602.4000;0.0855;-0.7258;
602.7000;0.0863;-0.7391;
603.0000;0.0830;-0.7568;
603.3000;0.0871;-0.7524;
603.6000;0.0847;-0.7678;
603.9000;0.0814;-0.7767;
604.2000;0.0847;-0.7723;
604.5000;0.0806;-0.7811;
604.8000;0.0822;-0.7767;
605.1000;0.0822;-0.7701;
605.4000;0.0757;-0.7811;
605.7000;0.0806;-0.7678;
606.0000;0.0798;-0.7745;
606.3000;0.0790;-0.7723;
606.6000;0.0790;-0.7789;
606.9000;0.0822;-0.7723;
607.2000;0.0814;-0.7767;
607.5000;0.0773;-0.7878;
607.8000;0.0806;-0.7833;
608.1000;0.0806;-0.7900;
608.4000;0.0830;-0.7878;
608.7000;0.0773;-0.8010;
609.0000;0.0814;-0.8055;
609.3000;0.0790;-0.8121;
609.6000;0.0814;-0.8033;
609.9000;0.0798;-0.8010;
610.2000;0.0928;-0.7767;
610.5000;0.0781;-0.8033;
610.8000;0.0798;-0.8033;
611.1000;0.0790;-0.8055;
611.4000;0.0790;-0.8033;
611.7000;0.0806;-0.7966;
612.0000;0.0765;-0.8143;
612.3000;0.0773;-0.8121;
612.6000;0.0855;-0.7922;
612.9000;0.0749;-0.8187;
613.2000;0.0765;-0.8121;
613.5000;0.0643;-0.8364;
613.8000;0.0847;-0.7811;
614.1000;0.0790;-0.8010;
614.4000;0.0757;-0.8077;
614.7000;0.0659;-0.8254;
615.0000;0.0790;-0.7855;
615.3000;0.0765;-0.7944;
615.6000;0.0708;-0.8143;
615.9000;0.0814;-0.7966;
616.2000;0.0749;-0.8121;
616.5000;0.0790;-0.7988;
616.8000;0.0733;-0.8077;
617.1000;0.0781;-0.8010;
617.4000;0.0790;-0.8077;
617.7000;0.0692;-0.8298;
618.0000;0.0765;-0.8187;
618.3000;0.0790;-0.8077;
618.6000;0.0741;-0.8210;
618.9000;0.0749;-0.8210;
619.2000;0.0692;-0.8276;
619.5000;0.0830;-0.7966;
619.8000;0.0781;-0.8077;
620.1000;0.0781;-0.8099;
620.4000;0.0765;-0.8143;
620.7000;0.0749;-0.8165;
621.0000;0.0773;-0.8165;
621.3000;0.0757;-0.8210;
621.6000;0.0741;-0.8165;
621.9000;0.0765;-0.8055;
622.2000;0.0692;-0.8143;
622.5000;0.0757;-0.8055;
622.8000;0.0765;-0.8121;
623.1000;0.0765;-0.8099;
623.4000;0.0757;-0.8033;
623.7000;0.0765;-0.8121;
624.0000;0.0765;-0.8165;
624.3000;0.0749;-0.8232;
624.6000;0.0757;-0.8232;
624.9000;0.0790;-0.8143;
625.2000;0.0773;-0.8254;
625.5000;0.0749;-0.8298;
625.8000;0.0765;-0.8320;
626.1000;0.0765;-0.8364;
626.4000;0.0879;-0.8077;
626.7000;0.0765;-0.8342;
627.0000;0.0806;-0.8210;
627.3000;0.0724;-0.8298;
627.6000;0.0741;-0.8320;
627.9000;0.0757;-0.8276;
628.2000;0.0749;-0.8254;
628.5000;0.0733;-0.8298;
628.8000;0.0773;-0.8187;
629.1000;0.0741;-0.8298;
629.4000;0.0651;-0.8431;
629.7000;0.0733;-0.8187;
630.0000;0.0749;-0.8121;
630.3000;0.0749;-0.8121;
630.6000;0.0757;-0.8210;
630.9000;0.0757;-0.8254;
631.2000;0.0749;-0.8342;
631.5000;0.0659;-0.8630;
631.8000;0.0757;-0.8387;
632.1000;0.0741;-0.8431;
632.4000;0.0822;-0.8121;
632.7000;0.0741;-0.8254;
633.0000;0.0733;-0.8298;
633.3000;0.0741;-0.8254;
633.6000;0.0806;-0.8143;
633.9000;0.0757;-0.8276;
634.2000;0.0757;-0.8165;
634.5000;0.0708;-0.8254;
634.8000;0.0798;-0.8099;
635.1000;0.0700;-0.8409;
635.4000;0.0749;-0.8298;
635.7000;0.0749;-0.8364;
636.0000;0.0757;-0.8298;
636.3000;0.0700;-0.8475;
636.6000;0.0749;-0.8276;
636.9000;0.0749;-0.8342;
637.2000;0.0741;-0.8342;
637.5000;0.0733;-0.8342;
637.8000;0.0741;-0.8276;
638.1000;0.0765;-0.8210;
638.4000;0.0773;-0.8099;
638.7000;0.0781;-0.8143;
639.0000;0.0741;-0.8320;
639.3000;0.0749;-0.8342;
639.6000;0.0757;-0.8387;
639.9000;0.0757;-0.8541;
640.2000;0.0781;-0.8431;
640.5000;0.0757;-0.8387;
640.8000;0.0741;-0.8342;
641.1000;0.0741;-0.8298;
641.4000;0.0716;-0.8364;
641.7000;0.0741;-0.8298;
642.0000;0.0741;-0.8276;
642.3000;0.0749;-0.8254;
642.6000;0.0676;-0.8475;
642.9000;0.0749;-0.8298;
643.2000;0.0798;-0.8254;
643.5000;0.0749;-0.8387;
643.8000;0.0749;-0.8387;
644.1000;0.0757;-0.8298;
644.4000;0.0765;-0.8232;
644.7000;0.0757;-0.8210;
645.0000;0.0741;-0.8232;
645.3000;0.0724;-0.8232;
645.6000;0.0765;-0.8187;
645.9000;0.0733;-0.8276;
646.2000;0.0741;-0.8298;
646.5000;0.0733;-0.8254;
646.8000;0.0741;-0.8254;
647.1000;0.0749;-0.8232;
647.4000;0.0733;-0.8320;
647.7000;0.0741;-0.8320;
648.0000;0.0724;-0.8320;
648.3000;0.0733;-0.8276;
648.6000;0.0757;-0.8210;
648.9000;0.0741;-0.8210;
649.2000;0.0741;-0.8210;
649.5000;0.0757;-0.8187;
649.8000;0.0724;-0.8276;
650.1000;0.0749;-0.8210;
650.4000;0.0749;-0.8298;
650.7000;0.0724;-0.8210;
651.0000;0.0749;-0.8121;
651.3000;0.0741;-0.8055;
651.6000;0.0733;-0.8033;
651.9000;0.0733;-0.7966;
652.2000;0.0716;-0.8055;
652.5000;0.0741;-0.8010;
652.8000;0.0724;-0.8077;
653.1000;0.0724;-0.8121;
653.4000;0.0741;-0.8143;
653.7000;0.0716;-0.8187;
654.0000;0.0765;-0.8077;
654.3000;0.0741;-0.8099;
654.6000;0.0724;-0.8099;
654.9000;0.0700;-0.8143;
655.2000;0.0741;-0.8055;
655.5000;0.0733;-0.8033;
655.8000;0.0724;-0.7988;
656.1000;0.0724;-0.8055;
656.4000;0.0708;-0.7988;
656.7000;0.0708;-0.7922;
657.0000;0.0733;-0.7966;
657.3000;0.0773;-0.7878;
657.6000;0.0708;-0.8010;
657.9000;0.0741;-0.7900;
658.2000;0.0733;-0.7922;
658.5000;0.0708;-0.7966;
658.8000;0.0733;-0.7922;
659.1000;0.0741;-0.7922;
659.4000;0.0749;-0.7944;
659.7000;0.0692;-0.8121;
660.0000;0.0749;-0.8055;
660.3000;0.0724;-0.8055;
660.6000;0.0741;-0.8055;
660.9000;0.0716;-0.8077;
661.2000;0.0700;-0.8077;
661.5000;0.0749;-0.8033;
661.8000;0.0733;-0.8143;
662.1000;0.0773;-0.8121;
662.4000;0.0733;-0.8276;
662.7000;0.0733;-0.8298;
663.0000;0.0733;-0.8298;
663.3000;0.0733;-0.8320;
663.6000;0.0700;-0.8409;
663.9000;0.0667;-0.8409;
664.2000;0.0733;-0.8298;
664.5000;0.0716;-0.8254;
664.8000;0.0724;-0.8298;
665.1000;0.0724;-0.8210;
665.4000;0.0708;-0.8210;
665.7000;0.0627;-0.8409;
666.0000;0.0749;-0.8077;
666.3000;0.0733;-0.8143;
666.6000;0.0733;-0.8143;
666.9000;0.0708;-0.8121;
667.2000;0.0716;-0.8165;
667.5000;0.0692;-0.8254;
667.8000;0.0724;-0.8232;
668.1000;0.0716;-0.8276;
668.4000;0.0692;-0.8342;
668.7000;0.0724;-0.8254;
669.0000;0.0692;-0.8387;
669.3000;0.0838;-0.7988;
669.6000;0.0765;-0.8121;
669.9000;0.0619;-0.8497;
670.2000;0.0659;-0.8320;
670.5000;0.0716;-0.8165;
670.8000;0.0708;-0.8165;
671.1000;0.0684;-0.8298;
671.4000;0.0708;-0.8165;
671.7000;0.0724;-0.8033;
672.0000;0.0741;-0.8010;
672.3000;0.0724;-0.8010;
672.6000;0.0700;-0.8165;
672.9000;0.0700;-0.8165;
673.2000;0.0765;-0.8055;
673.5000;0.0733;-0.8276;
673.8000;0.0716;-0.8364;
674.1000;0.0676;-0.8387;
674.4000;0.0741;-0.8210;
674.7000;0.0724;-0.8187;
675.0000;0.0635;-0.8387;
675.3000;0.0708;-0.8210;
675.6000;0.0781;-0.8099;
675.9000;0.0619;-0.8453;
676.2000;0.0733;-0.8143;
676.5000;0.0749;-0.8055;
676.8000;0.0700;-0.8033;
677.1000;0.0749;-0.7922;
677.4000;0.0724;-0.8055;
677.7000;0.0741;-0.7988;
678.0000;0.0733;-0.7966;
678.3000;0.0724;-0.7988;
678.6000;0.0724;-0.8010;
678.9000;0.0741;-0.7966;
679.2000;0.0741;-0.7966;
679.5000;0.0733;-0.7922;
679.8000;0.0733;-0.7966;
680.1000;0.0724;-0.8121;
680.4000;0.0708;-0.8121;
680.7000;0.0773;-0.7922;
681.0000;0.0724;-0.7944;
681.3000;0.0749;-0.7944;
681.6000;0.0724;-0.7988;
681.9000;0.0659;-0.8187;
682.2000;0.0708;-0.8077;
682.5000;0.0733;-0.8033;
682.8000;0.0724;-0.8187;
683.1000;0.0724;-0.8121;
683.4000;0.0741;-0.8033;
683.7000;0.0757;-0.7966;
684.0000;0.0749;-0.7966;
684.3000;0.0708;-0.7988;
684.6000;0.0741;-0.7966;
684.9000;0.0773;-0.7922;
685.2000;0.0733;-0.8010;
685.5000;0.0806;-0.7745;
685.8000;0.0724;-0.7922;
686.1000;0.0749;-0.7922;
686.4000;0.0733;-0.7922;
686.7000;0.0757;-0.7811;
687.0000;0.0708;-0.7878;
687.3000;0.0716;-0.7900;
687.6000;0.0684;-0.7922;
687.9000;0.0814;-0.7701;
688.2000;0.0733;-0.7966;
688.5000;0.0708;-0.8033;
688.8000;0.0667;-0.8055;
689.1000;0.0724;-0.7944;
689.4000;0.0700;-0.8099;
689.7000;0.0659;-0.8187;
690.0000;0.0700;-0.8010;
690.3000;0.0676;-0.8055;
690.6000;0.0724;-0.8010;
690.9000;0.0838;-0.7701;
691.2000;0.0716;-0.7944;
691.5000;0.0708;-0.7966;
691.8000;0.0700;-0.8055;
692.1000;0.0716;-0.8033;
692.4000;0.0716;-0.7988;
692.7000;0.0716;-0.7966;
693.0000;0.0684;-0.8055;
693.3000;0.0757;-0.7966;
693.6000;0.0692;-0.8165;
693.9000;0.0741;-0.7966;
694.2000;0.0733;-0.7944;
694.5000;0.0733;-0.7900;
694.8000;0.0724;-0.7922;
695.1000;0.0716;-0.8010;
695.4000;0.0790;-0.7811;
695.7000;0.0700;-0.8055;
696.0000;0.0733;-0.8055;
696.3000;0.0814;-0.7767;
696.6000;0.0724;-0.7944;
696.9000;0.0798;-0.7701;
697.2000;0.0741;-0.7833;
697.5000;0.0724;-0.7878;
697.8000;0.0716;-0.7922;
698.1000;0.0724;-0.8033;
698.4000;0.0716;-0.8055;
698.7000;0.0716;-0.7966;
699.0000;0.0659;-0.7988;
699.3000;0.0716;-0.7789;
699.6000;0.0692;-0.7811;
699.9000;0.0708;-0.7745;
700.2000;0.0692;-0.7723;
700.5000;0.0724;-0.7590;
700.8000;0.0667;-0.7701;
701.1000;0.0733;-0.7634;
701.4000;0.0708;-0.7701;
701.7000;0.0708;-0.7767;
702.0000;0.0716;-0.7701;
702.3000;0.0741;-0.7701;
702.6000;0.0708;-0.7811;
702.9000;0.0757;-0.7678;
703.2000;0.0724;-0.7811;
703.5000;0.0749;-0.7811;
703.8000;0.0733;-0.7789;
704.1000;0.0765;-0.7767;
704.4000;0.0716;-0.7833;
704.7000;0.0724;-0.7833;
705.0000;0.0741;-0.7811;
705.3000;0.0749;-0.7678;
705.6000;0.0741;-0.7678;
705.9000;0.0749;-0.7745;
706.2000;0.0749;-0.7767;
706.5000;0.0733;-0.7767;
706.8000;0.0716;-0.7723;
707.1000;0.0716;-0.7745;
707.4000;0.0716;-0.7723;
707.7000;0.0700;-0.7767;
708.0000;0.0806;-0.7501;
708.3000;0.0733;-0.7745;
708.6000;0.0765;-0.7745;
708.9000;0.0741;-0.7767;
709.2000;0.0749;-0.7723;
709.5000;0.0741;-0.7745;
709.8000;0.0716;-0.7811;
710.1000;0.0667;-0.8010;
710.4000;0.0708;-0.7900;
710.7000;0.0635;-0.8055;
711.0000;0.0741;-0.7789;
711.3000;0.0733;-0.7811;
711.6000;0.0619;-0.8143;
711.9000;0.0749;-0.7855;
712.2000;0.0692;-0.7988;
712.5000;0.0830;-0.7678;
712.8000;0.0716;-0.7833;
713.1000;0.0716;-0.7878;
713.4000;0.0733;-0.7878;
713.7000;0.0716;-0.7922;
714.0000;0.0700;-0.8055;
714.3000;0.0822;-0.7900;
714.6000;0.0724;-0.8055;
714.9000;0.0765;-0.7922;
715.2000;0.0684;-0.8143;
715.5000;0.0733;-0.8010;
715.8000;0.0716;-0.8143;
716.1000;0.0733;-0.8010;
716.4000;0.0700;-0.8121;
716.7000;0.0716;-0.8077;
717.0000;0.0708;-0.8033;
717.3000;0.0733;-0.7966;
717.6000;0.0741;-0.7966;
717.9000;0.0724;-0.7966;
718.2000;0.0716;-0.7944;
718.5000;0.0708;-0.7900;
718.8000;0.0708;-0.8010;
719.1000;0.0741;-0.7855;
719.4000;0.0733;-0.7855;
719.7000;0.0676;-0.7988;
720.0000;0.0667;-0.7966;
720.3000;0.0724;-0.7789;
720.6000;0.0724;-0.7811;
720.9000;0.0765;-0.7701;
721.2000;0.0724;-0.7745;
721.5000;0.0716;-0.7767;
721.8000;0.0724;-0.7767;
722.1000;0.0659;-0.7944;
722.4000;0.0733;-0.7789;
722.7000;0.0733;-0.7833;
723.0000;0.0716;-0.7789;
723.3000;0.0716;-0.7767;
723.6000;0.0716;-0.7789;
723.9000;0.0716;-0.7811;
724.2000;0.0741;-0.7767;
724.5000;0.0733;-0.7811;
724.8000;0.0798;-0.7678;
725.1000;0.0741;-0.7811;
725.4000;0.0741;-0.7767;
725.7000;0.0733;-0.7745;
726.0000;0.0798;-0.7546;
726.3000;0.0724;-0.7767;
726.6000;0.0765;-0.7723;
726.9000;0.0716;-0.7878;
727.2000;0.0716;-0.7900;
727.5000;0.0651;-0.8010;
727.8000;0.0773;-0.7767;
728.1000;0.0667;-0.7988;
728.4000;0.0741;-0.7855;
728.7000;0.0700;-0.7922;
729.0000;0.0724;-0.7789;
729.3000;0.0741;-0.7767;
729.6000;0.0627;-0.8033;
729.9000;0.0724;-0.7789;
730.2000;0.0749;-0.7811;
730.5000;0.0749;-0.7855;
730.8000;0.0724;-0.7855;
731.1000;0.0676;-0.7944;
731.4000;0.0741;-0.7855;
731.7000;0.0749;-0.7811;
732.0000;0.0684;-0.8010;
732.3000;0.0724;-0.7878;
732.6000;0.0684;-0.8033;
732.9000;0.0708;-0.7988;
733.2000;0.0757;-0.7833;
733.5000;0.0684;-0.7966;
733.8000;0.0708;-0.7900;
734.1000;0.0700;-0.7944;
734.4000;0.0716;-0.7789;
734.7000;0.0562;-0.8210;
735.0000;0.0708;-0.7789;
735.3000;0.0724;-0.7701;
735.6000;0.0700;-0.7855;
735.9000;0.0700;-0.7900;
736.2000;0.0847;-0.7723;
736.5000;0.0692;-0.8121;
736.8000;0.0684;-0.8077;
737.1000;0.0724;-0.8033;
737.4000;0.0733;-0.7966;
737.7000;0.0716;-0.8033;
738.0000;0.0684;-0.8055;
738.3000;0.0700;-0.7988;
738.6000;0.0757;-0.7944;
738.9000;0.0765;-0.7966;
739.2000;0.0741;-0.8010;
739.5000;0.0635;-0.8165;
739.8000;0.0724;-0.7944;
740.1000;0.0724;-0.7900;
740.4000;0.0765;-0.7767;
740.7000;0.0700;-0.7922;
741.0000;0.0716;-0.7878;
741.3000;0.0700;-0.7900;
741.6000;0.0716;-0.7922;
741.9000;0.0765;-0.7811;
742.2000;0.0708;-0.7944;
742.5000;0.0700;-0.7833;
742.8000;0.0700;-0.7833;
743.1000;0.0724;-0.7833;
743.4000;0.0741;-0.7723;
743.7000;0.0741;-0.7701;
744.0000;0.0741;-0.7701;
744.3000;0.0635;-0.7966;
744.6000;0.0733;-0.7701;
744.9000;0.0708;-0.7833;
745.2000;0.0708;-0.7900;
745.5000;0.0741;-0.7767;
745.8000;0.0749;-0.7745;
746.1000;0.0733;-0.7767;
746.4000;0.0733;-0.7789;
746.7000;0.0749;-0.7723;
747.0000;0.0757;-0.7656;
747.3000;0.0700;-0.7900;
747.6000;0.0749;-0.7767;
747.9000;0.0724;-0.7855;
748.2000;0.0749;-0.7855;
748.5000;0.0724;-0.7900;
748.8000;0.0773;-0.7789;
749.1000;0.0724;-0.7900;
749.4000;0.0724;-0.7878;
749.7000;0.0733;-0.7944;
750.0000;0.0716;-0.8033;
750.3000;0.0741;-0.8010;
750.6000;0.0651;-0.8298;
750.9000;0.0700;-0.8210;
751.2000;0.0700;-0.8143;
751.5000;0.0684;-0.8121;
751.8000;0.0708;-0.8077;
752.1000;0.0716;-0.8077;
752.4000;0.0724;-0.8010;
752.7000;0.0724;-0.8010;
753.0000;0.0741;-0.8033;
753.3000;0.0716;-0.8077;
753.6000;0.0790;-0.7988;
753.9000;0.0708;-0.8165;
754.2000;0.0708;-0.8187;
754.5000;0.0773;-0.7988;
754.8000;0.0708;-0.8099;
755.1000;0.0724;-0.8143;
755.4000;0.0733;-0.8033;
755.7000;0.0733;-0.8010;
756.0000;0.0724;-0.7988;
756.3000;0.0700;-0.7988;
756.6000;0.0708;-0.7988;
756.9000;0.0659;-0.8165;
757.2000;0.0741;-0.7988;
757.5000;0.0700;-0.7988;
757.8000;0.0765;-0.7900;
758.1000;0.0716;-0.7988;
758.4000;0.0716;-0.8033;
758.7000;0.0716;-0.8033;
759.0000;0.0716;-0.8010;
759.3000;0.0765;-0.7789;
759.6000;0.0765;-0.7811;
759.9000;0.0708;-0.7922;
760.2000;0.0651;-0.8033;
760.5000;0.0733;-0.7944;
760.8000;0.0716;-0.8055;
761.1000;0.0741;-0.8143;
761.4000;0.0724;-0.8165;
761.7000;0.0724;-0.8210;
762.0000;0.0724;-0.8254;
762.3000;0.0790;-0.8055;
762.6000;0.0716;-0.8232;
762.9000;0.0700;-0.8210;
763.2000;0.0716;-0.8165;
763.5000;0.0790;-0.7966;
763.8000;0.0700;-0.8254;
764.1000;0.0716;-0.8232;
764.4000;0.0733;-0.8165;
764.7000;0.0733;-0.8232;
765.0000;0.0716;-0.8254;
765.3000;0.0724;-0.8254;
765.6000;0.0733;-0.8276;
765.9000;0.0724;-0.8232;
766.2000;0.0692;-0.8276;
766.5000;0.0651;-0.8342;
766.8000;0.0724;-0.8077;
767.1000;0.0716;-0.8033;
767.4000;0.0716;-0.8077;
767.7000;0.0757;-0.7966;
768.0000;0.0716;-0.8055;
768.3000;0.0700;-0.8143;
768.6000;0.0684;-0.8165;
768.9000;0.0586;-0.8320;
769.2000;0.0708;-0.7966;
769.5000;0.0733;-0.7855;
769.8000;0.0749;-0.7811;
770.1000;0.0676;-0.8033;
770.4000;0.0700;-0.8055;
770.7000;0.0708;-0.8121;
771.0000;0.0700;-0.8210;
771.3000;0.0724;-0.8232;
771.6000;0.0806;-0.8033;
771.9000;0.0716;-0.8298;
772.2000;0.0741;-0.8254;
772.5000;0.0733;-0.8143;
772.8000;0.0741;-0.8077;
773.1000;0.0708;-0.8077;
773.4000;0.0741;-0.8077;
773.7000;0.0733;-0.8099;
774.0000;0.0733;-0.8077;
774.3000;0.0741;-0.8033;
774.6000;0.0708;-0.8055;
774.9000;0.0838;-0.7745;
775.2000;0.0708;-0.8033;
775.5000;0.0724;-0.8055;
775.8000;0.0716;-0.8121;
776.1000;0.0724;-0.8099;
776.4000;0.0724;-0.8165;
776.7000;0.0716;-0.8143;
777.0000;0.0724;-0.8143;
777.3000;0.0733;-0.8165;
777.6000;0.0822;-0.8077;
777.9000;0.0700;-0.8298;
778.2000;0.0724;-0.8276;
778.5000;0.0741;-0.8320;
778.8000;0.0733;-0.8298;
779.1000;0.0741;-0.8254;
779.4000;0.0733;-0.8298;
779.7000;0.0724;-0.8276;
780.0000;0.0749;-0.8187;
780.3000;0.0700;-0.8232;
780.6000;0.0733;-0.8055;
780.9000;0.0700;-0.8143;
781.2000;0.0790;-0.7944;
781.5000;0.0749;-0.8055;
781.8000;0.0659;-0.8298;
782.1000;0.0700;-0.8165;
782.4000;0.0806;-0.7922;
782.7000;0.0733;-0.8121;
783.0000;0.0724;-0.8077;
783.3000;0.0790;-0.7900;
783.6000;0.0708;-0.8099;
783.9000;0.0716;-0.8033;
784.2000;0.0733;-0.7988;
784.5000;0.0692;-0.8010;
784.8000;0.0716;-0.7988;
785.1000;0.0724;-0.7833;
785.4000;0.0724;-0.7900;
785.7000;0.0716;-0.8010;
786.0000;0.0724;-0.7988;
786.3000;0.0798;-0.7833;
786.6000;0.0692;-0.8099;
786.9000;0.0708;-0.8121;
787.2000;0.0733;-0.8055;
787.5000;0.0643;-0.8232;
787.8000;0.0716;-0.8033;
788.1000;0.0716;-0.8010;
788.4000;0.0798;-0.7878;
788.7000;0.0716;-0.8077;
789.0000;0.0716;-0.8055;
789.3000;0.0733;-0.7944;
789.6000;0.0724;-0.7988;
789.9000;0.0716;-0.7988;
790.2000;0.0741;-0.7922;
790.5000;0.0724;-0.7944;
790.8000;0.0749;-0.7878;
791.1000;0.0733;-0.7833;
791.4000;0.0716;-0.7855;
791.7000;0.0724;-0.7900;
792.0000;0.0692;-0.7988;
792.3000;0.0684;-0.8010;
792.6000;0.0733;-0.7944;
792.9000;0.0724;-0.7878;
793.2000;0.0724;-0.7833;
793.5000;0.0733;-0.7789;
793.8000;0.0724;-0.7789;
794.1000;0.0700;-0.7878;
794.4000;0.0700;-0.7922;
794.7000;0.0700;-0.7966;
795.0000;0.0724;-0.7966;
795.3000;0.0749;-0.7855;
795.6000;0.0602;-0.8187;
795.9000;0.0724;-0.7900;
796.2000;0.0684;-0.7922;
796.5000;0.0708;-0.7833;
796.8000;0.0733;-0.7745;
797.1000;0.0708;-0.7767;
797.4000;0.0716;-0.7745;
797.7000;0.0814;-0.7612;
798.0000;0.0716;-0.7833;
798.3000;0.0716;-0.7745;
798.6000;0.0708;-0.7789;
798.9000;0.0724;-0.7833;
799.2000;0.0708;-0.7944;
799.5000;0.0676;-0.8055;
799.8000;0.0741;-0.7900;
800.1000;0.0700;-0.7966;
800.4000;0.0749;-0.7855;
800.7000;0.0716;-0.7922;
801.0000;0.0724;-0.7988;
801.3000;0.0708;-0.7966;
801.6000;0.0790;-0.7811;
801.9000;0.0749;-0.7944;
802.2000;0.0708;-0.8010;
802.5000;0.0651;-0.8165;
802.8000;0.0692;-0.8143;
803.1000;0.0708;-0.8099;
803.4000;0.0724;-0.8077;
803.7000;0.0798;-0.7811;
804.0000;0.0708;-0.8010;
804.3000;0.0741;-0.7966;
804.6000;0.0716;-0.8055;
804.9000;0.0724;-0.8121;
805.2000;0.0790;-0.7922;
805.5000;0.0627;-0.8232;
805.8000;0.0700;-0.7944;
806.1000;0.0684;-0.8121;
806.4000;0.0635;-0.8342;
806.7000;0.0708;-0.8165;
807.0000;0.0741;-0.8033;
807.3000;0.0724;-0.8099;
807.6000;0.0716;-0.8187;
807.9000;0.0692;-0.8232;
808.2000;0.0716;-0.8187;
808.5000;0.0692;-0.8210;
808.8000;0.0692;-0.8232;
809.1000;0.0708;-0.8143;
809.4000;0.0700;-0.8099;
809.7000;0.0790;-0.7922;
810.0000;0.0724;-0.8055;
810.3000;0.0667;-0.8254;
810.6000;0.0741;-0.8033;
810.9000;0.0806;-0.7789;
811.2000;0.0749;-0.7966;
811.5000;0.0724;-0.8033;
811.8000;0.0724;-0.8010;
812.1000;0.0716;-0.8033;
812.4000;0.0659;-0.8210;
812.7000;0.0716;-0.8210;
813.0000;0.0733;-0.8121;
813.3000;0.0724;-0.8121;
813.6000;0.0700;-0.8121;
813.9000;0.0659;-0.8254;
814.2000;0.0733;-0.8077;
814.5000;0.0733;-0.8033;
814.8000;0.0676;-0.8121;
815.1000;0.0741;-0.7900;
815.4000;0.0724;-0.7944;
815.7000;0.0700;-0.8010;
816.0000;0.0741;-0.7988;
816.3000;0.0733;-0.7944;
816.6000;0.0733;-0.7988;
816.9000;0.0733;-0.8055;
817.2000;0.0733;-0.8010;
817.5000;0.0700;-0.8099;
817.8000;0.0724;-0.7944;
818.1000;0.0716;-0.7966;
818.4000;0.0716;-0.7944;
818.7000;0.0749;-0.7944;
819.0000;0.0716;-0.8055;
819.3000;0.0724;-0.8055;
819.6000;0.0757;-0.8010;
819.9000;0.0716;-0.8055;
820.2000;0.0733;-0.7900;
820.5000;0.0733;-0.7922;
820.8000;0.0847;-0.7701;
821.1000;0.0765;-0.7900;
821.4000;0.0733;-0.7966;
821.7000;0.0733;-0.7966;
822.0000;0.0700;-0.8055;
822.3000;0.0733;-0.8010;
822.6000;0.0692;-0.8099;
822.9000;0.0708;-0.8033;
823.2000;0.0676;-0.8143;
823.5000;0.0708;-0.8010;
823.8000;0.0700;-0.8010;
824.1000;0.0773;-0.7811;
824.4000;0.0733;-0.7900;
824.7000;0.0781;-0.7745;
825.0000;0.0806;-0.7568;
825.3000;0.0708;-0.7811;
825.6000;0.0749;-0.7656;
825.9000;0.0716;-0.7723;
826.2000;0.0733;-0.7767;
826.5000;0.0741;-0.7745;
826.8000;0.0724;-0.7789;
827.1000;0.0733;-0.7855;
827.4000;0.0741;-0.7723;
827.7000;0.0635;-0.7900;
828.0000;0.0733;-0.7701;
828.3000;0.0716;-0.7789;
828.6000;0.0757;-0.7723;
828.9000;0.0667;-0.7767;
829.2000;0.0700;-0.7745;
829.5000;0.0733;-0.7634;
829.8000;0.0708;-0.7811;
830.1000;0.0741;-0.7789;
830.4000;0.0757;-0.7811;
830.7000;0.0700;-0.7878;
831.0000;0.0708;-0.7922;
831.3000;0.0635;-0.8143;
831.6000;0.0700;-0.8055;
831.9000;0.0716;-0.7966;
832.2000;0.0814;-0.7701;
832.5000;0.0700;-0.7878;
832.8000;0.0724;-0.7745;
833.1000;0.0684;-0.7811;
833.4000;0.0716;-0.7789;
833.7000;0.0724;-0.7767;
834.0000;0.0667;-0.7944;
834.3000;0.0716;-0.7833;
834.6000;0.0741;-0.7767;
834.9000;0.0716;-0.7767;
835.2000;0.0741;-0.7701;
835.5000;0.0765;-0.7678;
835.8000;0.0724;-0.7767;
836.1000;0.0684;-0.7855;
836.4000;0.0708;-0.7833;
836.7000;0.0716;-0.7767;
837.0000;0.0733;-0.7745;
837.3000;0.0724;-0.7789;
837.6000;0.0733;-0.7789;
837.9000;0.0724;-0.7789;
838.2000;0.0716;-0.7833;
838.5000;0.0741;-0.7745;
838.8000;0.0733;-0.7723;
839.1000;0.0733;-0.7678;
839.4000;0.0700;-0.7745;
839.7000;0.0700;-0.7745;
840.0000;0.0708;-0.7789;
840.3000;0.0781;-0.7701;
840.6000;0.0749;-0.7833;
840.9000;0.0741;-0.7878;
841.2000;0.0733;-0.7833;
841.5000;0.0716;-0.7833;
841.8000;0.0733;-0.7855;
842.1000;0.0790;-0.7701;
842.4000;0.0749;-0.7833;
842.7000;0.0716;-0.7944;
843.0000;0.0684;-0.8055;
843.3000;0.0700;-0.7988;
843.6000;0.0781;-0.7900;
843.9000;0.0700;-0.8010;
844.2000;0.0733;-0.7922;
844.5000;0.0724;-0.7966;
844.8000;0.0708;-0.7922;
845.1000;0.0781;-0.7789;
845.4000;0.0741;-0.7833;
845.7000;0.0667;-0.8077;
846.0000;0.0806;-0.7723;
846.3000;0.0684;-0.7944;
846.6000;0.0700;-0.7878;
846.9000;0.0757;-0.7789;
847.2000;0.0676;-0.8077;
847.5000;0.0733;-0.7855;
847.8000;0.0700;-0.7922;
848.1000;0.0724;-0.7855;
848.4000;0.0741;-0.7900;
848.7000;0.0724;-0.8033;
849.0000;0.0741;-0.8033;
849.3000;0.0724;-0.8055;
849.6000;0.0757;-0.8033;
849.9000;0.0781;-0.7988;
850.2000;0.0708;-0.7944;
850.5000;0.0708;-0.7878;
850.8000;0.0724;-0.7922;
851.1000;0.0684;-0.8033;
851.4000;0.0700;-0.7966;
851.7000;0.0708;-0.7878;
852.0000;0.0708;-0.7767;
852.3000;0.0708;-0.7855;
852.6000;0.0708;-0.7922;
852.9000;0.0733;-0.7922;
853.2000;0.0716;-0.7966;
853.5000;0.0700;-0.8055;
853.8000;0.0757;-0.7900;
854.1000;0.0724;-0.7944;
854.4000;0.0676;-0.8033;
854.7000;0.0724;-0.7900;
855.0000;0.0708;-0.7944;
855.3000;0.0700;-0.7922;
855.6000;0.0733;-0.7855;
855.9000;0.0724;-0.7878;
856.2000;0.0635;-0.8055;
856.5000;0.0724;-0.7922;
856.8000;0.0692;-0.7966;
857.1000;0.0716;-0.7922;
857.4000;0.0716;-0.7855;
857.7000;0.0700;-0.7944;
858.0000;0.0708;-0.7944;
858.3000;0.0724;-0.7988;
858.6000;0.0716;-0.7966;
858.9000;0.0749;-0.7833;
859.2000;0.0692;-0.7944;
859.5000;0.0733;-0.7900;
859.8000;0.0676;-0.8143;
860.1000;0.0708;-0.8077;
860.4000;0.0724;-0.8055;
860.7000;0.0684;-0.8099;
861.0000;0.0724;-0.8033;
861.3000;0.0741;-0.7966;
861.6000;0.0708;-0.8033;
861.9000;0.0635;-0.8187;
862.2000;0.0733;-0.7966;
862.5000;0.0708;-0.7966;
862.8000;0.0708;-0.7922;
863.1000;0.0716;-0.7900;
863.4000;0.0733;-0.7855;
863.7000;0.0684;-0.8033;
864.0000;0.0716;-0.7988;
864.3000;0.0757;-0.7878;
864.6000;0.0741;-0.7900;
864.9000;0.0733;-0.7944;
865.2000;0.0781;-0.7855;
865.5000;0.0708;-0.7988;
865.8000;0.0716;-0.8010;
866.1000;0.0659;-0.8210;
866.4000;0.0741;-0.7966;
866.7000;0.0716;-0.8077;
867.0000;0.0724;-0.8010;
867.3000;0.0741;-0.8055;
867.6000;0.0651;-0.8210;
867.9000;0.0708;-0.8033;
868.2000;0.0676;-0.8187;
868.5000;0.0700;-0.8099;
868.8000;0.0651;-0.8232;
869.1000;0.0733;-0.7988;
869.4000;0.0708;-0.8143;
869.7000;0.0741;-0.8033;
870.0000;0.0749;-0.8055;
870.3000;0.0716;-0.8143;
870.6000;0.0716;-0.8143;
870.9000;0.0822;-0.7900;
871.2000;0.0692;-0.8143;
871.5000;0.0716;-0.8010;
871.8000;0.0700;-0.8121;
872.1000;0.0700;-0.8077;
872.4000;0.0716;-0.8077;
872.7000;0.0724;-0.8033;
873.0000;0.0716;-0.8077;
873.3000;0.0708;-0.8010;
873.6000;0.0716;-0.7900;
873.9000;0.0700;-0.7900;
874.2000;0.0692;-0.7922;
874.5000;0.0724;-0.7855;
874.8000;0.0700;-0.7922;
875.1000;0.0724;-0.7944;
875.4000;0.0741;-0.7988;
875.7000;0.0790;-0.7900;
876.0000;0.0692;-0.8077;
876.3000;0.0724;-0.7988;
876.6000;0.0733;-0.7944;
876.9000;0.0684;-0.8121;
877.2000;0.0716;-0.8055;
877.5000;0.0708;-0.8099;
877.8000;0.0806;-0.7833;
878.1000;0.0708;-0.8033;
878.4000;0.0708;-0.8055;
878.7000;0.0749;-0.7944;
879.0000;0.0733;-0.8033;
879.3000;0.0806;-0.7922;
879.6000;0.0716;-0.8143;
879.9000;0.0741;-0.8143;
880.2000;0.0741;-0.8033;
880.5000;0.0733;-0.8055;
880.8000;0.0749;-0.8143;
881.1000;0.0635;-0.8387;
881.4000;0.0716;-0.8165;
881.7000;0.0724;-0.8099;
882.0000;0.0724;-0.8099;
882.3000;0.0806;-0.7900;
882.6000;0.0724;-0.8121;
882.9000;0.0700;-0.8121;
883.2000;0.0708;-0.8077;
883.5000;0.0724;-0.8033;
883.8000;0.0708;-0.8055;
884.1000;0.0708;-0.8033;
884.4000;0.0733;-0.8077;
884.7000;0.0733;-0.8077;
885.0000;0.0700;-0.8055;
885.3000;0.0781;-0.7900;
885.6000;0.0733;-0.8077;
885.9000;0.0741;-0.8033;
886.2000;0.0724;-0.8055;
886.5000;0.0733;-0.7900;
886.8000;0.0724;-0.7855;
887.1000;0.0814;-0.7723;
887.4000;0.0667;-0.8010;
887.7000;0.0708;-0.7922;
888.0000;0.0716;-0.7900;
888.3000;0.0692;-0.7966;
888.6000;0.0765;-0.7789;
888.9000;0.0700;-0.7966;
889.2000;0.0741;-0.7900;
889.5000;0.0757;-0.7900;
889.8000;0.0757;-0.7878;
890.1000;0.0733;-0.7900;
890.4000;0.0700;-0.7988;
890.7000;0.0724;-0.7988;
891.0000;0.0700;-0.7988;
891.3000;0.0724;-0.7988;
891.6000;0.0790;-0.7900;
891.9000;0.0733;-0.7966;
892.2000;0.0708;-0.8033;
892.5000;0.0692;-0.8099;
892.8000;0.0765;-0.8055;
893.1000;0.0708;-0.8276;
893.4000;0.0724;-0.8232;
893.7000;0.0708;-0.8298;
894.0000;0.0708;-0.8232;
894.3000;0.0773;-0.8010;
894.6000;0.0733;-0.8055;
894.9000;0.0773;-0.7966;
895.2000;0.0700;-0.8121;
895.5000;0.0749;-0.8010;
895.8000;0.0708;-0.8121;
896.1000;0.0790;-0.7922;
896.4000;0.0716;-0.8121;
896.7000;0.0724;-0.8187;
897.0000;0.0724;-0.8320;
897.3000;0.0724;-0.8387;
897.6000;0.0692;-0.8431;
897.9000;0.0692;-0.8342;
898.2000;0.0749;-0.8121;
898.5000;0.0741;-0.8099;
898.8000;0.0741;-0.8165;
899.1000;0.0733;-0.8210;
899.4000;0.0749;-0.8099;
899.7000;0.0716;-0.8165;
900.0000;0.0692;-0.8232;
900.3000;0.0700;-0.8121;
900.6000;0.0716;-0.8077;
900.9000;0.0708;-0.8055;
901.2000;0.0659;-0.8099;
901.5000;0.0716;-0.7944;
901.8000;0.0692;-0.7988;
902.1000;0.0700;-0.8033;
902.4000;0.0676;-0.8143;
902.7000;0.0684;-0.8033;
903.0000;0.0708;-0.7966;
903.3000;0.0586;-0.8210;
903.6000;0.0749;-0.7833;
903.9000;0.0708;-0.7900;
904.2000;0.0814;-0.7767;
904.5000;0.0708;-0.7988;
904.8000;0.0708;-0.8033;
905.1000;0.0708;-0.8077;
905.4000;0.0741;-0.7988;
905.7000;0.0733;-0.7988;
906.0000;0.0733;-0.7966;
906.3000;0.0708;-0.8010;
906.6000;0.0733;-0.8077;
906.9000;0.0724;-0.8187;
907.2000;0.0716;-0.8187;
907.5000;0.0733;-0.8210;
907.8000;0.0724;-0.8187;
908.1000;0.0619;-0.8409;
908.4000;0.0724;-0.8099;
908.7000;0.0741;-0.8121;
909.0000;0.0716;-0.8210;
909.3000;0.0684;-0.8232;
909.6000;0.0741;-0.8099;
909.9000;0.0716;-0.8143;
910.2000;0.0716;-0.8143;
910.5000;0.0733;-0.8187;
910.8000;0.0733;-0.8143;
911.1000;0.0838;-0.7855;
911.4000;0.0708;-0.8187;
911.7000;0.0741;-0.8165;
912.0000;0.0741;-0.8099;
912.3000;0.0716;-0.8232;
912.6000;0.0724;-0.8232;
912.9000;0.0741;-0.8143;
913.2000;0.0741;-0.8143;
913.5000;0.0716;-0.8165;
913.8000;0.0692;-0.8165;
914.1000;0.0700;-0.8143;
914.4000;0.0716;-0.8143;
914.7000;0.0708;-0.8210;
915.0000;0.0781;-0.8077;
915.3000;0.0716;-0.8232;
915.6000;0.0749;-0.8143;
915.9000;0.0724;-0.8143;
916.2000;0.0741;-0.8099;
916.5000;0.0733;-0.8033;
916.8000;0.0724;-0.7988;
917.1000;0.0749;-0.7922;
917.4000;0.0838;-0.7789;
917.7000;0.0708;-0.8143;
918.0000;0.0708;-0.8210;
918.3000;0.0724;-0.8187;
918.6000;0.0724;-0.8121;
918.9000;0.0733;-0.8055;
919.2000;0.0724;-0.7988;
919.5000;0.0749;-0.7988;
919.8000;0.0879;-0.7701;
920.1000;0.0724;-0.8165;
920.4000;0.0716;-0.8165;
920.7000;0.0741;-0.8033;
921.0000;0.0716;-0.8055;
921.3000;0.0716;-0.8033;
921.6000;0.0724;-0.8055;
921.9000;0.0724;-0.8121;
922.2000;0.0773;-0.8010;
922.5000;0.0741;-0.8077;
922.8000;0.0716;-0.8077;
923.1000;0.0749;-0.7988;
923.4000;0.0781;-0.7855;
923.7000;0.0708;-0.7966;
924.0000;0.0708;-0.7966;
924.3000;0.0708;-0.8077;
924.6000;0.0692;-0.8165;
924.9000;0.0733;-0.8077;
925.2000;0.0708;-0.8210;
925.5000;0.0724;-0.8210;
925.8000;0.0781;-0.8055;
926.1000;0.0757;-0.8077;
926.4000;0.0716;-0.8143;
926.7000;0.0692;-0.8143;
927.0000;0.0724;-0.8077;
927.3000;0.0676;-0.8210;
927.6000;0.0741;-0.8010;
927.9000;0.0708;-0.8010;
928.2000;0.0716;-0.7988;
928.5000;0.0724;-0.7966;
928.8000;0.0716;-0.7966;
929.1000;0.0716;-0.7966;
929.4000;0.0708;-0.8055;
929.7000;0.0692;-0.8187;
930.0000;0.0838;-0.7855;
930.3000;0.0708;-0.8143;
930.6000;0.0716;-0.8099;
930.9000;0.0724;-0.8077;
931.2000;0.0741;-0.8055;
931.5000;0.0716;-0.8099;
931.8000;0.0716;-0.7966;
932.1000;0.0724;-0.7855;
932.4000;0.0724;-0.7833;
932.7000;0.0724;-0.7900;
933.0000;0.0692;-0.7922;
933.3000;0.0716;-0.7922;
933.6000;0.0708;-0.7900;
933.9000;0.0700;-0.7878;
934.2000;0.0602;-0.8143;
934.5000;0.0716;-0.7833;
934.8000;0.0716;-0.7767;
935.1000;0.0822;-0.7546;
935.4000;0.0716;-0.7789;
935.7000;0.0781;-0.7656;
936.0000;0.0659;-0.7900;
936.3000;0.0684;-0.7900;
936.6000;0.0708;-0.7878;
936.9000;0.0684;-0.7966;
937.2000;0.0741;-0.7878;
937.5000;0.0684;-0.7966;
937.8000;0.0773;-0.7767;
938.1000;0.0708;-0.7900;
938.4000;0.0651;-0.7988;
938.7000;0.0724;-0.7878;
939.0000;0.0659;-0.8121;
939.3000;0.0708;-0.7900;
939.6000;0.0716;-0.7833;
939.9000;0.0733;-0.7811;
940.2000;0.0724;-0.7833;
940.5000;0.0700;-0.7900;
940.8000;0.0708;-0.7966;
941.1000;0.0765;-0.7900;
941.4000;0.0692;-0.8033;
941.7000;0.0594;-0.8320;
942.0000;0.0716;-0.8077;
942.3000;0.0708;-0.8143;
942.6000;0.0757;-0.8033;
942.9000;0.0724;-0.8099;
943.2000;0.0692;-0.8143;
943.5000;0.0741;-0.8055;
943.8000;0.0724;-0.8010;
944.1000;0.0814;-0.7767;
944.4000;0.0692;-0.8055;
944.7000;0.0838;-0.7789;
945.0000;0.0733;-0.8055;
945.3000;0.0741;-0.7988;
945.6000;0.0724;-0.7988;
945.9000;0.0716;-0.7988;
946.2000;0.0716;-0.8010;
946.5000;0.0708;-0.8010;
946.8000;0.0724;-0.8033;
947.1000;0.0733;-0.8099;
947.4000;0.0765;-0.7966;
947.7000;0.0716;-0.8033;
948.0000;0.0716;-0.7988;
948.3000;0.0651;-0.8187;
948.6000;0.0781;-0.7833;
948.9000;0.0651;-0.8121;
949.2000;0.0724;-0.7988;
949.5000;0.0700;-0.8055;
949.8000;0.0708;-0.8099;
950.1000;0.0724;-0.8077;
950.4000;0.0733;-0.8055;
950.7000;0.0733;-0.8010;
951.0000;0.0724;-0.7966;
951.3000;0.0724;-0.7878;
951.6000;0.0716;-0.7833;
951.9000;0.0692;-0.7922;
952.2000;0.0684;-0.7966;
952.5000;0.0790;-0.7745;
952.8000;0.0741;-0.7833;
953.1000;0.0724;-0.7833;
953.4000;0.0692;-0.7900;
953.7000;0.0692;-0.7900;
954.0000;0.0716;-0.7833;
954.3000;0.0749;-0.7855;
954.6000;0.0716;-0.7855;
954.9000;0.0741;-0.7701;
955.2000;0.0724;-0.7701;
955.5000;0.0708;-0.7723;
955.8000;0.0708;-0.7789;
956.1000;0.0741;-0.7789;
956.4000;0.0716;-0.7900;
956.7000;0.0708;-0.7922;
957.0000;0.0700;-0.7944;
957.3000;0.0741;-0.8010;
957.6000;0.0733;-0.8010;
957.9000;0.0741;-0.8010;
958.2000;0.0724;-0.8077;
958.5000;0.0733;-0.7966;
958.8000;0.0806;-0.7811;
959.1000;0.0724;-0.8055;
959.4000;0.0643;-0.8232;
959.7000;0.0578;-0.8254;
960.0000;0.0749;-0.7833;
960.3000;0.0716;-0.7944;
960.6000;0.0716;-0.7922;
960.9000;0.0749;-0.7789;
961.2000;0.0724;-0.7922;
961.5000;0.0781;-0.7833;
961.8000;0.0627;-0.8254;
962.1000;0.0716;-0.8010;
962.4000;0.0708;-0.7966;
962.7000;0.0708;-0.7966;
963.0000;0.0716;-0.7900;
963.3000;0.0724;-0.7833;
963.6000;0.0676;-0.7855;
963.9000;0.0749;-0.7745;
964.2000;0.0708;-0.7900;
964.5000;0.0724;-0.7811;
964.8000;0.0716;-0.7922;
965.1000;0.0716;-0.8010;
965.4000;0.0733;-0.7922;
965.7000;0.0708;-0.7811;
966.0000;0.0716;-0.7878;
966.3000;0.0741;-0.7789;
966.6000;0.0716;-0.7855;
966.9000;0.0733;-0.7878;
967.2000;0.0692;-0.7944;
967.5000;0.0676;-0.8033;
967.8000;0.0700;-0.8121;
968.1000;0.0716;-0.8055;
968.4000;0.0716;-0.8121;
968.7000;0.0692;-0.8254;
969.0000;0.0724;-0.8055;
969.3000;0.0700;-0.8099;
969.6000;0.0716;-0.7988;
969.9000;0.0724;-0.7900;
970.2000;0.0741;-0.7789;
970.5000;0.0749;-0.7789;
970.8000;0.0757;-0.7723;
971.1000;0.0724;-0.7767;
971.4000;0.0708;-0.7789;
971.7000;0.0716;-0.7900;
972.0000;0.0733;-0.7855;
972.3000;0.0724;-0.7900;
972.6000;0.0716;-0.7922;
972.9000;0.0643;-0.8165;
973.2000;0.0757;-0.7855;
973.5000;0.0716;-0.7988;
973.8000;0.0692;-0.8055;
974.1000;0.0708;-0.7988;
974.4000;0.0708;-0.7944;
974.7000;0.0716;-0.7922;
975.0000;0.0708;-0.8077;
975.3000;0.0651;-0.8187;
975.6000;0.0733;-0.7922;
975.9000;0.0724;-0.8055;
976.2000;0.0733;-0.7988;
976.5000;0.0749;-0.7966;
976.8000;0.0659;-0.8143;
977.1000;0.0716;-0.7922;
977.4000;0.0708;-0.7988;
977.7000;0.0692;-0.8077;
978.0000;0.0716;-0.8010;
978.3000;0.0708;-0.8121;
978.6000;0.0724;-0.8077;
978.9000;0.0643;-0.8320;
979.2000;0.0692;-0.8143;
979.5000;0.0692;-0.8055;
979.8000;0.0741;-0.8010;
980.1000;0.0757;-0.8010;
980.4000;0.0700;-0.8099;
980.7000;0.0741;-0.8010;
981.0000;0.0708;-0.8033;
981.3000;0.0716;-0.7966;
981.6000;0.0749;-0.7922;
981.9000;0.0692;-0.7988;
982.2000;0.0724;-0.7966;
982.5000;0.0716;-0.7988;
982.8000;0.0684;-0.8055;
983.1000;0.0643;-0.8232;
983.4000;0.0733;-0.7966;
983.7000;0.0733;-0.7966;
984.0000;0.0708;-0.7922;
984.3000;0.0749;-0.7767;
984.6000;0.0708;-0.7900;
984.9000;0.0733;-0.7900;
985.2000;0.0708;-0.8055;
985.5000;0.0724;-0.8010;
985.8000;0.0724;-0.8010;
986.1000;0.0594;-0.8342;
986.4000;0.0724;-0.8033;
986.7000;0.0733;-0.8033;
987.0000;0.0757;-0.7922;
987.3000;0.0708;-0.8010;
987.6000;0.0708;-0.7922;
987.9000;0.0700;-0.7900;
988.2000;0.0724;-0.7878;
988.5000;0.0716;-0.7811;
988.8000;0.0708;-0.7811;
989.1000;0.0700;-0.7789;
989.4000;0.0700;-0.7767;
989.7000;0.0724;-0.7745;
990.0000;0.0692;-0.7855;
990.3000;0.0700;-0.7988;
990.6000;0.0741;-0.7900;
990.9000;0.0724;-0.8010;
991.2000;0.0733;-0.7988;
991.5000;0.0684;-0.8121;
991.8000;0.0708;-0.7966;
992.1000;0.0708;-0.8033;
992.4000;0.0741;-0.7922;
992.7000;0.0684;-0.7988;
993.0000;0.0716;-0.7878;
993.3000;0.0790;-0.7656;
993.6000;0.0724;-0.7745;
993.9000;0.0700;-0.7811;
994.2000;0.0724;-0.7833;
994.5000;0.0724;-0.7789;
994.8000;0.0749;-0.7767;
995.1000;0.0724;-0.7789;
995.4000;0.0733;-0.7789;
995.7000;0.0781;-0.7723;
996.0000;0.0724;-0.7811;
996.3000;0.0757;-0.7745;
996.6000;0.0692;-0.7855;
996.9000;0.0741;-0.7745;
997.2000;0.0716;-0.7767;
997.5000;0.0708;-0.7833;
997.8000;0.0716;-0.7922;
998.1000;0.0708;-0.7988;
998.4000;0.0692;-0.8055;
998.7000;0.0733;-0.7922;
999.0000;0.0708;-0.7944;
999.3000;0.0700;-0.7922;
999.6000;0.0667;-0.7944;
999.9000;0.0741;-0.7723;
1000.2000;0.0692;-0.7878;
1000.5000;0.0716;-0.7855;
1000.8000;0.0700;-0.7922;
1001.1000;0.0708;-0.7922;
1001.4000;0.0635;-0.7988;
1001.7000;0.0651;-0.7966;
1002.0000;0.0684;-0.7922;
1002.3000;0.0700;-0.7878;
1002.6000;0.0716;-0.7745;
1002.9000;0.0716;-0.7789;
1003.2000;0.0716;-0.7855;
1003.5000;0.0741;-0.7833;
1003.8000;0.0724;-0.7922;
1004.1000;0.0724;-0.7900;
1004.4000;0.0716;-0.7855;
1004.7000;0.0733;-0.7833;
1005.0000;0.0724;-0.7833;
1005.3000;0.0676;-0.7922;
1005.6000;0.0627;-0.8121;
1005.9000;0.0749;-0.7855;
1006.2000;0.0700;-0.7988;
1006.5000;0.0708;-0.7988;
1006.8000;0.0724;-0.7900;
1007.1000;0.0708;-0.7878;
1007.4000;0.0733;-0.7811;
1007.7000;0.0627;-0.8055;
1008.0000;0.0700;-0.7855;
1008.3000;0.0724;-0.7767;
1008.6000;0.0708;-0.7833;
1008.9000;0.0749;-0.7745;
1009.2000;0.0700;-0.7878;
1009.5000;0.0724;-0.7811;
1009.8000;0.0757;-0.7811;
1010.1000;0.0749;-0.7811;
1010.4000;0.0708;-0.7833;
1010.7000;0.0716;-0.7789;
1011.0000;0.0708;-0.7789;
1011.3000;0.0757;-0.7767;
1011.6000;0.0716;-0.7878;
1011.9000;0.0716;-0.7833;
1012.2000;0.0724;-0.7811;
1012.5000;0.0733;-0.7833;
1012.8000;0.0708;-0.7878;
1013.1000;0.0708;-0.7944;
1013.4000;0.0676;-0.7988;
1013.7000;0.0733;-0.7833;
1014.0000;0.0741;-0.7789;
1014.3000;0.0733;-0.7767;
1014.6000;0.0724;-0.7811;
1014.9000;0.0733;-0.7789;
1015.2000;0.0708;-0.7833;
1015.5000;0.0733;-0.7789;
1015.8000;0.0505;-0.8276;
1016.1000;0.0716;-0.7767;
1016.4000;0.0708;-0.7767;
1016.7000;0.0700;-0.7900;
1017.0000;0.0700;-0.7944;
1017.3000;0.0716;-0.7922;
1017.6000;0.0741;-0.7922;
1017.9000;0.0676;-0.7966;
1018.2000;0.0716;-0.7878;
1018.5000;0.0733;-0.7767;
1018.8000;0.0724;-0.7789;
1019.1000;0.0724;-0.7811;
1019.4000;0.0724;-0.7789;
1019.7000;0.0708;-0.7855;
1020.0000;0.0724;-0.7833;
1020.3000;0.0708;-0.7878;
1020.6000;0.0733;-0.7745;
1020.9000;0.0708;-0.7789;
1021.2000;0.0749;-0.7701;
1021.5000;0.0757;-0.7546;
1021.8000;0.0716;-0.7678;
1022.1000;0.0716;-0.7723;
1022.4000;0.0773;-0.7590;
1022.7000;0.0700;-0.7723;
1023.0000;0.0700;-0.7745;
1023.3000;0.0684;-0.7900;
1023.6000;0.0716;-0.7878;
1023.9000;0.0708;-0.7878;
1024.2000;0.0733;-0.7855;
1024.5000;0.0700;-0.7900;
1024.8000;0.0700;-0.7833;
1025.1000;0.0724;-0.7767;
1025.4000;0.0741;-0.7701;
1025.7000;0.0733;-0.7767;
1026.0000;0.0724;-0.7767;
1026.3000;0.0700;-0.7811;
1026.6000;0.0838;-0.7435;
1026.9000;0.0855;-0.7302;
1027.2000;0.0708;-0.7612;
1027.5000;0.0708;-0.7634;
1027.8000;0.0724;-0.7479;
1028.1000;0.0708;-0.7590;
1028.4000;0.0700;-0.7656;
1028.7000;0.0708;-0.7678;
1029.0000;0.0733;-0.7634;
1029.3000;0.0724;-0.7634;
1029.6000;0.0733;-0.7612;
1029.9000;0.0651;-0.7900;
1030.2000;0.0708;-0.7789;
1030.5000;0.0667;-0.7878;
1030.8000;0.0749;-0.7789;
1031.1000;0.0733;-0.7922;
1031.4000;0.0716;-0.7922;
1031.7000;0.0708;-0.7811;
1032.0000;0.0781;-0.7590;
1032.3000;0.0822;-0.7546;
1032.6000;0.0700;-0.7855;
1032.9000;0.0708;-0.7922;
1033.2000;0.0684;-0.7944;
1033.5000;0.0667;-0.8010;
1033.8000;0.0635;-0.8077;
1034.1000;0.0773;-0.7745;
1034.4000;0.0733;-0.7745;
1034.7000;0.0765;-0.7678;
1035.0000;0.0814;-0.7568;
1035.3000;0.0724;-0.7811;
1035.6000;0.0708;-0.7811;
1035.9000;0.0781;-0.7634;
1036.2000;0.0716;-0.7833;
1036.5000;0.0700;-0.7922;
1036.8000;0.0651;-0.8099;
1037.1000;0.0692;-0.8099;
1037.4000;0.0716;-0.8077;
1037.7000;0.0692;-0.8121;
1038.0000;0.0700;-0.8099;
1038.3000;0.0716;-0.7988;
1038.6000;0.0708;-0.7900;
1038.9000;0.0749;-0.7701;
1039.2000;0.0741;-0.7789;
1039.5000;0.0692;-0.7966;
1039.8000;0.0733;-0.7922;
1040.1000;0.0708;-0.8010;
1040.4000;0.0716;-0.8099;
1040.7000;0.0724;-0.8099;
1041.0000;0.0733;-0.8121;
1041.3000;0.0643;-0.8276;
1041.6000;0.0716;-0.7922;
1041.9000;0.0708;-0.7900;
1042.2000;0.0716;-0.7944;
1042.5000;0.0773;-0.7811;
1042.8000;0.0716;-0.7767;
1043.1000;0.0724;-0.7701;
1043.4000;0.0716;-0.7745;
1043.7000;0.0708;-0.7767;
1044.0000;0.0724;-0.7678;
1044.3000;0.0708;-0.7723;
1044.6000;0.0749;-0.7612;
1044.9000;0.0578;-0.7966;
1045.2000;0.0659;-0.7900;
1045.5000;0.0773;-0.7678;
1045.8000;0.0749;-0.7745;
1046.1000;0.0716;-0.7745;
1046.4000;0.0716;-0.7701;
1046.7000;0.0724;-0.7701;
1047.0000;0.0724;-0.7745;
1047.3000;0.0700;-0.7811;
1047.6000;0.0692;-0.7878;
1047.9000;0.0733;-0.7811;
1048.2000;0.0700;-0.7922;
1048.5000;0.0733;-0.7811;
1048.8000;0.0724;-0.7789;
1049.1000;0.0692;-0.7922;
1049.4000;0.0602;-0.8033;
1049.7000;0.0733;-0.7789;
1050.0000;0.0814;-0.7568;
1050.3000;0.0708;-0.7723;
1050.6000;0.0692;-0.7767;
1050.9000;0.0684;-0.7878;
1051.2000;0.0765;-0.7701;
1051.5000;0.0765;-0.7678;
1051.8000;0.0806;-0.7524;
1052.1000;0.0724;-0.7745;
1052.4000;0.0724;-0.7767;
1052.7000;0.0676;-0.7878;
1053.0000;0.0700;-0.7855;
1053.3000;0.0757;-0.7656;
1053.6000;0.0716;-0.7656;
1053.9000;0.0700;-0.7656;
1054.2000;0.0724;-0.7701;
1054.5000;0.0749;-0.7701;
1054.8000;0.0749;-0.7678;
1055.1000;0.0741;-0.7745;
1055.4000;0.0676;-0.7922;
1055.7000;0.0781;-0.7634;
1056.0000;0.0708;-0.7678;
1056.3000;0.0733;-0.7590;
1056.6000;0.0708;-0.7634;
1056.9000;0.0749;-0.7568;
1057.2000;0.0700;-0.7590;
1057.5000;0.0700;-0.7590;
1057.8000;0.0724;-0.7524;
1058.1000;0.0716;-0.7524;
1058.4000;0.0733;-0.7501;
1058.7000;0.0684;-0.7656;
1059.0000;0.0733;-0.7590;
1059.3000;0.0716;-0.7701;
1059.6000;0.0716;-0.7723;
1059.9000;0.0733;-0.7723;
1060.2000;0.0724;-0.7745;
1060.5000;0.0733;-0.7678;
1060.8000;0.0684;-0.7745;
1061.1000;0.0733;-0.7723;
1061.4000;0.0700;-0.7745;
1061.7000;0.0716;-0.7678;
1062.0000;0.0733;-0.7701;
1062.3000;0.0692;-0.7767;
1062.6000;0.0716;-0.7745;
1062.9000;0.0716;-0.7656;
1063.2000;0.0733;-0.7590;
1063.5000;0.0733;-0.7701;
1063.8000;0.0716;-0.7723;
1064.1000;0.0724;-0.7701;
1064.4000;0.0692;-0.7833;
1064.7000;0.0708;-0.7811;
1065.0000;0.0798;-0.7590;
1065.3000;0.0676;-0.7944;
1065.6000;0.0749;-0.7723;
1065.9000;0.0716;-0.7789;
1066.2000;0.0700;-0.7878;
1066.5000;0.0741;-0.7878;
1066.8000;0.0716;-0.7922;
1067.1000;0.0708;-0.7833;
1067.4000;0.0741;-0.7767;
1067.7000;0.0724;-0.7855;
1068.0000;0.0716;-0.7900;
1068.3000;0.0659;-0.7988;
1068.6000;0.0692;-0.7966;
1068.9000;0.0781;-0.7723;
1069.2000;0.0724;-0.7878;
1069.5000;0.0781;-0.7745;
1069.8000;0.0724;-0.7966;
1070.1000;0.0724;-0.7900;
1070.4000;0.0708;-0.8010;
1070.7000;0.0806;-0.7811;
1071.0000;0.0741;-0.7900;
1071.3000;0.0716;-0.7878;
1071.6000;0.0724;-0.7767;
1071.9000;0.0733;-0.7767;
1072.2000;0.0724;-0.7723;
1072.5000;0.0716;-0.7789;
1072.8000;0.0676;-0.7855;
1073.1000;0.0667;-0.7900;
1073.4000;0.0814;-0.7568;
1073.7000;0.0676;-0.7833;
1074.0000;0.0700;-0.7833;
1074.3000;0.0716;-0.7767;
1074.6000;0.0716;-0.7878;
1074.9000;0.0765;-0.7767;
1075.2000;0.0708;-0.7900;
1075.5000;0.0708;-0.7878;
1075.8000;0.0749;-0.7678;
1076.1000;0.0741;-0.7678;
1076.4000;0.0724;-0.7723;
1076.7000;0.0724;-0.7855;
1077.0000;0.0708;-0.7878;
1077.3000;0.0692;-0.7833;
1077.6000;0.0749;-0.7745;
1077.9000;0.0708;-0.7789;
1078.2000;0.0586;-0.8055;
1078.5000;0.0651;-0.7900;
1078.8000;0.0724;-0.7723;
1079.1000;0.0724;-0.7745;
1079.4000;0.0692;-0.7745;
1079.7000;0.0733;-0.7634;
1080.0000;0.0716;-0.7678;
1080.3000;0.0716;-0.7678;
1080.6000;0.0708;-0.7656;
1080.9000;0.0749;-0.7590;
1081.2000;0.0611;-0.7855;
1081.5000;0.0741;-0.7612;
1081.8000;0.0708;-0.7745;
1082.1000;0.0724;-0.7767;
1082.4000;0.0733;-0.7767;
1082.7000;0.0700;-0.7900;
1083.0000;0.0716;-0.7900;
1083.3000;0.0716;-0.7855;
1083.6000;0.0692;-0.7878;
1083.9000;0.0716;-0.7789;
1084.2000;0.0700;-0.7789;
1084.5000;0.0733;-0.7767;
1084.8000;0.0716;-0.7789;
1085.1000;0.0692;-0.7878;
1085.4000;0.0684;-0.7833;
1085.7000;0.0708;-0.7745;
1086.0000;0.0716;-0.7723;
1086.3000;0.0708;-0.7767;
1086.6000;0.0692;-0.7789;
1086.9000;0.0733;-0.7634;
1087.2000;0.0749;-0.7612;
1087.5000;0.0741;-0.7590;
1087.8000;0.0684;-0.7634;
1088.1000;0.0692;-0.7612;
1088.4000;0.0749;-0.7524;
1088.7000;0.0749;-0.7501;
1089.0000;0.0724;-0.7612;
1089.3000;0.0716;-0.7634;
1089.6000;0.0733;-0.7612;
1089.9000;0.0651;-0.7767;
1090.2000;0.0651;-0.7701;
1090.5000;0.0684;-0.7701;
1090.8000;0.0692;-0.7634;
1091.1000;0.0741;-0.7524;
1091.4000;0.0724;-0.7546;
1091.7000;0.0692;-0.7656;
1092.0000;0.0724;-0.7568;
1092.3000;0.0741;-0.7457;
1092.6000;0.0684;-0.7546;
1092.9000;0.0741;-0.7413;
1093.2000;0.0741;-0.7391;
1093.5000;0.0724;-0.7590;
1093.8000;0.0708;-0.7612;
1094.1000;0.0733;-0.7634;
1094.4000;0.0741;-0.7546;
1094.7000;0.0733;-0.7634;
1095.0000;0.0741;-0.7678;
1095.3000;0.0716;-0.7723;
1095.6000;0.0684;-0.7767;
1095.9000;0.0708;-0.7723;
1096.2000;0.0733;-0.7767;
1096.5000;0.0708;-0.7789;
1096.8000;0.0692;-0.7745;
1097.1000;0.0716;-0.7656;
1097.4000;0.0651;-0.7811;
1097.7000;0.0716;-0.7678;
1098.0000;0.0700;-0.7701;
1098.3000;0.0716;-0.7678;
1098.6000;0.0749;-0.7634;
1098.9000;0.0716;-0.7656;
1099.2000;0.0708;-0.7745;
1099.5000;0.0708;-0.7745;
1099.8000;0.0733;-0.7634;
1100.1000;0.0733;-0.7678;
1100.4000;0.0724;-0.7656;
1100.7000;0.0724;-0.7590;
1101.0000;0.0692;-0.7656;
1101.3000;0.0692;-0.7723;
1101.6000;0.0724;-0.7634;
1101.9000;0.0708;-0.7656;
1102.2000;0.0716;-0.7767;
1102.5000;0.0733;-0.7767;
1102.8000;0.0733;-0.7767;
1103.1000;0.0733;-0.7745;
1103.4000;0.0741;-0.7723;
1103.7000;0.0733;-0.7656;
1104.0000;0.0733;-0.7701;
1104.3000;0.0733;-0.7590;
1104.6000;0.0733;-0.7546;
1104.9000;0.0749;-0.7501;
1105.2000;0.0741;-0.7612;
1105.5000;0.0676;-0.7745;
1105.8000;0.0684;-0.7833;
1106.1000;0.0724;-0.7745;
1106.4000;0.0716;-0.7701;
1106.7000;0.0692;-0.7811;
1107.0000;0.0708;-0.7855;
1107.3000;0.0733;-0.7811;
1107.6000;0.0724;-0.7789;
1107.9000;0.0627;-0.8033;
1108.2000;0.0741;-0.7745;
1108.5000;0.0708;-0.7855;
1108.8000;0.0814;-0.7656;
1109.1000;0.0733;-0.7723;
1109.4000;0.0700;-0.7789;
1109.7000;0.0716;-0.7745;
1110.0000;0.0733;-0.7723;
1110.3000;0.0667;-0.7811;
1110.6000;0.0716;-0.7745;
1110.9000;0.0741;-0.7701;
1111.2000;0.0700;-0.7878;
1111.5000;0.0692;-0.7878;
1111.8000;0.0708;-0.7811;
1112.1000;0.0716;-0.7811;
1112.4000;0.0716;-0.7833;
1112.7000;0.0716;-0.7723;
1113.0000;0.0733;-0.7678;
1113.3000;0.0708;-0.7789;
1113.6000;0.0692;-0.7723;
1113.9000;0.0757;-0.7524;
1114.2000;0.0716;-0.7568;
1114.5000;0.0659;-0.7745;
1114.8000;0.0716;-0.7656;
1115.1000;0.0749;-0.7634;
1115.4000;0.0692;-0.7833;
1115.7000;0.0684;-0.7966;
1116.0000;0.0724;-0.7833;
1116.3000;0.0708;-0.7878;
1116.6000;0.0667;-0.7988;
1116.9000;0.0724;-0.7833;
1117.2000;0.0724;-0.7833;
1117.5000;0.0724;-0.7811;
1117.8000;0.0716;-0.7833;
1118.1000;0.0708;-0.7878;
1118.4000;0.0708;-0.7922;
1118.7000;0.0741;-0.7900;
1119.0000;0.0733;-0.7900;
1119.3000;0.0716;-0.7922;
1119.6000;0.0749;-0.7878;
1119.9000;0.0708;-0.7944;
1120.2000;0.0733;-0.7900;
1120.5000;0.0733;-0.7900;
1120.8000;0.0757;-0.7878;
1121.1000;0.0716;-0.7922;
1121.4000;0.0733;-0.7966;
1121.7000;0.0684;-0.8055;
1122.0000;0.0716;-0.8010;
1122.3000;0.0708;-0.8077;
1122.6000;0.0716;-0.7966;
1122.9000;0.0667;-0.8121;
1123.2000;0.0798;-0.7811;
1123.5000;0.0700;-0.8010;
1123.8000;0.0570;-0.8298;
1124.1000;0.0594;-0.8143;
1124.4000;0.0708;-0.7855;
1124.7000;0.0602;-0.8121;
1125.0000;0.0733;-0.7878;
1125.3000;0.0700;-0.8033;
1125.6000;0.0798;-0.7811;
1125.9000;0.0659;-0.8077;
1126.2000;0.0724;-0.7878;
1126.5000;0.0692;-0.7944;
1126.8000;0.0741;-0.7878;
1127.1000;0.0651;-0.8232;
1127.4000;0.0716;-0.7988;
1127.7000;0.0708;-0.8010;
1128.0000;0.0806;-0.7723;
1128.3000;0.0659;-0.8055;
1128.6000;0.0724;-0.8077;
1128.9000;0.0692;-0.8143;
1129.2000;0.0692;-0.8210;
1129.5000;0.0708;-0.8099;
1129.8000;0.0700;-0.8033;
1130.1000;0.0692;-0.8033;
1130.4000;0.0724;-0.7900;
1130.7000;0.0708;-0.7966;
1131.0000;0.0733;-0.7988;
1131.3000;0.0708;-0.7988;
1131.6000;0.0700;-0.7988;
1131.9000;0.0822;-0.7678;
1132.2000;0.0708;-0.7922;
1132.5000;0.0724;-0.7811;
1132.8000;0.0749;-0.7701;
1133.1000;0.0708;-0.7745;
1133.4000;0.0773;-0.7612;
1133.7000;0.0708;-0.7811;
1134.0000;0.0724;-0.7833;
1134.3000;0.0724;-0.7922;
1134.6000;0.0724;-0.8010;
1134.9000;0.0700;-0.8099;
1135.2000;0.0733;-0.7988;
1135.5000;0.0708;-0.7966;
1135.8000;0.0724;-0.7900;
1136.1000;0.0716;-0.7833;
1136.4000;0.0781;-0.7789;
1136.7000;0.0708;-0.7944;
1137.0000;0.0659;-0.8010;
1137.3000;0.0749;-0.7855;
1137.6000;0.0716;-0.7922;
1137.9000;0.0708;-0.8010;
1138.2000;0.0724;-0.8099;
1138.5000;0.0700;-0.8077;
1138.8000;0.0724;-0.7988;
1139.1000;0.0700;-0.8077;
1139.4000;0.0716;-0.8077;
1139.7000;0.0814;-0.7855;
1140.0000;0.0708;-0.8033;
1140.3000;0.0716;-0.8010;
1140.6000;0.0716;-0.7966;
1140.9000;0.0716;-0.7922;
1141.2000;0.0708;-0.7900;
1141.5000;0.0619;-0.8210;
1141.8000;0.0733;-0.7988;
1142.1000;0.0716;-0.7988;
1142.4000;0.0716;-0.7922;
1142.7000;0.0708;-0.7966;
1143.0000;0.0724;-0.7988;
1143.3000;0.0716;-0.8033;
1143.6000;0.0676;-0.8143;
1143.9000;0.0716;-0.8033;
1144.2000;0.0708;-0.8033;
1144.5000;0.0635;-0.8165;
1144.8000;0.0676;-0.7988;
1145.1000;0.0724;-0.7878;
1145.4000;0.0757;-0.7811;
1145.7000;0.0741;-0.7922;
1146.0000;0.0708;-0.7944;
1146.3000;0.0863;-0.7590;
1146.6000;0.0659;-0.8010;
1146.9000;0.0741;-0.7789;
1147.2000;0.0708;-0.7811;
1147.5000;0.0830;-0.7457;
1147.8000;0.0700;-0.7855;
1148.1000;0.0716;-0.7944;
1148.4000;0.0806;-0.7811;
1148.7000;0.0708;-0.7922;
1149.0000;0.0700;-0.7922;
1149.3000;0.0724;-0.7789;
1149.6000;0.0676;-0.7878;
1149.9000;0.0765;-0.7656;
1150.2000;0.0741;-0.7678;
1150.5000;0.0716;-0.7789;
1150.8000;0.0757;-0.7811;
1151.1000;0.0643;-0.8077;
1151.4000;0.0716;-0.7900;
1151.7000;0.0708;-0.7900;
1152.0000;0.0651;-0.7988;
1152.3000;0.0733;-0.7723;
1152.6000;0.0692;-0.7789;
1152.9000;0.0749;-0.7701;
1153.2000;0.0741;-0.7745;
1153.5000;0.0724;-0.7811;
1153.8000;0.0700;-0.7833;
1154.1000;0.0716;-0.7900;
1154.4000;0.0708;-0.7966;
1154.7000;0.0733;-0.7789;
1155.0000;0.0724;-0.7811;
1155.3000;0.0716;-0.7789;
1155.6000;0.0749;-0.7701;
1155.9000;0.0749;-0.7634;
1156.2000;0.0716;-0.7701;
1156.5000;0.0741;-0.7678;
1156.8000;0.0733;-0.7723;
1157.1000;0.0724;-0.7723;
1157.4000;0.0716;-0.7789;
1157.7000;0.0692;-0.7833;
1158.0000;0.0700;-0.7878;
1158.3000;0.0667;-0.7966;
1158.6000;0.0716;-0.7811;
1158.9000;0.0716;-0.7855;
1159.2000;0.0741;-0.7811;
1159.5000;0.0700;-0.7966;
1159.8000;0.0708;-0.7988;
1160.1000;0.0724;-0.7966;
1160.4000;0.0724;-0.8033;
1160.7000;0.0733;-0.7966;
1161.0000;0.0716;-0.7922;
1161.3000;0.0716;-0.7878;
1161.6000;0.0700;-0.7922;
1161.9000;0.0700;-0.7900;
1162.2000;0.0741;-0.7878;
1162.5000;0.0724;-0.7900;
1162.8000;0.0700;-0.7922;
1163.1000;0.0684;-0.7944;
1163.4000;0.0724;-0.7833;
1163.7000;0.0733;-0.7811;
1164.0000;0.0724;-0.7855;
1164.3000;0.0684;-0.8010;
1164.6000;0.0733;-0.7944;
1164.9000;0.0716;-0.8055;
1165.2000;0.0733;-0.7988;
1165.5000;0.0765;-0.7900;
1165.8000;0.0749;-0.7988;
1166.1000;0.0692;-0.8165;
1166.4000;0.0716;-0.8165;
1166.7000;0.0700;-0.8232;
1167.0000;0.0700;-0.8210;
1167.3000;0.0700;-0.8187;
1167.6000;0.0830;-0.7745;
1167.9000;0.0724;-0.7966;
1168.2000;0.0627;-0.8232;
1168.5000;0.0684;-0.8010;
1168.8000;0.0773;-0.7855;
1169.1000;0.0733;-0.7878;
1169.4000;0.0700;-0.7966;
1169.7000;0.0700;-0.7922;
1170.0000;0.0708;-0.7878;
1170.3000;0.0765;-0.7833;
1170.6000;0.0716;-0.7988;
1170.9000;0.0724;-0.7944;
1171.2000;0.0773;-0.7855;
1171.5000;0.0651;-0.8143;
1171.8000;0.0724;-0.7988;
1172.1000;0.0700;-0.8077;
1172.4000;0.0708;-0.8099;
1172.7000;0.0667;-0.8055;
1173.0000;0.0708;-0.7944;
1173.3000;0.0716;-0.7922;
1173.6000;0.0781;-0.7723;
1173.9000;0.0700;-0.7855;
1174.2000;0.0676;-0.7922;
1174.5000;0.0708;-0.7811;
1174.8000;0.0708;-0.7767;
1175.1000;0.0741;-0.7678;
1175.4000;0.0667;-0.7811;
1175.7000;0.0724;-0.7723;
1176.0000;0.0724;-0.7678;
1176.3000;0.0724;-0.7656;
1176.6000;0.0724;-0.7701;
1176.9000;0.0708;-0.7745;
1177.2000;0.0733;-0.7767;
1177.5000;0.0708;-0.7789;
1177.8000;0.0700;-0.7855;
1178.1000;0.0716;-0.7855;
1178.4000;0.0700;-0.8010;
1178.7000;0.0708;-0.7966;
1179.0000;0.0724;-0.7966;
1179.3000;0.0708;-0.8033;
1179.6000;0.0724;-0.8055;
1179.9000;0.0724;-0.8099;
1180.2000;0.0749;-0.8099;
1180.5000;0.0724;-0.8210;
1180.8000;0.0692;-0.8187;
1181.1000;0.0724;-0.8055;
1181.4000;0.0733;-0.8033;
1181.7000;0.0708;-0.8077;
1182.0000;0.0708;-0.8077;
1182.3000;0.0757;-0.7966;
1182.6000;0.0724;-0.8033;
1182.9000;0.0700;-0.8121;
1183.2000;0.0716;-0.8055;
1183.5000;0.0806;-0.7767;
1183.8000;0.0692;-0.8033;
1184.1000;0.0716;-0.8055;
1184.4000;0.0733;-0.8055;
1184.7000;0.0692;-0.8143;
1185.0000;0.0733;-0.8099;
1185.3000;0.0724;-0.8077;
1185.6000;0.0716;-0.7944;
1185.9000;0.0724;-0.7878;
1186.2000;0.0700;-0.7988;
1186.5000;0.0692;-0.8099;
1186.8000;0.0700;-0.8033;
1187.1000;0.0708;-0.8033;
1187.4000;0.0741;-0.7855;
1187.7000;0.0716;-0.8010;
1188.0000;0.0708;-0.8055;
1188.3000;0.0733;-0.7988;
1188.6000;0.0676;-0.8143;
1188.9000;0.0733;-0.8010;
1189.2000;0.0724;-0.8121;
1189.5000;0.0724;-0.8055;
1189.8000;0.0716;-0.8099;
1190.1000;0.0700;-0.8055;
1190.4000;0.0716;-0.8033;
1190.7000;0.0733;-0.7966;
1191.0000;0.0700;-0.7944;
1191.3000;0.0741;-0.7789;
1191.6000;0.0708;-0.7811;
1191.9000;0.0724;-0.7723;
1192.2000;0.0708;-0.7745;
1192.5000;0.0724;-0.7789;
1192.8000;0.0659;-0.7922;
1193.1000;0.0724;-0.7723;
1193.4000;0.0716;-0.7701;
1193.7000;0.0741;-0.7701;
1194.0000;0.0733;-0.7723;
1194.3000;0.0716;-0.7745;
1194.6000;0.0716;-0.7789;
1194.9000;0.0692;-0.7811;
1195.2000;0.0716;-0.7789;
1195.5000;0.0700;-0.7966;
1195.8000;0.0708;-0.7900;
1196.1000;0.0716;-0.7878;
1196.4000;0.0757;-0.7789;
1196.7000;0.0708;-0.7944;
1197.0000;0.0716;-0.7966;
1197.3000;0.0692;-0.7944;
1197.6000;0.0733;-0.7833;
1197.9000;0.0781;-0.7723;
1198.2000;0.0708;-0.7966;
1198.5000;0.0708;-0.7966;
1198.8000;0.0708;-0.7988;
1199.1000;0.0733;-0.7922;
1199.4000;0.0724;-0.7900;
1199.7000;0.0708;-0.7855;
1200.0000;0.0733;-0.7811;
1200.3000;0.0741;-0.7833;
1200.6000;0.0724;-0.7833;
1200.9000;0.0724;-0.7878;
1201.2000;0.0798;-0.7745;
1201.5000;0.0724;-0.7900;
1201.8000;0.0700;-0.8033;
1202.1000;0.0716;-0.7988;
1202.4000;0.0684;-0.7944;
1202.7000;0.0733;-0.7833;
1203.0000;0.0716;-0.7855;
1203.3000;0.0765;-0.7723;
1203.6000;0.0724;-0.7789;
1203.9000;0.0724;-0.7767;
1204.2000;0.0716;-0.7878;
1204.5000;0.0781;-0.7767;
1204.8000;0.0716;-0.7966;
1205.1000;0.0741;-0.7966;
1205.4000;0.0773;-0.7878;
1205.7000;0.0773;-0.7900;
1206.0000;0.0716;-0.7944;
1206.3000;0.0578;-0.8165;
1206.6000;0.0676;-0.7922;
1206.9000;0.0684;-0.7855;
1207.2000;0.0716;-0.7811;
1207.5000;0.0757;-0.7656;
1207.8000;0.0733;-0.7811;
1208.1000;0.0692;-0.7878;
1208.4000;0.0676;-0.7855;
1208.7000;0.0733;-0.7811;
1209.0000;0.0708;-0.7833;
1209.3000;0.0716;-0.7878;
1209.6000;0.0773;-0.7789;
1209.9000;0.0684;-0.8055;
1210.2000;0.0708;-0.8099;
1210.5000;0.0724;-0.8055;
1210.8000;0.0741;-0.7988;
1211.1000;0.0708;-0.8077;
1211.4000;0.0708;-0.8033;
1211.7000;0.0708;-0.8055;
1212.0000;0.0724;-0.7988;
1212.3000;0.0708;-0.8055;
1212.6000;0.0716;-0.8121;
1212.9000;0.0741;-0.8055;
1213.2000;0.0724;-0.8033;
1213.5000;0.0651;-0.8232;
1213.8000;0.0741;-0.7966;
1214.1000;0.0733;-0.7944;
1214.4000;0.0716;-0.7922;
1214.7000;0.0741;-0.7855;
1215.0000;0.0733;-0.7900;
1215.3000;0.0716;-0.7878;
1215.6000;0.0659;-0.8121;
1215.9000;0.0733;-0.8033;
1216.2000;0.0790;-0.7833;
1216.5000;0.0741;-0.7922;
1216.8000;0.0667;-0.8010;
1217.1000;0.0716;-0.7900;
1217.4000;0.0700;-0.7900;
1217.7000;0.0708;-0.7833;
1218.0000;0.0716;-0.7811;
1218.3000;0.0627;-0.7988;
1218.6000;0.0708;-0.7855;
1218.9000;0.0741;-0.7855;
1219.2000;0.0700;-0.7922;
1219.5000;0.0708;-0.7900;
1219.8000;0.0676;-0.7944;
1220.1000;0.0724;-0.7855;
1220.4000;0.0724;-0.7900;
1220.7000;0.0700;-0.7966;
1221.0000;0.0716;-0.7833;
1221.3000;0.0659;-0.7966;
1221.6000;0.0716;-0.7767;
1221.9000;0.0708;-0.7811;
1222.2000;0.0700;-0.7900;
1222.5000;0.0684;-0.8033;
1222.8000;0.0724;-0.7922;
1223.1000;0.0724;-0.7855;
1223.4000;0.0708;-0.7900;
1223.7000;0.0724;-0.7900;
1224.0000;0.0724;-0.7944;
1224.3000;0.0741;-0.8033;
1224.6000;0.0716;-0.8055;
1224.9000;0.0806;-0.7855;
1225.2000;0.0741;-0.8033;
1225.5000;0.0708;-0.8099;
1225.8000;0.0733;-0.7988;
1226.1000;0.0733;-0.8099;
1226.4000;0.0724;-0.8121;
1226.7000;0.0716;-0.8143;
1227.0000;0.0724;-0.8187;
1227.3000;0.0708;-0.8143;
1227.6000;0.0733;-0.8033;
1227.9000;0.0733;-0.7944;
1228.2000;0.0635;-0.8143;
1228.5000;0.0741;-0.7966;
1228.8000;0.0716;-0.7944;
1229.1000;0.0724;-0.7944;
1229.4000;0.0733;-0.7922;
1229.7000;0.0708;-0.7988;
1230.0000;0.0716;-0.7988;
1230.3000;0.0806;-0.7701;
1230.6000;0.0724;-0.7922;
1230.9000;0.0708;-0.7966;
1231.2000;0.0724;-0.7922;
1231.5000;0.0724;-0.7966;
1231.8000;0.0733;-0.7922;
1232.1000;0.0741;-0.7900;
1232.4000;0.0716;-0.7900;
1232.7000;0.0716;-0.7922;
1233.0000;0.0724;-0.7900;
1233.3000;0.0716;-0.7833;
1233.6000;0.0724;-0.7900;
1233.9000;0.0692;-0.7988;
1234.2000;0.0724;-0.8010;
1234.5000;0.0716;-0.8055;
1234.8000;0.0700;-0.8099;
1235.1000;0.0724;-0.8055;
1235.4000;0.0716;-0.8055;
1235.7000;0.0733;-0.8033;
1236.0000;0.0733;-0.8033;
1236.3000;0.0724;-0.7966;
1236.6000;0.0716;-0.7988;
1236.9000;0.0716;-0.7966;
1237.2000;0.0700;-0.8033;
1237.5000;0.0822;-0.7767;
1237.8000;0.0724;-0.8077;
1238.1000;0.0749;-0.8033;
1238.4000;0.0724;-0.8121;
1238.7000;0.0724;-0.8099;
1239.0000;0.0716;-0.8033;
1239.3000;0.0733;-0.7900;
1239.6000;0.0716;-0.7833;
1239.9000;0.0724;-0.7922;
1240.2000;0.0733;-0.7966;
1240.5000;0.0749;-0.7988;
1240.8000;0.0749;-0.8033;
1241.1000;0.0716;-0.8077;
1241.4000;0.0708;-0.8055;
1241.7000;0.0684;-0.8099;
1242.0000;0.0716;-0.8010;
1242.3000;0.0635;-0.8143;
1242.6000;0.0708;-0.8010;
1242.9000;0.0708;-0.7922;
1243.2000;0.0692;-0.7966;
1243.5000;0.0700;-0.7855;
1243.8000;0.0749;-0.7878;
1244.1000;0.0716;-0.7878;
1244.4000;0.0716;-0.7811;
1244.7000;0.0716;-0.7789;
1245.0000;0.0651;-0.8010;
1245.3000;0.0716;-0.7811;
1245.6000;0.0741;-0.7833;
1245.9000;0.0724;-0.7922;
1246.2000;0.0716;-0.7922;
1246.5000;0.0716;-0.7944;
1246.8000;0.0708;-0.8010;
1247.1000;0.0716;-0.8010;
1247.4000;0.0651;-0.8143;
1247.7000;0.0741;-0.7900;
1248.0000;0.0757;-0.7922;
1248.3000;0.0700;-0.7966;
1248.6000;0.0724;-0.7878;
1248.9000;0.0578;-0.8254;
1249.2000;0.0716;-0.7922;
1249.5000;0.0724;-0.7878;
1249.8000;0.0724;-0.7789;
1250.1000;0.0716;-0.7855;
1250.4000;0.0733;-0.7900;
1250.7000;0.0716;-0.8033;
1251.0000;0.0847;-0.7701;
1251.3000;0.0790;-0.7656;
1251.6000;0.0741;-0.7767;
1251.9000;0.0700;-0.7922;
1252.2000;0.0651;-0.8055;
1252.5000;0.0724;-0.7767;
1252.8000;0.0724;-0.7767;
1253.1000;0.0708;-0.7855;
1253.4000;0.0708;-0.7833;
1253.7000;0.0716;-0.7745;
1254.0000;0.0716;-0.7811;
1254.3000;0.0554;-0.8143;
1254.6000;0.0716;-0.7811;
1254.9000;0.0733;-0.7855;
1255.2000;0.0724;-0.7944;
1255.5000;0.0724;-0.7878;
1255.8000;0.0749;-0.7855;
1256.1000;0.0724;-0.7922;
1256.4000;0.0757;-0.7833;
1256.7000;0.0708;-0.7966;
1257.0000;0.0733;-0.7922;
1257.3000;0.0822;-0.7745;
1257.6000;0.0708;-0.7988;
1257.9000;0.0716;-0.7966;
1258.2000;0.0724;-0.8033;
1258.5000;0.0733;-0.7966;
1258.8000;0.0708;-0.8055;
1259.1000;0.0692;-0.8077;
1259.4000;0.0749;-0.7922;
1259.7000;0.0733;-0.7900;
1260.0000;0.0741;-0.7855;
1260.3000;0.0733;-0.7878;
1260.6000;0.0708;-0.8033;
1260.9000;0.0724;-0.8010;
1261.2000;0.0741;-0.7988;
1261.5000;0.0733;-0.7878;
1261.8000;0.0716;-0.7878;
1262.1000;0.0635;-0.8165;
1262.4000;0.0708;-0.7988;
1262.7000;0.0724;-0.7900;
1263.0000;0.0733;-0.7966;
1263.3000;0.0692;-0.8033;
1263.6000;0.0716;-0.8010;
1263.9000;0.0724;-0.8033;
1264.2000;0.0741;-0.8033;
1264.5000;0.0749;-0.8010;
1264.8000;0.0724;-0.8099;
1265.1000;0.0708;-0.8121;
1265.4000;0.0724;-0.8077;
1265.7000;0.0708;-0.8165;
1266.0000;0.0708;-0.8033;
1266.3000;0.0741;-0.7966;
1266.6000;0.0716;-0.8033;
1266.9000;0.0724;-0.8033;
1267.2000;0.0708;-0.8033;
1267.5000;0.0692;-0.8099;
1267.8000;0.0708;-0.8099;
1268.1000;0.0700;-0.8055;
1268.4000;0.0741;-0.8010;
1268.7000;0.0716;-0.8077;
1269.0000;0.0724;-0.8077;
1269.3000;0.0781;-0.7900;
1269.6000;0.0724;-0.8033;
1269.9000;0.0724;-0.8033;
1270.2000;0.0741;-0.8010;
1270.5000;0.0692;-0.8033;
1270.8000;0.0716;-0.7966;
1271.1000;0.0724;-0.7988;
1271.4000;0.0741;-0.7966;
1271.7000;0.0716;-0.8055;
1272.0000;0.0562;-0.8453;
1272.3000;0.0741;-0.8055;
1272.6000;0.0741;-0.8077;
1272.9000;0.0733;-0.8143;
1273.2000;0.0627;-0.8387;
1273.5000;0.0724;-0.8165;
1273.8000;0.0724;-0.8143;
1274.1000;0.0741;-0.8077;
1274.4000;0.0765;-0.7900;
1274.7000;0.0798;-0.7855;
1275.0000;0.0667;-0.8055;
1275.3000;0.0692;-0.8010;
1275.6000;0.0700;-0.7988;
1275.9000;0.0716;-0.8077;
1276.2000;0.0741;-0.8077;
1276.5000;0.0724;-0.8099;
1276.8000;0.0733;-0.8210;
1277.1000;0.0676;-0.8320;
1277.4000;0.0716;-0.8254;
1277.7000;0.0716;-0.8232;
1278.0000;0.0724;-0.8187;
1278.3000;0.0781;-0.7988;
1278.6000;0.0741;-0.8121;
1278.9000;0.0733;-0.8121;
1279.2000;0.0741;-0.8121;
1279.5000;0.0716;-0.8099;
1279.8000;0.0757;-0.8010;
1280.1000;0.0790;-0.7944;
1280.4000;0.0733;-0.8099;
1280.7000;0.0863;-0.7833;
1281.0000;0.0733;-0.8099;
1281.3000;0.0676;-0.8320;
1281.6000;0.0684;-0.8232;
1281.9000;0.0733;-0.8077;
1282.2000;0.0724;-0.8187;
1282.5000;0.0716;-0.8143;
1282.8000;0.0716;-0.8121;
1283.1000;0.0724;-0.8010;
1283.4000;0.0724;-0.7988;
1283.7000;0.0716;-0.7966;
1284.0000;0.0741;-0.8010;
1284.3000;0.0716;-0.8187;
1284.6000;0.0749;-0.8165;
1284.9000;0.0708;-0.8232;
1285.2000;0.0724;-0.8187;
1285.5000;0.0716;-0.8187;
1285.8000;0.0822;-0.7922;
1286.1000;0.0765;-0.7944;
1286.4000;0.0708;-0.8077;
1286.7000;0.0741;-0.7988;
1287.0000;0.0724;-0.8077;
1287.3000;0.0643;-0.8254;
1287.6000;0.0724;-0.8010;
1287.9000;0.0716;-0.7988;
1288.2000;0.0724;-0.8010;
1288.5000;0.0741;-0.7988;
1288.8000;0.0716;-0.8077;
1289.1000;0.0724;-0.8055;
1289.4000;0.0708;-0.8099;
1289.7000;0.0716;-0.8055;
1290.0000;0.0708;-0.8121;
1290.3000;0.0692;-0.8165;
1290.6000;0.0716;-0.8010;
1290.9000;0.0708;-0.8055;
1291.2000;0.0741;-0.7966;
1291.5000;0.0627;-0.8143;
1291.8000;0.0724;-0.7900;
1292.1000;0.0741;-0.7900;
1292.4000;0.0708;-0.7966;
1292.7000;0.0684;-0.8055;
1293.0000;0.0741;-0.7922;
1293.3000;0.0684;-0.7988;
1293.6000;0.0676;-0.7966;
1293.9000;0.0781;-0.7723;
1294.2000;0.0716;-0.7900;
1294.5000;0.0692;-0.7900;
1294.8000;0.0716;-0.7789;
1295.1000;0.0716;-0.7723;
1295.4000;0.0757;-0.7723;
1295.7000;0.0741;-0.7745;
1296.0000;0.0741;-0.7789;
1296.3000;0.0708;-0.7900;
1296.6000;0.0692;-0.8033;
1296.9000;0.0708;-0.8010;
1297.2000;0.0700;-0.7988;
1297.5000;0.0716;-0.7900;
1297.8000;0.0741;-0.7944;
1298.1000;0.0708;-0.7966;
1298.4000;0.0757;-0.7878;
1298.7000;0.0741;-0.8010;
1299.0000;0.0716;-0.8033;
1299.3000;0.0692;-0.8143;
1299.6000;0.0733;-0.8143;
1299.9000;0.0741;-0.8143;
1300.2000;0.0708;-0.8210;
1300.5000;0.0733;-0.8077;
1300.8000;0.0724;-0.7966;
1301.1000;0.0724;-0.8055;
1301.4000;0.0724;-0.8055;
1301.7000;0.0716;-0.8099;
1302.0000;0.0692;-0.8187;
1302.3000;0.0643;-0.8276;
1302.6000;0.0765;-0.7966;
1302.9000;0.0724;-0.8121;
1303.2000;0.0716;-0.8099;
1303.5000;0.0602;-0.8387;
1303.8000;0.0708;-0.8121;
1304.1000;0.0708;-0.8099;
1304.4000;0.0716;-0.8055;
1304.7000;0.0733;-0.7966;
1305.0000;0.0716;-0.7966;
1305.3000;0.0708;-0.7922;
1305.6000;0.0684;-0.8010;
1305.9000;0.0643;-0.8210;
1306.2000;0.0733;-0.8010;
1306.5000;0.0733;-0.8010;
1306.8000;0.0724;-0.8010;
1307.1000;0.0692;-0.8143;
1307.4000;0.0708;-0.8077;
1307.7000;0.0708;-0.8033;
1308.0000;0.0700;-0.8055;
1308.3000;0.0716;-0.8033;
1308.6000;0.0651;-0.8121;
1308.9000;0.0724;-0.7855;
1309.2000;0.0708;-0.7988;
1309.5000;0.0733;-0.7944;
1309.8000;0.0741;-0.7966;
1310.1000;0.0716;-0.7966;
1310.4000;0.0716;-0.7988;
1310.7000;0.0692;-0.8055;
1311.0000;0.0716;-0.8033;
1311.3000;0.0724;-0.8010;
1311.6000;0.0708;-0.7988;
1311.9000;0.0692;-0.8033;
1312.2000;0.0724;-0.7966;
1312.5000;0.0733;-0.7966;
1312.8000;0.0708;-0.8055;
1313.1000;0.0733;-0.8010;
1313.4000;0.0708;-0.8121;
1313.7000;0.0733;-0.8033;
1314.0000;0.0708;-0.8033;
1314.3000;0.0741;-0.7922;
1314.6000;0.0733;-0.7944;
1314.9000;0.0724;-0.7988;
1315.2000;0.0733;-0.7922;
1315.5000;0.0733;-0.7833;
1315.8000;0.0708;-0.7922;
1316.1000;0.0716;-0.7966;
1316.4000;0.0716;-0.8010;
1316.7000;0.0716;-0.7988;
1317.0000;0.0708;-0.8010;
1317.3000;0.0700;-0.8033;
1317.6000;0.0676;-0.8121;
1317.9000;0.0700;-0.8033;
1318.2000;0.0692;-0.8055;
1318.5000;0.0733;-0.7966;
1318.8000;0.0692;-0.8099;
1319.1000;0.0700;-0.8121;
1319.4000;0.0749;-0.7944;
1319.7000;0.0724;-0.7944;
1320.0000;0.0724;-0.7922;
1320.3000;0.0708;-0.7900;
1320.6000;0.0651;-0.8077;
1320.9000;0.0749;-0.7855;
1321.2000;0.0708;-0.7922;
1321.5000;0.0724;-0.7900;
1321.8000;0.0716;-0.7944;
1322.1000;0.0708;-0.8010;
1322.4000;0.0700;-0.8055;
1322.7000;0.0757;-0.7944;
1323.0000;0.0700;-0.8033;
1323.3000;0.0741;-0.7922;
1323.6000;0.0749;-0.7922;
1323.9000;0.0741;-0.7900;
1324.2000;0.0700;-0.8055;
1324.5000;0.0635;-0.8210;
1324.8000;0.0692;-0.8010;
1325.1000;0.0716;-0.8010;
1325.4000;0.0716;-0.8033;
1325.7000;0.0692;-0.8077;
1326.0000;0.0724;-0.7944;
1326.3000;0.0765;-0.7745;
1326.6000;0.0562;-0.8298;
1326.9000;0.0708;-0.7922;
1327.2000;0.0708;-0.7944;
1327.5000;0.0749;-0.7922;
1327.8000;0.0716;-0.8010;
1328.1000;0.0724;-0.7966;
1328.4000;0.0708;-0.8077;
1328.7000;0.0708;-0.8033;
1329.0000;0.0724;-0.8055;
1329.3000;0.0708;-0.8143;
1329.6000;0.0733;-0.8033;
1329.9000;0.0790;-0.7900;
1330.2000;0.0749;-0.8010;
1330.5000;0.0716;-0.8055;
1330.8000;0.0724;-0.7944;
1331.1000;0.0724;-0.7966;
1331.4000;0.0733;-0.7855;
1331.7000;0.0627;-0.8254;
1332.0000;0.0733;-0.8033;
1332.3000;0.0733;-0.7988;
1332.6000;0.0700;-0.8121;
1332.9000;0.0716;-0.8143;
1333.2000;0.0716;-0.8143;
1333.5000;0.0708;-0.8143;
1333.8000;0.0676;-0.8276;
1334.1000;0.0822;-0.7855;
1334.4000;0.0733;-0.8055;
1334.7000;0.0749;-0.7966;
1335.0000;0.0716;-0.8033;
1335.3000;0.0619;-0.8320;
1335.6000;0.0724;-0.8010;
1335.9000;0.0724;-0.8010;
1336.2000;0.0749;-0.7988;
1336.5000;0.0733;-0.8055;
1336.8000;0.0692;-0.8099;
1337.1000;0.0716;-0.8099;
1337.4000;0.0749;-0.7988;
1337.7000;0.0594;-0.8431;
1338.0000;0.0724;-0.8099;
1338.3000;0.0708;-0.8055;
1338.6000;0.0733;-0.7966;
1338.9000;0.0676;-0.8055;
1339.2000;0.0716;-0.7966;
1339.5000;0.0781;-0.7811;
1339.8000;0.0708;-0.7966;
1340.1000;0.0733;-0.7878;
1340.4000;0.0733;-0.7944;
1340.7000;0.0806;-0.7745;
1341.0000;0.0724;-0.7900;
1341.3000;0.0724;-0.7900;
1341.6000;0.0757;-0.7811;
1341.9000;0.0708;-0.7944;
1342.2000;0.0708;-0.7966;
1342.5000;0.0708;-0.7966;
1342.8000;0.0716;-0.7966;
1343.1000;0.0708;-0.7922;
1343.4000;0.0733;-0.7922;
1343.7000;0.0708;-0.7966;
1344.0000;0.0724;-0.7855;
1344.3000;0.0659;-0.8010;
1344.6000;0.0708;-0.7900;
1344.9000;0.0733;-0.7900;
1345.2000;0.0619;-0.8143;
1345.5000;0.0724;-0.7833;
1345.8000;0.0724;-0.7878;
1346.1000;0.0716;-0.7878;
1346.4000;0.0733;-0.7922;
1346.7000;0.0708;-0.8077;
1347.0000;0.0716;-0.8033;
1347.3000;0.0806;-0.7767;
1347.6000;0.0708;-0.7988;
1347.9000;0.0708;-0.8033;
1348.2000;0.0724;-0.7966;
1348.5000;0.0716;-0.8055;
1348.8000;0.0724;-0.8010;
1349.1000;0.0716;-0.8033;
1349.4000;0.0692;-0.8099;
1349.7000;0.0724;-0.8077;
1350.0000;0.0716;-0.8077;
1350.3000;0.0733;-0.8077;
1350.6000;0.0708;-0.8033;
1350.9000;0.0741;-0.7922;
1351.2000;0.0733;-0.7900;
1351.5000;0.0724;-0.7855;
1351.8000;0.0724;-0.7922;
1352.1000;0.0733;-0.7922;
1352.4000;0.0733;-0.8033;
1352.7000;0.0692;-0.8143;
1353.0000;0.0716;-0.8055;
1353.3000;0.0619;-0.8232;
1353.6000;0.0806;-0.7833;
1353.9000;0.0733;-0.7966;
1354.2000;0.0749;-0.7944;
1354.5000;0.0708;-0.8055;
1354.8000;0.0659;-0.8210;
1355.1000;0.0716;-0.8010;
1355.4000;0.0733;-0.7966;
1355.7000;0.0781;-0.7900;
1356.0000;0.0741;-0.8033;
1356.3000;0.0741;-0.8077;
1356.6000;0.0724;-0.8165;
1356.9000;0.0708;-0.8187;
1357.2000;0.0716;-0.8099;
1357.5000;0.0708;-0.8033;
1357.8000;0.0806;-0.7656;
1358.1000;0.0773;-0.7789;
1358.4000;0.0692;-0.7988;
1358.7000;0.0716;-0.8033;
1359.0000;0.0716;-0.8121;
1359.3000;0.0700;-0.8187;
1359.6000;0.0716;-0.8121;
1359.9000;0.0684;-0.8210;
1360.2000;0.0651;-0.8232;
1360.5000;0.0716;-0.7988;
1360.8000;0.0724;-0.7944;
1361.1000;0.0733;-0.7878;
1361.4000;0.0708;-0.7811;
1361.7000;0.0594;-0.8077;
1362.0000;0.0708;-0.7833;
1362.3000;0.0733;-0.7811;
1362.6000;0.0773;-0.7701;
1362.9000;0.0684;-0.7833;
1363.2000;0.0716;-0.7745;
1363.5000;0.0708;-0.7811;
1363.8000;0.0765;-0.7701;
1364.1000;0.0733;-0.7701;
1364.4000;0.0814;-0.7501;
1364.7000;0.0716;-0.7767;
1365.0000;0.0659;-0.7922;
1365.3000;0.0741;-0.7789;
1365.6000;0.0676;-0.7789;
1365.9000;0.0676;-0.7855;
1366.2000;0.0684;-0.7878;
1366.5000;0.0724;-0.7723;
1366.8000;0.0635;-0.7944;
1367.1000;0.0692;-0.7723;
1367.4000;0.0635;-0.7878;
1367.7000;0.0724;-0.7745;
1368.0000;0.0724;-0.7723;
1368.3000;0.0716;-0.7723;
1368.6000;0.0733;-0.7678;
1368.9000;0.0716;-0.7612;
1369.2000;0.0716;-0.7590;
1369.5000;0.0790;-0.7457;
1369.8000;0.0700;-0.7701;
1370.1000;0.0741;-0.7678;
1370.4000;0.0684;-0.7855;
1370.7000;0.0651;-0.7900;
1371.0000;0.0700;-0.7767;
1371.3000;0.0692;-0.7811;
1371.6000;0.0716;-0.7855;
1371.9000;0.0798;-0.7701;
1372.2000;0.0700;-0.7833;
1372.5000;0.0724;-0.7789;
1372.8000;0.0700;-0.7833;
1373.1000;0.0700;-0.7789;
1373.4000;0.0708;-0.7678;
1373.7000;0.0684;-0.7767;
1374.0000;0.0733;-0.7678;
1374.3000;0.0724;-0.7745;
1374.6000;0.0733;-0.7745;
1374.9000;0.0676;-0.7878;
1375.2000;0.0724;-0.7878;
1375.5000;0.0773;-0.7789;
1375.8000;0.0741;-0.7922;
1376.1000;0.0716;-0.7944;
1376.4000;0.0749;-0.7878;
1376.7000;0.0708;-0.7900;
1377.0000;0.0741;-0.7833;
1377.3000;0.0708;-0.7966;
1377.6000;0.0716;-0.7922;
1377.9000;0.0733;-0.7833;
1378.2000;0.0684;-0.7966;
1378.5000;0.0708;-0.7878;
1378.8000;0.0806;-0.7678;
1379.1000;0.0684;-0.7944;
1379.4000;0.0765;-0.7789;
1379.7000;0.0716;-0.7811;
1380.0000;0.0708;-0.7900;
1380.3000;0.0741;-0.7878;
1380.6000;0.0724;-0.7900;
1380.9000;0.0708;-0.7811;
1381.2000;0.0757;-0.7701;
1381.5000;0.0708;-0.7833;
1381.8000;0.0659;-0.7966;
1382.1000;0.0700;-0.7833;
1382.4000;0.0741;-0.7789;
1382.7000;0.0692;-0.7944;
1383.0000;0.0716;-0.7833;
1383.3000;0.0741;-0.7767;
1383.6000;0.0724;-0.7811;
1383.9000;0.0692;-0.7922;
1384.2000;0.0708;-0.7966;
1384.5000;0.0733;-0.7922;
1384.8000;0.0692;-0.7966;
1385.1000;0.0716;-0.7878;
1385.4000;0.0659;-0.8055;
1385.7000;0.0708;-0.7944;
1386.0000;0.0708;-0.7966;
1386.3000;0.0692;-0.8099;
1386.6000;0.0724;-0.7988;
1386.9000;0.0781;-0.7855;
1387.2000;0.0708;-0.7944;
1387.5000;0.0659;-0.8033;
1387.8000;0.0733;-0.7944;
1388.1000;0.0708;-0.7944;
1388.4000;0.0733;-0.7878;
1388.7000;0.0676;-0.7988;
1389.0000;0.0757;-0.7900;
1389.3000;0.0741;-0.7922;
1389.6000;0.0757;-0.7833;
1389.9000;0.0741;-0.7833;
1390.2000;0.0741;-0.7811;
1390.5000;0.0684;-0.7833;
1390.8000;0.0749;-0.7678;
1391.1000;0.0724;-0.7789;
1391.4000;0.0627;-0.8143;
1391.7000;0.0724;-0.7922;
1392.0000;0.0733;-0.7944;
1392.3000;0.0724;-0.7922;
1392.6000;0.0692;-0.8010;
1392.9000;0.0708;-0.8033;
1393.2000;0.0773;-0.7789;
1393.5000;0.0708;-0.7811;
1393.8000;0.0643;-0.7944;
1394.1000;0.0700;-0.7833;
1394.4000;0.0798;-0.7723;
1394.7000;0.0724;-0.7922;
1395.0000;0.0724;-0.7922;
1395.3000;0.0781;-0.7767;
1395.6000;0.0684;-0.7944;
1395.9000;0.0716;-0.7789;
1396.2000;0.0724;-0.7833;
1396.5000;0.0692;-0.7988;
1396.8000;0.0700;-0.7944;
1397.1000;0.0724;-0.7900;
1397.4000;0.0708;-0.7878;
1397.7000;0.0700;-0.7966;
1398.0000;0.0733;-0.7878;
1398.3000;0.0651;-0.8077;
1398.6000;0.0773;-0.7701;
1398.9000;0.0684;-0.7944;
1399.2000;0.0676;-0.7922;
1399.5000;0.0733;-0.7745;
1399.8000;0.0716;-0.7745;
