time/ms;Fluo/V;P700 deltaI/I x10³;
-199.8000;0.0741;-0.9493;
-199.5000;0.0733;-0.9604;
-199.2000;0.0757;-0.9648;
-198.9000;0.0757;-0.9559;
-198.6000;0.0708;-0.9626;
-198.3000;0.0749;-0.9537;
-198.0000;0.0749;-0.9427;
-197.7000;0.0741;-0.9471;
-197.4000;0.0733;-0.9493;
-197.1000;0.0773;-0.9515;
-196.8000;0.0749;-0.9493;
-196.5000;0.0749;-0.9559;
-196.2000;0.0529;-1.0002;
-195.9000;0.0757;-0.9515;
-195.6000;0.0757;-0.9427;
-195.3000;0.0700;-0.9626;
-195.0000;0.0733;-0.9515;
-194.7000;0.0741;-0.9493;
-194.4000;0.0749;-0.9493;
-194.1000;0.0749;-0.9515;
-193.8000;0.0733;-0.9515;
-193.5000;0.0733;-0.9515;
-193.2000;0.0749;-0.9537;
-192.9000;0.0757;-0.9515;
-192.6000;0.0724;-0.9493;
-192.3000;0.0733;-0.9515;
-192.0000;0.0757;-0.9449;
-191.7000;0.0741;-0.9427;
-191.4000;0.0749;-0.9227;
-191.1000;0.0765;-0.9227;
-190.8000;0.0733;-0.9316;
-190.5000;0.0790;-0.9272;
-190.2000;0.0749;-0.9382;
-189.9000;0.0733;-0.9404;
-189.6000;0.0790;-0.9338;
-189.3000;0.0724;-0.9493;
-189.0000;0.0765;-0.9449;
-188.7000;0.0749;-0.9515;
-188.4000;0.0741;-0.9537;
-188.1000;0.0757;-0.9515;
-187.8000;0.0733;-0.9604;
-187.5000;0.0749;-0.9559;
-187.2000;0.0692;-0.9626;
-186.9000;0.0741;-0.9471;
-186.6000;0.0757;-0.9449;
-186.3000;0.0757;-0.9382;
-186.0000;0.0733;-0.9493;
-185.7000;0.0724;-0.9493;
-185.4000;0.0757;-0.9427;
-185.1000;0.0667;-0.9648;
-184.8000;0.0757;-0.9449;
-184.5000;0.0724;-0.9493;
-184.2000;0.0765;-0.9404;
-183.9000;0.0749;-0.9559;
-183.6000;0.0733;-0.9692;
-183.3000;0.0741;-0.9758;
-183.0000;0.0700;-0.9781;
-182.7000;0.0700;-0.9758;
-182.4000;0.0822;-0.9471;
-182.1000;0.0733;-0.9604;
-181.8000;0.0733;-0.9515;
-181.5000;0.0781;-0.9404;
-181.2000;0.0757;-0.9382;
-180.9000;0.0757;-0.9427;
-180.6000;0.0749;-0.9382;
-180.3000;0.0733;-0.9449;
-180.0000;0.0749;-0.9382;
-179.7000;0.0757;-0.9360;
-179.4000;0.0749;-0.9449;
-179.1000;0.0822;-0.9272;
-178.8000;0.0708;-0.9626;
-178.5000;0.0773;-0.9360;
-178.2000;0.0733;-0.9404;
-177.9000;0.0749;-0.9382;
-177.6000;0.0765;-0.9360;
-177.3000;0.0724;-0.9493;
-177.0000;0.0749;-0.9493;
-176.7000;0.0757;-0.9427;
-176.4000;0.0757;-0.9360;
-176.1000;0.0741;-0.9360;
-175.8000;0.0692;-0.9471;
-175.5000;0.0781;-0.9360;
-175.2000;0.0757;-0.9360;
-174.9000;0.0765;-0.9360;
-174.6000;0.0676;-0.9537;
-174.3000;0.0733;-0.9404;
-174.0000;0.0749;-0.9360;
-173.7000;0.0749;-0.9316;
-173.4000;0.0749;-0.9338;
-173.1000;0.0781;-0.9338;
-172.8000;0.0733;-0.9382;
-172.5000;0.0773;-0.9250;
-172.2000;0.0741;-0.9427;
-171.9000;0.0733;-0.9449;
-171.6000;0.0765;-0.9316;
-171.3000;0.0724;-0.9360;
-171.0000;0.0773;-0.9294;
-170.7000;0.0757;-0.9427;
-170.4000;0.0741;-0.9338;
-170.1000;0.0765;-0.9250;
-169.8000;0.0749;-0.9272;
-169.5000;0.0765;-0.9227;
-169.2000;0.0765;-0.9294;
-168.9000;0.0814;-0.9161;
-168.6000;0.0765;-0.9316;
-168.3000;0.0733;-0.9360;
-168.0000;0.0716;-0.9382;
-167.7000;0.0765;-0.9338;
-167.4000;0.0741;-0.9404;
-167.1000;0.0757;-0.9382;
-166.8000;0.0741;-0.9404;
-166.5000;0.0757;-0.9404;
-166.2000;0.0724;-0.9493;
-165.9000;0.0749;-0.9427;
-165.6000;0.0757;-0.9404;
-165.3000;0.0733;-0.9493;
-165.0000;0.0781;-0.9338;
-164.7000;0.0716;-0.9382;
-164.4000;0.0757;-0.9294;
-164.1000;0.0733;-0.9449;
-163.8000;0.0765;-0.9471;
-163.5000;0.0765;-0.9471;
-163.2000;0.0741;-0.9471;
-162.9000;0.0749;-0.9382;
-162.6000;0.0765;-0.9294;
-162.3000;0.0749;-0.9316;
-162.0000;0.0749;-0.9205;
-161.7000;0.0733;-0.9205;
-161.4000;0.0879;-0.9006;
-161.1000;0.0708;-0.9449;
-160.8000;0.0708;-0.9360;
-160.5000;0.0692;-0.9427;
-160.2000;0.0765;-0.9382;
-159.9000;0.0757;-0.9471;
-159.6000;0.0716;-0.9493;
-159.3000;0.0781;-0.9338;
-159.0000;0.0749;-0.9493;
-158.7000;0.0741;-0.9559;
-158.4000;0.0781;-0.9471;
-158.1000;0.0741;-0.9515;
-157.8000;0.0733;-0.9493;
-157.5000;0.0708;-0.9648;
-157.2000;0.0724;-0.9604;
-156.9000;0.0741;-0.9559;
-156.6000;0.0765;-0.9360;
-156.3000;0.0733;-0.9427;
-156.0000;0.0724;-0.9471;
-155.7000;0.0749;-0.9404;
-155.4000;0.0741;-0.9449;
-155.1000;0.0757;-0.9449;
-154.8000;0.0822;-0.9272;
-154.5000;0.0830;-0.9250;
-154.2000;0.0716;-0.9559;
-153.9000;0.0781;-0.9404;
-153.6000;0.0781;-0.9449;
-153.3000;0.0724;-0.9559;
-153.0000;0.0806;-0.9316;
-152.7000;0.0757;-0.9471;
-152.4000;0.0749;-0.9493;
-152.1000;0.0806;-0.9449;
-151.8000;0.0741;-0.9515;
-151.5000;0.0716;-0.9626;
-151.2000;0.0798;-0.9316;
-150.9000;0.0619;-0.9758;
-150.6000;0.0773;-0.9338;
-150.3000;0.0765;-0.9382;
-150.0000;0.0724;-0.9537;
-149.7000;0.0757;-0.9382;
-149.4000;0.0749;-0.9449;
-149.1000;0.0790;-0.9427;
-148.8000;0.0749;-0.9471;
-148.5000;0.0749;-0.9471;
-148.2000;0.0749;-0.9537;
-147.9000;0.0724;-0.9581;
-147.6000;0.0724;-0.9515;
-147.3000;0.0773;-0.9471;
-147.0000;0.0667;-0.9758;
-146.7000;0.0765;-0.9626;
-146.4000;0.0741;-0.9559;
-146.1000;0.0781;-0.9427;
-145.8000;0.0733;-0.9559;
-145.5000;0.0733;-0.9537;
-145.2000;0.0773;-0.9404;
-144.9000;0.0765;-0.9471;
-144.6000;0.0741;-0.9493;
-144.3000;0.0830;-0.9294;
-144.0000;0.0757;-0.9404;
-143.7000;0.0741;-0.9449;
-143.4000;0.0700;-0.9537;
-143.1000;0.0716;-0.9493;
-142.8000;0.0781;-0.9427;
-142.5000;0.0749;-0.9559;
-142.2000;0.0741;-0.9581;
-141.9000;0.0757;-0.9493;
-141.6000;0.0733;-0.9604;
-141.3000;0.0781;-0.9471;
-141.0000;0.0749;-0.9515;
-140.7000;0.0741;-0.9449;
-140.4000;0.0684;-0.9581;
-140.1000;0.0773;-0.9382;
-139.8000;0.0757;-0.9316;
-139.5000;0.0781;-0.9250;
-139.2000;0.0733;-0.9272;
-138.9000;0.0733;-0.9294;
-138.6000;0.0733;-0.9360;
-138.3000;0.0724;-0.9404;
-138.0000;0.0733;-0.9404;
-137.7000;0.0814;-0.9161;
-137.4000;0.0741;-0.9360;
-137.1000;0.0814;-0.9338;
-136.8000;0.0724;-0.9515;
-136.5000;0.0757;-0.9449;
-136.2000;0.0724;-0.9493;
-135.9000;0.0757;-0.9404;
-135.6000;0.0700;-0.9604;
-135.3000;0.0733;-0.9449;
-135.0000;0.0757;-0.9449;
-134.7000;0.0749;-0.9471;
-134.4000;0.0716;-0.9493;
-134.1000;0.0716;-0.9493;
-133.8000;0.0757;-0.9316;
-133.5000;0.0765;-0.9294;
-133.2000;0.0757;-0.9338;
-132.9000;0.0733;-0.9294;
-132.6000;0.0757;-0.9250;
-132.3000;0.0733;-0.9316;
-132.0000;0.0757;-0.9316;
-131.7000;0.0716;-0.9493;
-131.4000;0.0765;-0.9338;
-131.1000;0.0806;-0.9360;
-130.8000;0.0741;-0.9559;
-130.5000;0.0765;-0.9493;
-130.2000;0.0741;-0.9537;
-129.9000;0.0887;-0.9272;
-129.6000;0.0757;-0.9515;
-129.3000;0.0814;-0.9205;
-129.0000;0.0733;-0.9471;
-128.7000;0.0749;-0.9449;
-128.4000;0.0765;-0.9471;
-128.1000;0.0741;-0.9559;
-127.8000;0.0741;-0.9515;
-127.5000;0.0733;-0.9515;
-127.2000;0.0741;-0.9581;
-126.9000;0.0790;-0.9427;
-126.6000;0.0741;-0.9537;
-126.3000;0.0773;-0.9515;
-126.0000;0.0757;-0.9515;
-125.7000;0.0790;-0.9382;
-125.4000;0.0684;-0.9692;
-125.1000;0.0741;-0.9493;
-124.8000;0.0749;-0.9382;
-124.5000;0.0749;-0.9360;
-124.2000;0.0659;-0.9626;
-123.9000;0.0749;-0.9360;
-123.6000;0.0716;-0.9493;
-123.3000;0.0684;-0.9648;
-123.0000;0.0716;-0.9537;
-122.7000;0.0741;-0.9449;
-122.4000;0.0741;-0.9471;
-122.1000;0.0749;-0.9449;
-121.8000;0.0749;-0.9360;
-121.5000;0.0814;-0.9250;
-121.2000;0.0724;-0.9427;
-120.9000;0.0781;-0.9250;
-120.6000;0.0757;-0.9294;
-120.3000;0.0765;-0.9316;
-120.0000;0.0708;-0.9471;
-119.7000;0.0749;-0.9404;
-119.4000;0.0773;-0.9404;
-119.1000;0.0757;-0.9360;
-118.8000;0.0790;-0.9272;
-118.5000;0.0741;-0.9449;
-118.2000;0.0724;-0.9449;
-117.9000;0.0741;-0.9427;
-117.6000;0.0757;-0.9449;
-117.3000;0.0773;-0.9360;
-117.0000;0.0741;-0.9360;
-116.7000;0.0806;-0.9272;
-116.4000;0.0830;-0.9205;
-116.1000;0.0716;-0.9360;
-115.8000;0.0765;-0.9294;
-115.5000;0.0830;-0.9139;
-115.2000;0.0757;-0.9360;
-114.9000;0.0741;-0.9382;
-114.6000;0.0765;-0.9272;
-114.3000;0.0773;-0.9227;
-114.0000;0.0741;-0.9272;
-113.7000;0.0659;-0.9404;
-113.4000;0.0749;-0.9139;
-113.1000;0.0724;-0.9183;
-112.8000;0.0741;-0.9183;
-112.5000;0.0741;-0.9117;
-112.2000;0.0724;-0.9139;
-111.9000;0.0757;-0.9183;
-111.6000;0.0773;-0.9316;
-111.3000;0.0757;-0.9382;
-111.0000;0.0806;-0.9316;
-110.7000;0.0838;-0.9250;
-110.4000;0.0724;-0.9515;
-110.1000;0.0765;-0.9427;
-109.8000;0.0741;-0.9471;
-109.5000;0.0757;-0.9382;
-109.2000;0.0749;-0.9427;
-108.9000;0.0724;-0.9493;
-108.6000;0.0749;-0.9382;
-108.3000;0.0773;-0.9272;
-108.0000;0.0765;-0.9183;
-107.7000;0.0741;-0.9183;
-107.4000;0.0749;-0.9250;
-107.1000;0.0765;-0.9250;
-106.8000;0.0765;-0.9227;
-106.5000;0.0749;-0.9272;
-106.2000;0.0790;-0.9250;
-105.9000;0.0749;-0.9294;
-105.6000;0.0749;-0.9227;
-105.3000;0.0765;-0.9272;
-105.0000;0.0749;-0.9294;
-104.7000;0.0838;-0.9073;
-104.4000;0.0749;-0.9250;
-104.1000;0.0749;-0.9316;
-103.8000;0.0773;-0.9227;
-103.5000;0.0798;-0.9227;
-103.2000;0.0724;-0.9493;
-102.9000;0.0741;-0.9537;
-102.6000;0.0700;-0.9626;
-102.3000;0.0700;-0.9648;
-102.0000;0.0757;-0.9537;
-101.7000;0.0765;-0.9537;
-101.4000;0.0912;-0.9117;
-101.1000;0.0765;-0.9493;
-100.8000;0.0741;-0.9537;
-100.5000;0.0700;-0.9736;
-100.2000;0.0684;-0.9781;
-99.9000;0.0651;-0.9936;
-99.6000;0.0765;-0.9581;
-99.3000;0.0757;-0.9559;
-99.0000;0.0643;-0.9781;
-98.7000;0.0716;-0.9626;
-98.4000;0.0749;-0.9559;
-98.1000;0.0806;-0.9316;
-97.8000;0.0773;-0.9338;
-97.5000;0.0773;-0.9360;
-97.2000;0.0741;-0.9360;
-96.9000;0.0757;-0.9360;
-96.6000;0.0765;-0.9316;
-96.3000;0.0741;-0.9449;
-96.0000;0.0733;-0.9449;
-95.7000;0.0733;-0.9382;
-95.4000;0.0773;-0.9272;
-95.1000;0.0757;-0.9161;
-94.8000;0.0790;-0.9161;
-94.5000;0.0773;-0.9250;
-94.2000;0.0733;-0.9272;
-93.9000;0.0749;-0.9272;
-93.6000;0.0741;-0.9294;
-93.3000;0.0741;-0.9294;
-93.0000;0.0741;-0.9360;
-92.7000;0.0733;-0.9382;
-92.4000;0.0724;-0.9404;
-92.1000;0.0741;-0.9338;
-91.8000;0.0757;-0.9382;
-91.5000;0.0757;-0.9404;
-91.2000;0.0781;-0.9294;
-90.9000;0.0733;-0.9404;
-90.6000;0.0741;-0.9360;
-90.3000;0.0749;-0.9360;
-90.0000;0.0757;-0.9338;
-89.7000;0.0724;-0.9360;
-89.4000;0.0724;-0.9338;
-89.1000;0.0749;-0.9272;
-88.8000;0.0749;-0.9250;
-88.5000;0.0781;-0.9205;
-88.2000;0.0611;-0.9648;
-87.9000;0.0733;-0.9360;
-87.6000;0.0724;-0.9360;
-87.3000;0.0741;-0.9272;
-87.0000;0.0757;-0.9294;
-86.7000;0.0749;-0.9404;
-86.4000;0.0765;-0.9382;
-86.1000;0.0757;-0.9471;
-85.8000;0.0765;-0.9471;
-85.5000;0.0765;-0.9382;
-85.2000;0.0790;-0.9250;
-84.9000;0.0757;-0.9272;
-84.6000;0.0749;-0.9250;
-84.3000;0.0749;-0.9250;
-84.0000;0.0733;-0.9360;
-83.7000;0.0749;-0.9316;
-83.4000;0.0749;-0.9316;
-83.1000;0.0749;-0.9272;
-82.8000;0.0741;-0.9250;
-82.5000;0.0741;-0.9161;
-82.2000;0.0765;-0.9183;
-81.9000;0.0741;-0.9227;
-81.6000;0.0749;-0.9183;
-81.3000;0.0757;-0.9073;
-81.0000;0.0749;-0.9117;
-80.7000;0.0741;-0.9183;
-80.4000;0.0676;-0.9272;
-80.1000;0.0741;-0.9073;
-79.8000;0.0757;-0.9028;
-79.5000;0.0724;-0.9050;
-79.2000;0.0741;-0.9139;
-78.9000;0.0757;-0.9073;
-78.6000;0.0708;-0.9250;
-78.3000;0.0741;-0.9227;
-78.0000;0.0741;-0.9250;
-77.7000;0.0741;-0.9360;
-77.4000;0.0757;-0.9272;
-77.1000;0.0733;-0.9272;
-76.8000;0.0757;-0.9205;
-76.5000;0.0765;-0.9161;
-76.2000;0.0765;-0.9139;
-75.9000;0.0790;-0.9095;
-75.6000;0.0749;-0.9227;
-75.3000;0.0749;-0.9227;
-75.0000;0.0879;-0.8940;
-74.7000;0.0790;-0.9161;
-74.4000;0.0749;-0.9272;
-74.1000;0.0765;-0.9183;
-73.8000;0.0757;-0.9316;
-73.5000;0.0749;-0.9272;
-73.2000;0.0741;-0.9382;
-72.9000;0.0741;-0.9404;
-72.6000;0.0700;-0.9537;
-72.3000;0.0749;-0.9382;
-72.0000;0.0741;-0.9449;
-71.7000;0.0765;-0.9360;
-71.4000;0.0757;-0.9316;
-71.1000;0.0692;-0.9360;
-70.8000;0.0757;-0.9205;
-70.5000;0.0733;-0.9294;
-70.2000;0.0757;-0.9183;
-69.9000;0.0716;-0.9250;
-69.6000;0.0765;-0.9272;
-69.3000;0.0749;-0.9183;
-69.0000;0.0733;-0.9227;
-68.7000;0.0773;-0.9183;
-68.4000;0.0757;-0.9205;
-68.1000;0.0716;-0.9294;
-67.8000;0.0692;-0.9316;
-67.5000;0.0781;-0.9095;
-67.2000;0.0700;-0.9294;
-66.9000;0.0765;-0.9139;
-66.6000;0.0741;-0.9250;
-66.3000;0.0765;-0.9250;
-66.0000;0.0765;-0.9227;
-65.7000;0.0765;-0.9250;
-65.4000;0.0757;-0.9294;
-65.1000;0.0733;-0.9382;
-64.8000;0.0749;-0.9360;
-64.5000;0.0765;-0.9360;
-64.2000;0.0733;-0.9382;
-63.9000;0.0765;-0.9272;
-63.6000;0.0749;-0.9294;
-63.3000;0.0757;-0.9294;
-63.0000;0.0749;-0.9338;
-62.7000;0.0724;-0.9316;
-62.4000;0.0741;-0.9272;
-62.1000;0.0790;-0.9139;
-61.8000;0.0749;-0.9338;
-61.5000;0.0765;-0.9250;
-61.2000;0.0749;-0.9316;
-60.9000;0.0749;-0.9338;
-60.6000;0.0765;-0.9294;
-60.3000;0.0773;-0.9316;
-60.0000;0.0651;-0.9581;
-59.7000;0.0757;-0.9338;
-59.4000;0.0741;-0.9382;
-59.1000;0.0733;-0.9404;
-58.8000;0.0724;-0.9449;
-58.5000;0.0684;-0.9692;
-58.2000;0.0733;-0.9537;
-57.9000;0.0602;-0.9847;
-57.6000;0.0855;-0.9272;
-57.3000;0.0733;-0.9537;
-57.0000;0.0838;-0.9338;
-56.7000;0.0765;-0.9537;
-56.4000;0.0749;-0.9493;
-56.1000;0.0749;-0.9471;
-55.8000;0.0733;-0.9449;
-55.5000;0.0619;-0.9758;
-55.2000;0.0733;-0.9449;
-54.9000;0.0814;-0.9183;
-54.6000;0.0749;-0.9360;
-54.3000;0.0765;-0.9427;
-54.0000;0.0781;-0.9427;
-53.7000;0.0765;-0.9449;
-53.4000;0.0749;-0.9471;
-53.1000;0.0716;-0.9604;
-52.8000;0.0749;-0.9471;
-52.5000;0.0765;-0.9471;
-52.2000;0.0749;-0.9449;
-51.9000;0.0773;-0.9471;
-51.6000;0.0741;-0.9581;
-51.3000;0.0749;-0.9559;
-51.0000;0.0749;-0.9604;
-50.7000;0.0733;-0.9648;
-50.4000;0.0602;-0.9958;
-50.1000;0.0757;-0.9604;
-49.8000;0.0757;-0.9604;
-49.5000;0.0798;-0.9537;
-49.2000;0.0765;-0.9692;
-48.9000;0.0749;-0.9736;
-48.6000;0.0749;-0.9670;
-48.3000;0.0790;-0.9537;
-48.0000;0.0765;-0.9471;
-47.7000;0.0757;-0.9471;
-47.4000;0.0863;-0.9183;
-47.1000;0.0790;-0.9338;
-46.8000;0.0741;-0.9338;
-46.5000;0.0741;-0.9404;
-46.2000;0.0749;-0.9471;
-45.9000;0.0765;-0.9427;
-45.6000;0.0741;-0.9493;
-45.3000;0.0847;-0.9227;
-45.0000;0.0781;-0.9338;
-44.7000;0.0700;-0.9382;
-44.4000;0.0814;-0.9139;
-44.1000;0.0749;-0.9227;
-43.8000;0.0692;-0.9427;
-43.5000;0.0749;-0.9250;
-43.2000;0.0806;-0.9117;
-42.9000;0.0757;-0.9250;
-42.6000;0.0733;-0.9250;
-42.3000;0.0741;-0.9205;
-42.0000;0.0757;-0.9250;
-41.7000;0.0749;-0.9338;
-41.4000;0.0724;-0.9471;
-41.1000;0.0757;-0.9449;
-40.8000;0.0741;-0.9581;
-40.5000;0.0790;-0.9471;
-40.2000;0.0822;-0.9316;
-39.9000;0.0790;-0.9338;
-39.6000;0.0765;-0.9427;
-39.3000;0.0749;-0.9471;
-39.0000;0.0684;-0.9604;
-38.7000;0.0733;-0.9449;
-38.4000;0.0781;-0.9272;
-38.1000;0.0741;-0.9360;
-37.8000;0.0765;-0.9404;
-37.5000;0.0716;-0.9449;
-37.2000;0.0733;-0.9404;
-36.9000;0.0798;-0.9272;
-36.6000;0.0757;-0.9272;
-36.3000;0.0781;-0.9161;
-36.0000;0.0855;-0.9117;
-35.7000;0.0773;-0.9449;
-35.4000;0.0773;-0.9471;
-35.1000;0.0765;-0.9471;
-34.8000;0.0765;-0.9493;
-34.5000;0.0741;-0.9404;
-34.2000;0.0716;-0.9427;
-33.9000;0.0749;-0.9427;
-33.6000;0.0765;-0.9493;
-33.3000;0.0724;-0.9714;
-33.0000;0.0790;-0.9604;
-32.7000;0.0822;-0.9537;
-32.4000;0.0684;-0.9803;
-32.1000;0.0757;-0.9714;
-31.8000;0.0749;-0.9670;
-31.5000;0.0765;-0.9604;
-31.2000;0.0773;-0.9581;
-30.9000;0.0749;-0.9559;
-30.6000;0.0765;-0.9559;
-30.3000;0.0790;-0.9537;
-30.0000;0.0741;-0.9626;
-29.7000;0.0733;-0.9648;
-29.4000;0.0838;-0.9449;
-29.1000;0.0724;-0.9692;
-28.8000;0.0741;-0.9692;
-28.5000;0.0741;-0.9714;
-28.2000;0.0806;-0.9404;
-27.9000;0.0757;-0.9515;
-27.6000;0.0733;-0.9581;
-27.3000;0.0749;-0.9537;
-27.0000;0.0830;-0.9294;
-26.7000;0.0749;-0.9427;
-26.4000;0.0871;-0.9183;
-26.1000;0.0781;-0.9427;
-25.8000;0.0757;-0.9471;
-25.5000;0.0757;-0.9493;
-25.2000;0.0741;-0.9515;
-24.9000;0.0749;-0.9515;
-24.6000;0.0790;-0.9449;
-24.3000;0.0765;-0.9493;
-24.0000;0.0765;-0.9427;
-23.7000;0.0757;-0.9471;
-23.4000;0.0773;-0.9382;
-23.1000;0.0749;-0.9382;
-22.8000;0.0749;-0.9427;
-22.5000;0.0757;-0.9360;
-22.2000;0.0757;-0.9382;
-21.9000;0.0773;-0.9338;
-21.6000;0.0790;-0.9338;
-21.3000;0.0724;-0.9515;
-21.0000;0.0749;-0.9493;
-20.7000;0.0749;-0.9427;
-20.4000;0.0700;-0.9604;
-20.1000;0.0765;-0.9404;
-19.8000;0.0790;-0.9272;
-19.5000;0.0781;-0.9250;
-19.2000;0.0765;-0.9360;
-18.9000;0.0757;-0.9338;
-18.6000;0.0749;-0.9360;
-18.3000;0.0724;-0.9404;
-18.0000;0.0741;-0.9294;
-17.7000;0.0741;-0.9294;
-17.4000;0.0773;-0.9183;
-17.1000;0.0741;-0.9294;
-16.8000;0.0757;-0.9205;
-16.5000;0.0749;-0.9139;
-16.2000;0.0781;-0.8984;
-15.9000;0.0749;-0.9028;
-15.6000;0.0773;-0.9028;
-15.3000;0.0749;-0.9139;
-15.0000;0.0749;-0.9183;
-14.7000;0.0814;-0.9117;
-14.4000;0.0749;-0.9272;
-14.1000;0.0798;-0.9161;
-13.8000;0.0733;-0.9227;
-13.5000;0.0790;-0.9139;
-13.2000;0.0741;-0.9250;
-12.9000;0.0790;-0.9050;
-12.6000;0.0765;-0.9227;
-12.3000;0.0700;-0.9338;
-12.0000;0.0806;-0.9117;
-11.7000;0.0773;-0.9272;
-11.4000;0.0757;-0.9272;
-11.1000;0.0806;-0.9117;
-10.8000;0.0749;-0.9250;
-10.5000;0.0781;-0.9227;
-10.2000;0.0708;-0.9382;
-9.9000;0.0749;-0.9294;
-9.6000;0.0741;-0.9338;
-9.3000;0.0659;-0.9537;
-9.0000;0.0781;-0.9316;
-8.7000;0.0749;-0.9471;
-8.4000;0.0798;-0.9338;
-8.1000;0.0765;-0.9404;
-7.8000;0.0716;-0.9427;
-7.5000;0.0798;-0.9161;
-7.2000;0.0708;-0.9449;
-6.9000;0.0741;-0.9316;
-6.6000;0.0757;-0.9227;
-6.3000;0.0765;-0.9272;
-6.0000;0.0757;-0.9272;
-5.7000;0.0741;-0.9205;
-5.4000;0.0692;-0.9404;
-5.1000;0.0798;-0.9117;
-4.8000;0.0749;-0.9095;
-4.5000;0.0749;-0.8984;
-4.2000;0.0716;-0.9095;
-3.9000;0.0749;-0.9006;
-3.6000;0.0757;-0.8984;
-3.3000;0.0749;-0.8984;
-3.0000;0.0757;-0.8940;
-2.7000;0.0757;-0.8984;
-2.4000;0.0806;-0.8896;
-2.1000;0.0749;-0.9073;
-1.8000;0.0765;-0.9117;
-1.5000;0.0773;-0.9139;
-1.2000;0.0757;-0.9161;
-0.9000;0.0749;-0.9250;
-0.6000;0.0757;-0.9183;
-0.3000;0.0757;-0.9161;
0.0000;0.0757;-0.9161;
0.3000;0.0749;-0.8984;
0.6000;0.0773;-0.8896;
0.9000;0.0781;-0.8851;
1.2000;0.0773;-0.8851;
1.5000;0.0822;-0.8718;
1.8000;0.0806;-0.8696;
2.1000;0.0781;-0.8718;
2.4000;0.0822;-0.8674;
2.7000;0.0847;-0.8652;
3.0000;0.0838;-0.8652;
3.3000;0.0838;-0.8586;
3.6000;0.0838;-0.8564;
3.9000;0.0847;-0.8453;
4.2000;0.0847;-0.8364;
4.5000;0.0838;-0.8409;
4.8000;0.0871;-0.8320;
5.1000;0.0855;-0.8364;
5.4000;0.0952;-0.8055;
5.7000;0.0855;-0.8298;
6.0000;0.0830;-0.8431;
6.3000;0.0871;-0.8210;
6.6000;0.0871;-0.8210;
6.9000;0.0895;-0.8077;
7.2000;0.0863;-0.8143;
7.5000;0.0879;-0.8165;
7.8000;0.0863;-0.8187;
8.1000;0.0871;-0.8210;
8.4000;0.0863;-0.8099;
8.7000;0.0863;-0.8077;
9.0000;0.0871;-0.8077;
9.3000;0.0855;-0.8010;
9.6000;0.0879;-0.7966;
9.9000;0.0871;-0.8055;
10.2000;0.0863;-0.8099;
10.5000;0.0838;-0.8276;
10.8000;0.0871;-0.8232;
11.1000;0.0871;-0.8232;
11.4000;0.0912;-0.8055;
11.7000;0.0847;-0.8210;
12.0000;0.0871;-0.8143;
12.3000;0.0733;-0.8453;
12.6000;0.0871;-0.8143;
12.9000;0.0912;-0.8010;
13.2000;0.0871;-0.8077;
13.5000;0.0871;-0.8121;
13.8000;0.0847;-0.8210;
14.1000;0.0887;-0.8055;
14.4000;0.0863;-0.8121;
14.7000;0.0798;-0.8387;
15.0000;0.0887;-0.8165;
15.3000;0.0879;-0.8187;
15.6000;0.0822;-0.8298;
15.9000;0.0863;-0.8210;
16.2000;0.0871;-0.8210;
16.5000;0.0871;-0.8232;
16.8000;0.0855;-0.8165;
17.1000;0.0863;-0.8143;
17.4000;0.0879;-0.8099;
17.7000;0.0871;-0.8121;
18.0000;0.0855;-0.8121;
18.3000;0.0871;-0.8099;
18.6000;0.0895;-0.8055;
18.9000;0.0855;-0.8187;
19.2000;0.0871;-0.8143;
19.5000;0.0863;-0.8143;
19.8000;0.0871;-0.8077;
20.1000;0.0863;-0.8033;
20.4000;0.0879;-0.8077;
20.7000;0.0863;-0.8121;
21.0000;0.0798;-0.8232;
21.3000;0.0895;-0.8010;
21.6000;0.0887;-0.8010;
21.9000;0.0895;-0.7966;
22.2000;0.0855;-0.8099;
22.5000;0.0879;-0.8010;
22.8000;0.0871;-0.8077;
23.1000;0.0961;-0.7878;
23.4000;0.0912;-0.8077;
23.7000;0.0912;-0.8099;
24.0000;0.0879;-0.8121;
24.3000;0.0855;-0.8143;
24.6000;0.0855;-0.8121;
24.9000;0.0977;-0.7922;
25.2000;0.0895;-0.8033;
25.5000;0.0871;-0.8121;
25.8000;0.0871;-0.8210;
26.1000;0.0904;-0.8143;
26.4000;0.0871;-0.8232;
26.7000;0.0879;-0.8298;
27.0000;0.0871;-0.8342;
27.3000;0.0838;-0.8453;
27.6000;0.0855;-0.8364;
27.9000;0.0855;-0.8387;
28.2000;0.0887;-0.8364;
28.5000;0.0879;-0.8364;
28.8000;0.0863;-0.8387;
29.1000;0.0895;-0.8387;
29.4000;0.0912;-0.8298;
29.7000;0.0863;-0.8342;
30.0000;0.0928;-0.8143;
30.3000;0.0887;-0.8232;
30.6000;0.0887;-0.8320;
30.9000;0.0863;-0.8364;
31.2000;0.0863;-0.8387;
31.5000;0.0847;-0.8298;
31.8000;0.0863;-0.8210;
32.1000;0.0871;-0.8143;
32.4000;0.0904;-0.8099;
32.7000;0.0871;-0.8143;
33.0000;0.0887;-0.8121;
33.3000;0.0781;-0.8431;
33.6000;0.0879;-0.8254;
33.9000;0.0887;-0.8320;
34.2000;0.0895;-0.8254;
34.5000;0.0879;-0.8210;
34.8000;0.0944;-0.8077;
35.1000;0.0855;-0.8210;
35.4000;0.0806;-0.8320;
35.7000;0.0871;-0.8121;
36.0000;0.0895;-0.8121;
36.3000;0.0887;-0.8143;
36.6000;0.0879;-0.8121;
36.9000;0.0838;-0.8254;
37.2000;0.0871;-0.8165;
37.5000;0.0879;-0.8143;
37.8000;0.0920;-0.8099;
38.1000;0.0879;-0.8210;
38.4000;0.0847;-0.8320;
38.7000;0.0871;-0.8387;
39.0000;0.0879;-0.8364;
39.3000;0.0895;-0.8320;
39.6000;0.0887;-0.8276;
39.9000;0.0895;-0.8342;
40.2000;0.0871;-0.8431;
40.5000;0.0879;-0.8387;
40.8000;0.0887;-0.8342;
41.1000;0.0887;-0.8320;
41.4000;0.0871;-0.8431;
41.7000;0.0838;-0.8519;
42.0000;0.0806;-0.8541;
42.3000;0.0871;-0.8320;
42.6000;0.0895;-0.8298;
42.9000;0.0912;-0.8232;
43.2000;0.0879;-0.8254;
43.5000;0.0879;-0.8298;
43.8000;0.0838;-0.8453;
44.1000;0.0871;-0.8276;
44.4000;0.0904;-0.8165;
44.7000;0.0855;-0.8232;
45.0000;0.0879;-0.8187;
45.3000;0.0895;-0.8165;
45.6000;0.0879;-0.8121;
45.9000;0.0920;-0.8033;
46.2000;0.0871;-0.8165;
46.5000;0.0871;-0.8165;
46.8000;0.0879;-0.8298;
47.1000;0.0895;-0.8232;
47.4000;0.0863;-0.8187;
47.7000;0.0863;-0.8121;
48.0000;0.0871;-0.8055;
48.3000;0.0879;-0.8055;
48.6000;0.0887;-0.8010;
48.9000;0.0904;-0.7988;
49.2000;0.0887;-0.8033;
49.5000;0.0936;-0.8055;
49.8000;0.0895;-0.8232;
50.1000;0.0887;-0.8254;
50.4000;0.0928;-0.8121;
50.7000;0.0928;-0.8165;
51.0000;0.0912;-0.8099;
51.3000;0.0887;-0.8077;
51.6000;0.0895;-0.8077;
51.9000;0.0863;-0.8165;
52.2000;0.0895;-0.8143;
52.5000;0.0904;-0.8165;
52.8000;0.0879;-0.8254;
53.1000;0.0952;-0.8033;
53.4000;0.0904;-0.8232;
53.7000;0.0879;-0.8320;
54.0000;0.0895;-0.8298;
54.3000;0.0879;-0.8232;
54.6000;0.0871;-0.8254;
54.9000;0.0928;-0.8143;
55.2000;0.0879;-0.8210;
55.5000;0.0895;-0.8187;
55.8000;0.0887;-0.8254;
56.1000;0.0895;-0.8254;
56.4000;0.0887;-0.8342;
56.7000;0.0904;-0.8298;
57.0000;0.0814;-0.8431;
57.3000;0.0887;-0.8232;
57.6000;0.0879;-0.8232;
57.9000;0.0879;-0.8210;
58.2000;0.0895;-0.8187;
58.5000;0.0895;-0.8232;
58.8000;0.0912;-0.8254;
59.1000;0.0912;-0.8254;
59.4000;0.0912;-0.8298;
59.7000;0.0904;-0.8342;
60.0000;0.0895;-0.8387;
60.3000;0.0936;-0.8254;
60.6000;0.0855;-0.8453;
60.9000;0.0904;-0.8232;
61.2000;0.0895;-0.8276;
61.5000;0.0895;-0.8210;
61.8000;0.0887;-0.8254;
62.1000;0.0920;-0.8143;
62.4000;0.1034;-0.7878;
62.7000;0.0912;-0.8143;
63.0000;0.0887;-0.8165;
63.3000;0.0887;-0.8187;
63.6000;0.0895;-0.8232;
63.9000;0.0887;-0.8254;
64.2000;0.0904;-0.8210;
64.5000;0.0887;-0.8276;
64.8000;0.0952;-0.8143;
65.1000;0.0887;-0.8276;
65.4000;0.0904;-0.8187;
65.7000;0.0936;-0.8055;
66.0000;0.0895;-0.8121;
66.3000;0.0904;-0.8187;
66.6000;0.0879;-0.8342;
66.9000;0.0879;-0.8387;
67.2000;0.0920;-0.8342;
67.5000;0.0895;-0.8298;
67.8000;0.0879;-0.8276;
68.1000;0.0879;-0.8210;
68.4000;0.0887;-0.8187;
68.7000;0.0887;-0.8143;
69.0000;0.0895;-0.8210;
69.3000;0.0887;-0.8232;
69.6000;0.0887;-0.8254;
69.9000;0.0895;-0.8210;
70.2000;0.0895;-0.8143;
70.5000;0.0887;-0.8210;
70.8000;0.0912;-0.8165;
71.1000;0.0887;-0.8232;
71.4000;0.0928;-0.8165;
71.7000;0.0912;-0.8298;
72.0000;0.0928;-0.8276;
72.3000;0.0863;-0.8431;
72.6000;0.0895;-0.8320;
72.9000;0.0871;-0.8364;
73.2000;0.0993;-0.8077;
73.5000;0.0904;-0.8210;
73.8000;0.0838;-0.8431;
74.1000;0.0904;-0.8276;
74.4000;0.0887;-0.8276;
74.7000;0.0936;-0.8165;
75.0000;0.0928;-0.8165;
75.3000;0.0895;-0.8254;
75.6000;0.0904;-0.8320;
75.9000;0.0912;-0.8364;
76.2000;0.0904;-0.8497;
76.5000;0.0814;-0.8741;
76.8000;0.0887;-0.8409;
77.1000;0.0887;-0.8453;
77.4000;0.0895;-0.8453;
77.7000;0.0871;-0.8475;
78.0000;0.0879;-0.8387;
78.3000;0.0895;-0.8431;
78.6000;0.0920;-0.8497;
78.9000;0.0895;-0.8475;
79.2000;0.0895;-0.8387;
79.5000;0.0895;-0.8431;
79.8000;0.0887;-0.8519;
80.1000;0.0838;-0.8652;
80.4000;0.0895;-0.8475;
80.7000;0.0887;-0.8519;
81.0000;0.0895;-0.8541;
81.3000;0.0961;-0.8364;
81.6000;0.0944;-0.8342;
81.9000;0.0879;-0.8630;
82.2000;0.0879;-0.8564;
82.5000;0.0895;-0.8586;
82.8000;0.0863;-0.8630;
83.1000;0.0887;-0.8608;
83.4000;0.0855;-0.8696;
83.7000;0.0904;-0.8564;
84.0000;0.0912;-0.8497;
84.3000;0.0904;-0.8564;
84.6000;0.1001;-0.8342;
84.9000;0.0912;-0.8475;
85.2000;0.0871;-0.8497;
85.5000;0.0887;-0.8431;
85.8000;0.0993;-0.8254;
86.1000;0.0887;-0.8475;
86.4000;0.0879;-0.8497;
86.7000;0.1001;-0.8232;
87.0000;0.0855;-0.8586;
87.3000;0.0920;-0.8409;
87.6000;0.0879;-0.8453;
87.9000;0.0895;-0.8431;
88.2000;0.0879;-0.8453;
88.5000;0.0920;-0.8342;
88.8000;0.0887;-0.8475;
89.1000;0.0895;-0.8431;
89.4000;0.0961;-0.8187;
89.7000;0.0895;-0.8364;
90.0000;0.0904;-0.8342;
90.3000;0.0887;-0.8364;
90.6000;0.0895;-0.8387;
90.9000;0.0895;-0.8342;
91.2000;0.0887;-0.8276;
91.5000;0.0879;-0.8320;
91.8000;0.0879;-0.8276;
92.1000;0.0887;-0.8143;
92.4000;0.0879;-0.8187;
92.7000;0.0904;-0.8077;
93.0000;0.0928;-0.8055;
93.3000;0.0887;-0.8143;
93.6000;0.0887;-0.8187;
93.9000;0.0920;-0.8143;
94.2000;0.0895;-0.8210;
94.5000;0.0871;-0.8320;
94.8000;0.0895;-0.8232;
95.1000;0.0904;-0.8232;
95.4000;0.0895;-0.8254;
95.7000;0.0912;-0.8210;
96.0000;0.0912;-0.8210;
96.3000;0.0895;-0.8254;
96.6000;0.0879;-0.8320;
96.9000;0.0871;-0.8387;
97.2000;0.0879;-0.8364;
97.5000;0.0912;-0.8342;
97.8000;0.0904;-0.8342;
98.1000;0.0895;-0.8475;
98.4000;0.0871;-0.8564;
98.7000;0.0904;-0.8453;
99.0000;0.0895;-0.8475;
99.3000;0.0912;-0.8364;
99.6000;0.0928;-0.8298;
99.9000;0.0920;-0.8320;
100.2000;0.0895;-0.8320;
100.5000;0.0879;-0.8387;
100.8000;0.0895;-0.8387;
101.1000;0.1058;-0.7966;
101.4000;0.0871;-0.8409;
101.7000;0.0904;-0.8342;
102.0000;0.0920;-0.8276;
102.3000;0.0855;-0.8453;
102.6000;0.0879;-0.8320;
102.9000;0.0895;-0.8298;
103.2000;0.0904;-0.8276;
103.5000;0.1018;-0.8077;
103.8000;0.0904;-0.8276;
104.1000;0.0904;-0.8320;
104.4000;0.0871;-0.8475;
104.7000;0.0871;-0.8409;
105.0000;0.0887;-0.8364;
105.3000;0.0904;-0.8320;
105.6000;0.0912;-0.8320;
105.9000;0.0887;-0.8364;
106.2000;0.0928;-0.8232;
106.5000;0.0904;-0.8276;
106.8000;0.0830;-0.8387;
107.1000;0.0879;-0.8254;
107.4000;0.0895;-0.8254;
107.7000;0.0863;-0.8320;
108.0000;0.0944;-0.8254;
108.3000;0.0944;-0.8165;
108.6000;0.0961;-0.8187;
108.9000;0.0936;-0.8254;
109.2000;0.0920;-0.8232;
109.5000;0.0887;-0.8320;
109.8000;0.0944;-0.8165;
110.1000;0.0904;-0.8276;
110.4000;0.0887;-0.8298;
110.7000;0.0887;-0.8298;
111.0000;0.0879;-0.8276;
111.3000;0.0887;-0.8254;
111.6000;0.0904;-0.8254;
111.9000;0.0969;-0.8077;
112.2000;0.0887;-0.8232;
112.5000;0.0904;-0.8187;
112.8000;0.0912;-0.8165;
113.1000;0.0928;-0.8099;
113.4000;0.0944;-0.8010;
113.7000;0.0912;-0.8099;
114.0000;0.0887;-0.8232;
114.3000;0.0912;-0.8187;
114.6000;0.0912;-0.8187;
114.9000;0.0912;-0.8165;
115.2000;0.0895;-0.8187;
115.5000;0.0936;-0.8143;
115.8000;0.0912;-0.8210;
116.1000;0.0879;-0.8276;
116.4000;0.0887;-0.8298;
116.7000;0.0912;-0.8187;
117.0000;0.0904;-0.8187;
117.3000;0.0887;-0.8276;
117.6000;0.0912;-0.8210;
117.9000;0.0895;-0.8232;
118.2000;0.0904;-0.8254;
118.5000;0.0879;-0.8320;
118.8000;0.0904;-0.8210;
119.1000;0.0904;-0.8187;
119.4000;0.0895;-0.8187;
119.7000;0.0895;-0.8187;
120.0000;0.0879;-0.8276;
120.3000;0.0814;-0.8409;
120.6000;0.0920;-0.8121;
120.9000;0.0879;-0.8342;
121.2000;0.0969;-0.8121;
121.5000;0.0912;-0.8431;
121.8000;0.0895;-0.8409;
122.1000;0.0904;-0.8364;
122.4000;0.0904;-0.8387;
122.7000;0.0912;-0.8387;
123.0000;0.0936;-0.8387;
123.3000;0.0879;-0.8453;
123.6000;0.0895;-0.8364;
123.9000;0.0920;-0.8254;
124.2000;0.0985;-0.8077;
124.5000;0.0895;-0.8254;
124.8000;0.0895;-0.8232;
125.1000;0.0920;-0.8143;
125.4000;0.0952;-0.8121;
125.7000;0.0912;-0.8187;
126.0000;0.0806;-0.8431;
126.3000;0.0904;-0.8342;
126.6000;0.0904;-0.8364;
126.9000;0.0952;-0.8187;
127.2000;0.0879;-0.8364;
127.5000;0.0952;-0.8187;
127.8000;0.0912;-0.8364;
128.1000;0.0928;-0.8364;
128.4000;0.0855;-0.8453;
128.7000;0.0895;-0.8320;
129.0000;0.0912;-0.8320;
129.3000;0.0847;-0.8475;
129.6000;0.0871;-0.8364;
129.9000;0.0912;-0.8187;
130.2000;0.0887;-0.8298;
130.5000;0.0936;-0.8210;
130.8000;0.0904;-0.8342;
131.1000;0.0952;-0.8254;
131.4000;0.0863;-0.8387;
131.7000;0.1050;-0.7966;
132.0000;0.0895;-0.8364;
132.3000;0.0904;-0.8276;
132.6000;0.0928;-0.8165;
132.9000;0.0904;-0.8276;
133.2000;0.0895;-0.8320;
133.5000;0.0855;-0.8453;
133.8000;0.0904;-0.8431;
134.1000;0.0912;-0.8409;
134.4000;0.0928;-0.8298;
134.7000;0.0879;-0.8409;
135.0000;0.0912;-0.8409;
135.3000;0.0887;-0.8431;
135.6000;0.0912;-0.8387;
135.9000;0.0952;-0.8320;
136.2000;0.0904;-0.8364;
136.5000;0.0895;-0.8364;
136.8000;0.0895;-0.8409;
137.1000;0.0936;-0.8298;
137.4000;0.0912;-0.8364;
137.7000;0.0904;-0.8409;
138.0000;0.0879;-0.8453;
138.3000;0.0920;-0.8298;
138.6000;0.0912;-0.8276;
138.9000;0.0912;-0.8342;
139.2000;0.0887;-0.8431;
139.5000;0.0928;-0.8298;
139.8000;0.0936;-0.8342;
140.1000;0.0904;-0.8431;
140.4000;0.0838;-0.8608;
140.7000;0.0904;-0.8409;
141.0000;0.0904;-0.8431;
141.3000;0.0871;-0.8519;
141.6000;0.0863;-0.8541;
141.9000;0.0887;-0.8475;
142.2000;0.0944;-0.8364;
142.5000;0.0920;-0.8475;
142.8000;0.0871;-0.8564;
143.1000;0.0920;-0.8453;
143.4000;0.0895;-0.8453;
143.7000;0.0912;-0.8409;
144.0000;0.0879;-0.8409;
144.3000;0.0895;-0.8320;
144.6000;0.0936;-0.8165;
144.9000;0.0895;-0.8276;
145.2000;0.0895;-0.8210;
145.5000;0.0879;-0.8187;
145.8000;0.0920;-0.8121;
146.1000;0.0920;-0.8143;
146.4000;0.0895;-0.8210;
146.7000;0.0912;-0.8187;
147.0000;0.0806;-0.8431;
147.3000;0.0895;-0.8099;
147.6000;0.0904;-0.8033;
147.9000;0.0838;-0.8298;
148.2000;0.0904;-0.8121;
148.5000;0.0887;-0.8143;
148.8000;0.0904;-0.8099;
149.1000;0.0928;-0.8033;
149.4000;0.0912;-0.8099;
149.7000;0.0985;-0.7922;
150.0000;0.0904;-0.8121;
150.3000;0.0928;-0.8121;
150.6000;0.0879;-0.8210;
150.9000;0.0912;-0.8210;
151.2000;0.0895;-0.8254;
151.5000;0.0887;-0.8165;
151.8000;0.0895;-0.8121;
152.1000;0.0895;-0.8099;
152.4000;0.0838;-0.8254;
152.7000;0.1009;-0.7900;
153.0000;0.0887;-0.8143;
153.3000;0.0920;-0.8033;
153.6000;0.0904;-0.8099;
153.9000;0.0912;-0.8077;
154.2000;0.0920;-0.8033;
154.5000;0.0904;-0.8033;
154.8000;0.0912;-0.8099;
155.1000;0.0961;-0.8099;
155.4000;0.0952;-0.8033;
155.7000;0.0895;-0.8165;
156.0000;0.0961;-0.8077;
156.3000;0.0904;-0.8232;
156.6000;0.0904;-0.8298;
156.9000;0.0855;-0.8409;
157.2000;0.0895;-0.8364;
157.5000;0.0887;-0.8431;
157.8000;0.0912;-0.8364;
158.1000;0.0887;-0.8387;
158.4000;0.0912;-0.8298;
158.7000;0.0912;-0.8254;
159.0000;0.0895;-0.8276;
159.3000;0.0904;-0.8232;
159.6000;0.0895;-0.8210;
159.9000;0.0904;-0.8187;
160.2000;0.0904;-0.8210;
160.5000;0.0920;-0.8165;
160.8000;0.0895;-0.8187;
161.1000;0.0895;-0.8121;
161.4000;0.0920;-0.8055;
161.7000;0.0871;-0.8165;
162.0000;0.0887;-0.8165;
162.3000;0.0936;-0.8099;
162.6000;0.0895;-0.8143;
162.9000;0.0920;-0.8143;
163.2000;0.0847;-0.8409;
163.5000;0.0936;-0.8210;
163.8000;0.0944;-0.8165;
164.1000;0.0904;-0.8342;
164.4000;0.1042;-0.8010;
164.7000;0.0887;-0.8431;
165.0000;0.0912;-0.8320;
165.3000;0.0904;-0.8298;
165.6000;0.0887;-0.8364;
165.9000;0.0920;-0.8232;
166.2000;0.1001;-0.8077;
166.5000;0.0863;-0.8453;
166.8000;0.0920;-0.8364;
167.1000;0.0912;-0.8320;
167.4000;0.0904;-0.8298;
167.7000;0.0912;-0.8232;
168.0000;0.0977;-0.8077;
168.3000;0.0928;-0.8254;
168.6000;0.0952;-0.8298;
168.9000;0.0912;-0.8320;
169.2000;0.0920;-0.8276;
169.5000;0.0887;-0.8364;
169.8000;0.0920;-0.8254;
170.1000;0.0920;-0.8320;
170.4000;0.0936;-0.8387;
170.7000;0.0895;-0.8475;
171.0000;0.0895;-0.8586;
171.3000;0.0904;-0.8519;
171.6000;0.0969;-0.8298;
171.9000;0.0887;-0.8431;
172.2000;0.0895;-0.8564;
172.5000;0.0904;-0.8586;
172.8000;0.0952;-0.8453;
173.1000;0.0904;-0.8541;
173.4000;0.0887;-0.8630;
173.7000;0.0920;-0.8608;
174.0000;0.0855;-0.8763;
174.3000;0.0920;-0.8586;
174.6000;0.0920;-0.8586;
174.9000;0.0904;-0.8630;
175.2000;0.0847;-0.8785;
175.5000;0.0887;-0.8652;
175.8000;0.0928;-0.8586;
176.1000;0.0952;-0.8564;
176.4000;0.0952;-0.8564;
176.7000;0.0887;-0.8630;
177.0000;0.0952;-0.8541;
177.3000;0.0904;-0.8652;
177.6000;0.0928;-0.8541;
177.9000;0.0887;-0.8586;
178.2000;0.0887;-0.8541;
178.5000;0.0977;-0.8254;
178.8000;0.0936;-0.8364;
179.1000;0.0928;-0.8342;
179.4000;0.0928;-0.8342;
179.7000;0.0904;-0.8475;
180.0000;0.0879;-0.8630;
180.3000;0.0912;-0.8541;
180.6000;0.0863;-0.8586;
180.9000;0.0879;-0.8586;
181.2000;0.0879;-0.8564;
181.5000;0.0928;-0.8431;
181.8000;0.0887;-0.8541;
182.1000;0.0944;-0.8453;
182.4000;0.0895;-0.8431;
182.7000;0.0928;-0.8320;
183.0000;0.0904;-0.8431;
183.3000;0.0879;-0.8541;
183.6000;0.0863;-0.8564;
183.9000;0.0904;-0.8519;
184.2000;0.0895;-0.8541;
184.5000;0.0879;-0.8519;
184.8000;0.0944;-0.8342;
185.1000;0.0920;-0.8497;
185.4000;0.0887;-0.8630;
185.7000;0.0912;-0.8564;
186.0000;0.0879;-0.8630;
186.3000;0.0838;-0.8763;
186.6000;0.0912;-0.8586;
186.9000;0.0879;-0.8763;
187.2000;0.0887;-0.8785;
187.5000;0.0895;-0.8696;
187.8000;0.0904;-0.8608;
188.1000;0.0904;-0.8586;
188.4000;0.0952;-0.8387;
188.7000;0.0895;-0.8475;
189.0000;0.0920;-0.8364;
189.3000;0.0920;-0.8320;
189.6000;0.0887;-0.8364;
189.9000;0.0912;-0.8320;
190.2000;0.0912;-0.8364;
190.5000;0.0895;-0.8431;
190.8000;0.0895;-0.8541;
191.1000;0.0895;-0.8497;
191.4000;0.0920;-0.8409;
191.7000;0.0887;-0.8519;
192.0000;0.0936;-0.8364;
192.3000;0.0895;-0.8364;
192.6000;0.0904;-0.8320;
192.9000;0.0904;-0.8342;
193.2000;0.0879;-0.8342;
193.5000;0.0895;-0.8276;
193.8000;0.0887;-0.8254;
194.1000;0.0912;-0.8210;
194.4000;0.0912;-0.8409;
194.7000;0.0928;-0.8320;
195.0000;0.0928;-0.8276;
195.3000;0.0912;-0.8320;
195.6000;0.0895;-0.8409;
195.9000;0.0798;-0.8630;
196.2000;0.0814;-0.8608;
196.5000;0.0912;-0.8409;
196.8000;0.1042;-0.8077;
197.1000;0.0912;-0.8364;
197.4000;0.0838;-0.8564;
197.7000;0.0806;-0.8564;
198.0000;0.0904;-0.8320;
198.3000;0.1026;-0.8121;
198.6000;0.0887;-0.8497;
198.9000;0.0904;-0.8409;
199.2000;0.0895;-0.8342;
199.5000;0.0944;-0.8276;
199.8000;0.0887;-0.8364;
200.1000;0.0895;-0.8409;
200.4000;0.0895;-0.8431;
200.7000;0.0895;-0.8497;
201.0000;0.0814;-0.8652;
201.3000;0.0912;-0.8342;
201.6000;0.0895;-0.8431;
201.9000;0.0920;-0.8475;
202.2000;0.0904;-0.8519;
202.5000;0.0838;-0.8608;
202.8000;0.0912;-0.8387;
203.1000;0.0838;-0.8497;
203.4000;0.0814;-0.8674;
203.7000;0.0912;-0.8409;
204.0000;0.0887;-0.8364;
204.3000;0.0912;-0.8254;
204.6000;0.0798;-0.8453;
204.9000;0.0838;-0.8387;
205.2000;0.0912;-0.8232;
205.5000;0.0887;-0.8298;
205.8000;0.0904;-0.8276;
206.1000;0.0920;-0.8320;
206.4000;0.0920;-0.8387;
206.7000;0.0879;-0.8431;
207.0000;0.0895;-0.8387;
207.3000;0.0920;-0.8298;
207.6000;0.0822;-0.8564;
207.9000;0.0912;-0.8342;
208.2000;0.0928;-0.8320;
208.5000;0.0895;-0.8409;
208.8000;0.0887;-0.8364;
209.1000;0.0895;-0.8342;
209.4000;0.0895;-0.8453;
209.7000;0.0895;-0.8453;
210.0000;0.0863;-0.8564;
210.3000;0.0912;-0.8431;
210.6000;0.0928;-0.8409;
210.9000;0.0928;-0.8364;
211.2000;0.0863;-0.8475;
211.5000;0.0871;-0.8387;
211.8000;0.0904;-0.8364;
212.1000;0.0912;-0.8431;
212.4000;0.0904;-0.8409;
212.7000;0.0895;-0.8409;
213.0000;0.0928;-0.8409;
213.3000;0.1009;-0.8298;
213.6000;0.0895;-0.8630;
213.9000;0.0920;-0.8519;
214.2000;0.0920;-0.8475;
214.5000;0.0936;-0.8453;
214.8000;0.0928;-0.8475;
215.1000;0.0895;-0.8519;
215.4000;0.0895;-0.8431;
215.7000;0.0944;-0.8364;
216.0000;0.0895;-0.8453;
216.3000;0.0904;-0.8320;
216.6000;0.0904;-0.8364;
216.9000;0.0879;-0.8475;
217.2000;0.0904;-0.8342;
217.5000;0.0928;-0.8342;
217.8000;0.0961;-0.8298;
218.1000;0.0936;-0.8320;
218.4000;0.0904;-0.8387;
218.7000;0.0895;-0.8409;
219.0000;0.0993;-0.8276;
219.3000;0.0912;-0.8564;
219.6000;0.0871;-0.8608;
219.9000;0.0887;-0.8541;
220.2000;0.0912;-0.8409;
220.5000;0.0855;-0.8431;
220.8000;0.0887;-0.8320;
221.1000;0.0895;-0.8387;
221.4000;0.0863;-0.8519;
221.7000;0.0855;-0.8564;
222.0000;0.0904;-0.8453;
222.3000;0.0847;-0.8630;
222.6000;0.0920;-0.8342;
222.9000;0.0879;-0.8431;
223.2000;0.0895;-0.8497;
223.5000;0.0944;-0.8409;
223.8000;0.0920;-0.8453;
224.1000;0.0944;-0.8475;
224.4000;0.0977;-0.8409;
224.7000;0.0838;-0.8696;
225.0000;0.0887;-0.8564;
225.3000;0.0912;-0.8608;
225.6000;0.0904;-0.8674;
225.9000;0.0912;-0.8718;
226.2000;0.0904;-0.8741;
226.5000;0.0790;-0.9006;
226.8000;0.0920;-0.8674;
227.1000;0.0879;-0.8829;
227.4000;0.0838;-0.8785;
227.7000;0.0912;-0.8674;
228.0000;0.0912;-0.8674;
228.3000;0.0904;-0.8674;
228.6000;0.0871;-0.8763;
228.9000;0.0887;-0.8630;
229.2000;0.0920;-0.8453;
229.5000;0.0895;-0.8409;
229.8000;0.0928;-0.8298;
230.1000;0.0904;-0.8320;
230.4000;0.0904;-0.8387;
230.7000;0.0912;-0.8342;
231.0000;0.0920;-0.8320;
231.3000;0.0904;-0.8342;
231.6000;0.0904;-0.8364;
231.9000;0.0977;-0.8165;
232.2000;0.0904;-0.8387;
232.5000;0.0879;-0.8387;
232.8000;0.0920;-0.8342;
233.1000;0.0904;-0.8364;
233.4000;0.0904;-0.8387;
233.7000;0.0904;-0.8431;
234.0000;0.0904;-0.8475;
234.3000;0.0952;-0.8320;
234.6000;0.0920;-0.8475;
234.9000;0.0904;-0.8475;
235.2000;0.1009;-0.8210;
235.5000;0.0895;-0.8431;
235.8000;0.0920;-0.8298;
236.1000;0.0936;-0.8276;
236.4000;0.0798;-0.8586;
236.7000;0.0904;-0.8431;
237.0000;0.0871;-0.8475;
237.3000;0.0895;-0.8431;
237.6000;0.0936;-0.8475;
237.9000;0.0904;-0.8541;
238.2000;0.0912;-0.8541;
238.5000;0.0928;-0.8564;
238.8000;0.0895;-0.8564;
239.1000;0.0895;-0.8652;
239.4000;0.0904;-0.8564;
239.7000;0.0904;-0.8497;
240.0000;0.0912;-0.8453;
240.3000;0.0920;-0.8431;
240.6000;0.0879;-0.8475;
240.9000;0.0912;-0.8409;
241.2000;0.0969;-0.8298;
241.5000;0.0822;-0.8586;
241.8000;0.0879;-0.8475;
242.1000;0.0920;-0.8541;
242.4000;0.0920;-0.8630;
242.7000;0.0887;-0.8785;
243.0000;0.0936;-0.8718;
243.3000;0.0920;-0.8851;
243.6000;0.0855;-0.9050;
243.9000;0.0936;-0.8785;
244.2000;0.0912;-0.8807;
244.5000;0.0912;-0.8807;
244.8000;0.0920;-0.8940;
245.1000;0.0912;-0.8873;
245.4000;0.0920;-0.8785;
245.7000;0.0912;-0.8718;
246.0000;0.0895;-0.8785;
246.3000;0.0944;-0.8652;
246.6000;0.0879;-0.8851;
246.9000;0.0961;-0.8630;
247.2000;0.0952;-0.8674;
247.5000;0.0920;-0.8785;
247.8000;0.0904;-0.8763;
248.1000;0.0895;-0.8763;
248.4000;0.0904;-0.8741;
248.7000;0.0912;-0.8741;
249.0000;0.0944;-0.8674;
249.3000;0.0928;-0.8741;
249.6000;0.0920;-0.8718;
249.9000;0.0920;-0.8763;
250.2000;0.0928;-0.8741;
250.5000;0.0944;-0.8674;
250.8000;0.0912;-0.8674;
251.1000;0.0936;-0.8564;
251.4000;0.0920;-0.8586;
251.7000;0.0920;-0.8586;
252.0000;0.0920;-0.8586;
252.3000;0.0904;-0.8608;
252.6000;0.0920;-0.8564;
252.9000;0.0904;-0.8564;
253.2000;0.0879;-0.8608;
253.5000;0.0920;-0.8519;
253.8000;0.0838;-0.8829;
254.1000;0.0920;-0.8630;
254.4000;0.0920;-0.8608;
254.7000;0.0920;-0.8674;
255.0000;0.0936;-0.8630;
255.3000;0.0879;-0.8696;
255.6000;0.0920;-0.8630;
255.9000;0.0904;-0.8652;
256.2000;0.0887;-0.8608;
256.5000;0.0928;-0.8497;
256.8000;0.0879;-0.8630;
257.1000;0.0912;-0.8586;
257.4000;0.0895;-0.8674;
257.7000;0.0920;-0.8696;
258.0000;0.0879;-0.8851;
258.3000;0.0822;-0.9028;
258.6000;0.0895;-0.8807;
258.9000;0.0879;-0.8741;
259.2000;0.0904;-0.8718;
259.5000;0.0920;-0.8718;
259.8000;0.0912;-0.8696;
260.1000;0.0912;-0.8630;
260.4000;0.1009;-0.8364;
260.7000;0.0952;-0.8387;
261.0000;0.0928;-0.8431;
261.3000;0.0895;-0.8497;
261.6000;0.0887;-0.8541;
261.9000;0.0912;-0.8564;
262.2000;0.0904;-0.8630;
262.5000;0.0928;-0.8630;
262.8000;0.0904;-0.8785;
263.1000;0.0928;-0.8718;
263.4000;0.0936;-0.8674;
263.7000;0.0912;-0.8608;
264.0000;0.0936;-0.8519;
264.3000;0.0928;-0.8541;
264.6000;0.0895;-0.8608;
264.9000;0.0920;-0.8608;
265.2000;0.0952;-0.8431;
265.5000;0.0936;-0.8497;
265.8000;0.0928;-0.8387;
266.1000;0.0847;-0.8652;
266.4000;0.0895;-0.8608;
266.7000;0.0895;-0.8586;
267.0000;0.0952;-0.8431;
267.3000;0.0904;-0.8497;
267.6000;0.0920;-0.8541;
267.9000;0.0895;-0.8564;
268.2000;0.0904;-0.8497;
268.5000;0.0895;-0.8519;
268.8000;0.0879;-0.8586;
269.1000;0.0920;-0.8541;
269.4000;0.1026;-0.8232;
269.7000;0.0912;-0.8387;
270.0000;0.0961;-0.8232;
270.3000;0.0920;-0.8254;
270.6000;0.0912;-0.8342;
270.9000;0.0904;-0.8453;
271.2000;0.0879;-0.8453;
271.5000;0.0863;-0.8519;
271.8000;0.0904;-0.8453;
272.1000;0.0887;-0.8497;
272.4000;0.0904;-0.8475;
272.7000;0.0912;-0.8453;
273.0000;0.0928;-0.8431;
273.3000;0.0904;-0.8431;
273.6000;0.1066;-0.8055;
273.9000;0.0855;-0.8475;
274.2000;0.0936;-0.8298;
274.5000;0.0936;-0.8254;
274.8000;0.0920;-0.8342;
275.1000;0.0920;-0.8298;
275.4000;0.0879;-0.8364;
275.7000;0.0895;-0.8431;
276.0000;0.0904;-0.8364;
276.3000;0.0895;-0.8320;
276.6000;0.0895;-0.8364;
276.9000;0.0879;-0.8431;
277.2000;0.0895;-0.8387;
277.5000;0.0904;-0.8298;
277.8000;0.0895;-0.8254;
278.1000;0.0920;-0.8276;
278.4000;0.0912;-0.8232;
278.7000;0.0920;-0.8210;
279.0000;0.0855;-0.8387;
279.3000;0.0855;-0.8409;
279.6000;0.0920;-0.8254;
279.9000;0.0920;-0.8254;
280.2000;0.0871;-0.8387;
280.5000;0.0887;-0.8409;
280.8000;0.0912;-0.8387;
281.1000;0.0904;-0.8497;
281.4000;0.0904;-0.8497;
281.7000;0.0912;-0.8431;
282.0000;0.0920;-0.8409;
282.3000;0.0928;-0.8342;
282.6000;0.0822;-0.8519;
282.9000;0.0904;-0.8364;
283.2000;0.0920;-0.8409;
283.5000;0.0887;-0.8519;
283.8000;0.0928;-0.8475;
284.1000;0.0904;-0.8608;
284.4000;0.0863;-0.8718;
284.7000;0.0904;-0.8630;
285.0000;0.0912;-0.8586;
285.3000;0.0895;-0.8630;
285.6000;0.0895;-0.8608;
285.9000;0.0887;-0.8564;
286.2000;0.0879;-0.8519;
286.5000;0.0887;-0.8608;
286.8000;0.0977;-0.8342;
287.1000;0.0904;-0.8475;
287.4000;0.0904;-0.8519;
287.7000;0.0969;-0.8320;
288.0000;0.0904;-0.8519;
288.3000;0.0895;-0.8630;
288.6000;0.0912;-0.8674;
288.9000;0.0904;-0.8696;
289.2000;0.1058;-0.8254;
289.5000;0.0928;-0.8586;
289.8000;0.0912;-0.8564;
290.1000;0.0895;-0.8630;
290.4000;0.0879;-0.8674;
290.7000;0.0936;-0.8475;
291.0000;0.0912;-0.8453;
291.3000;0.0895;-0.8564;
291.6000;0.0887;-0.8564;
291.9000;0.0912;-0.8564;
292.2000;0.0912;-0.8586;
292.5000;0.0920;-0.8564;
292.8000;0.0904;-0.8630;
293.1000;0.0920;-0.8608;
293.4000;0.0904;-0.8674;
293.7000;0.0887;-0.8718;
294.0000;0.0895;-0.8674;
294.3000;0.0912;-0.8674;
294.6000;0.0928;-0.8696;
294.9000;0.1001;-0.8541;
295.2000;0.0895;-0.8851;
295.5000;0.0928;-0.8829;
295.8000;0.0928;-0.8829;
296.1000;0.1066;-0.8497;
296.4000;0.0879;-0.9006;
296.7000;0.0871;-0.9050;
297.0000;0.0879;-0.9095;
297.3000;0.0895;-0.8984;
297.6000;0.0814;-0.9161;
297.9000;0.0904;-0.8829;
298.2000;0.0912;-0.8785;
298.5000;0.0928;-0.8763;
298.8000;0.0855;-0.8918;
299.1000;0.0879;-0.8873;
299.4000;0.0904;-0.8829;
299.7000;0.0895;-0.8741;
300.0000;0.0920;-0.8652;
300.3000;0.0904;-0.8630;
300.6000;0.0920;-0.8630;
300.9000;0.0904;-0.8674;
301.2000;0.0912;-0.8630;
301.5000;0.0895;-0.8652;
301.8000;0.0895;-0.8674;
302.1000;0.0920;-0.8652;
302.4000;0.0912;-0.8652;
302.7000;0.0879;-0.8630;
303.0000;0.0887;-0.8564;
303.3000;0.0920;-0.8497;
303.6000;0.0912;-0.8541;
303.9000;0.0904;-0.8564;
304.2000;0.0895;-0.8608;
304.5000;0.0912;-0.8586;
304.8000;0.0944;-0.8519;
305.1000;0.0912;-0.8652;
305.4000;0.0928;-0.8564;
305.7000;0.0912;-0.8696;
306.0000;0.0920;-0.8696;
306.3000;0.0904;-0.8741;
306.6000;0.1009;-0.8497;
306.9000;0.0887;-0.8807;
307.2000;0.0912;-0.8741;
307.5000;0.0871;-0.8807;
307.8000;0.0887;-0.8718;
308.1000;0.0912;-0.8652;
308.4000;0.0895;-0.8608;
308.7000;0.0928;-0.8586;
309.0000;0.0928;-0.8630;
309.3000;0.0904;-0.8674;
309.6000;0.0985;-0.8564;
309.9000;0.0912;-0.8741;
310.2000;0.0928;-0.8630;
310.5000;0.0944;-0.8586;
310.8000;0.0895;-0.8564;
311.1000;0.0928;-0.8519;
311.4000;0.0920;-0.8497;
311.7000;0.0952;-0.8497;
312.0000;0.0863;-0.8785;
312.3000;0.0887;-0.8652;
312.6000;0.0847;-0.8674;
312.9000;0.0904;-0.8586;
313.2000;0.0969;-0.8475;
313.5000;0.0952;-0.8497;
313.8000;0.0895;-0.8586;
314.1000;0.0912;-0.8564;
314.4000;0.0871;-0.8630;
314.7000;0.0855;-0.8652;
315.0000;0.0936;-0.8387;
315.3000;0.0814;-0.8608;
315.6000;0.0895;-0.8364;
315.9000;0.0961;-0.8276;
316.2000;0.0936;-0.8364;
316.5000;0.0887;-0.8497;
316.8000;0.0887;-0.8497;
317.1000;0.0912;-0.8431;
317.4000;0.0871;-0.8541;
317.7000;0.0912;-0.8453;
318.0000;0.0895;-0.8453;
318.3000;0.0847;-0.8497;
318.6000;0.0912;-0.8431;
318.9000;0.0838;-0.8586;
319.2000;0.0912;-0.8342;
319.5000;0.1018;-0.8099;
319.8000;0.0904;-0.8475;
320.1000;0.0871;-0.8475;
320.4000;0.0847;-0.8630;
320.7000;0.0904;-0.8519;
321.0000;0.0879;-0.8652;
321.3000;0.0895;-0.8674;
321.6000;0.0863;-0.8741;
321.9000;0.0887;-0.8652;
322.2000;0.0895;-0.8785;
322.5000;0.0879;-0.8807;
322.8000;0.0879;-0.8741;
323.1000;0.0895;-0.8696;
323.4000;0.0912;-0.8652;
323.7000;0.0920;-0.8652;
324.0000;0.0912;-0.8718;
324.3000;0.0912;-0.8652;
324.6000;0.0904;-0.8652;
324.9000;0.0920;-0.8497;
325.2000;0.0895;-0.8475;
325.5000;0.0895;-0.8475;
325.8000;0.0920;-0.8409;
326.1000;0.0920;-0.8497;
326.4000;0.0887;-0.8564;
326.7000;0.0879;-0.8586;
327.0000;0.0895;-0.8497;
327.3000;0.0887;-0.8453;
327.6000;0.0920;-0.8364;
327.9000;0.0920;-0.8409;
328.2000;0.0895;-0.8519;
328.5000;0.0920;-0.8541;
328.8000;0.0912;-0.8564;
329.1000;0.0895;-0.8564;
329.4000;0.0871;-0.8652;
329.7000;0.0895;-0.8586;
330.0000;0.0904;-0.8497;
330.3000;0.0887;-0.8608;
330.6000;0.0887;-0.8586;
330.9000;0.0895;-0.8497;
331.2000;0.0928;-0.8387;
331.5000;0.0912;-0.8453;
331.8000;0.0895;-0.8564;
332.1000;0.0904;-0.8541;
332.4000;0.0928;-0.8541;
332.7000;0.0936;-0.8608;
333.0000;0.0871;-0.8763;
333.3000;0.0912;-0.8674;
333.6000;0.0863;-0.8763;
333.9000;0.0920;-0.8608;
334.2000;0.0838;-0.8807;
334.5000;0.0928;-0.8586;
334.8000;0.0912;-0.8586;
335.1000;0.0904;-0.8519;
335.4000;0.0912;-0.8364;
335.7000;0.0904;-0.8320;
336.0000;0.0806;-0.8586;
336.3000;0.0920;-0.8232;
336.6000;0.0904;-0.8298;
336.9000;0.0912;-0.8364;
337.2000;0.0904;-0.8431;
337.5000;0.0871;-0.8497;
337.8000;0.0912;-0.8453;
338.1000;0.0895;-0.8453;
338.4000;0.0936;-0.8342;
338.7000;0.0879;-0.8497;
339.0000;0.0920;-0.8519;
339.3000;0.0887;-0.8564;
339.6000;0.0904;-0.8475;
339.9000;0.0863;-0.8564;
340.2000;0.0904;-0.8541;
340.5000;0.0887;-0.8652;
340.8000;0.0920;-0.8608;
341.1000;0.0936;-0.8564;
341.4000;0.0847;-0.8718;
341.7000;0.0920;-0.8630;
342.0000;0.0904;-0.8652;
342.3000;0.0928;-0.8453;
342.6000;0.0912;-0.8431;
342.9000;0.0895;-0.8364;
343.2000;0.0920;-0.8342;
343.5000;0.0920;-0.8387;
343.8000;0.0887;-0.8431;
344.1000;0.0887;-0.8453;
344.4000;0.0895;-0.8453;
344.7000;0.0904;-0.8431;
345.0000;0.0871;-0.8519;
345.3000;0.0904;-0.8431;
345.6000;0.0928;-0.8320;
345.9000;0.0887;-0.8431;
346.2000;0.0887;-0.8519;
346.5000;0.0936;-0.8431;
346.8000;0.0871;-0.8586;
347.1000;0.0912;-0.8519;
347.4000;0.0912;-0.8541;
347.7000;0.0912;-0.8519;
348.0000;0.0871;-0.8519;
348.3000;0.0912;-0.8453;
348.6000;0.0904;-0.8497;
348.9000;0.0912;-0.8475;
349.2000;0.0904;-0.8497;
349.5000;0.0920;-0.8497;
349.8000;0.0904;-0.8564;
350.1000;0.0920;-0.8453;
350.4000;0.0912;-0.8453;
350.7000;0.0863;-0.8564;
351.0000;0.0895;-0.8541;
351.3000;0.0855;-0.8696;
351.6000;0.0904;-0.8541;
351.9000;0.0944;-0.8387;
352.2000;0.0895;-0.8431;
352.5000;0.0871;-0.8431;
352.8000;0.0855;-0.8431;
353.1000;0.0895;-0.8387;
353.4000;0.0895;-0.8497;
353.7000;0.0895;-0.8564;
354.0000;0.0912;-0.8497;
354.3000;0.0838;-0.8718;
354.6000;0.0928;-0.8564;
354.9000;0.0895;-0.8630;
355.2000;0.0887;-0.8608;
355.5000;0.0920;-0.8564;
355.8000;0.0961;-0.8431;
356.1000;0.0936;-0.8519;
356.4000;0.0920;-0.8497;
356.7000;0.0928;-0.8453;
357.0000;0.0855;-0.8696;
357.3000;0.0928;-0.8608;
357.6000;0.0904;-0.8630;
357.9000;0.0904;-0.8718;
358.2000;0.0936;-0.8718;
358.5000;0.0879;-0.8829;
358.8000;0.1042;-0.8475;
359.1000;0.0920;-0.8763;
359.4000;0.0912;-0.8829;
359.7000;0.1018;-0.8586;
360.0000;0.0920;-0.8785;
360.3000;0.0936;-0.8718;
360.6000;0.0985;-0.8630;
360.9000;0.0904;-0.8807;
361.2000;0.0887;-0.8851;
361.5000;0.0961;-0.8630;
361.8000;0.0855;-0.8763;
362.1000;0.0912;-0.8696;
362.4000;0.0895;-0.8674;
362.7000;0.0879;-0.8674;
363.0000;0.0895;-0.8630;
363.3000;0.0928;-0.8519;
363.6000;0.0928;-0.8586;
363.9000;0.0904;-0.8652;
364.2000;0.0895;-0.8586;
364.5000;0.0928;-0.8519;
364.8000;0.0904;-0.8608;
365.1000;0.0895;-0.8586;
365.4000;0.0895;-0.8519;
365.7000;0.0920;-0.8409;
366.0000;0.0928;-0.8431;
366.3000;0.0895;-0.8497;
366.6000;0.0904;-0.8453;
366.9000;0.0912;-0.8519;
367.2000;0.0912;-0.8475;
367.5000;0.0879;-0.8608;
367.8000;0.0920;-0.8608;
368.1000;0.0904;-0.8652;
368.4000;0.0887;-0.8608;
368.7000;0.0920;-0.8564;
369.0000;0.0895;-0.8586;
369.3000;0.0887;-0.8564;
369.6000;0.0904;-0.8497;
369.9000;0.0904;-0.8519;
370.2000;0.0904;-0.8541;
370.5000;0.0895;-0.8541;
370.8000;0.0895;-0.8497;
371.1000;0.0887;-0.8497;
371.4000;0.0895;-0.8541;
371.7000;0.0879;-0.8519;
372.0000;0.0855;-0.8519;
372.3000;0.0904;-0.8431;
372.6000;0.0904;-0.8541;
372.9000;0.0887;-0.8608;
373.2000;0.0904;-0.8652;
373.5000;0.0936;-0.8586;
373.8000;0.0920;-0.8630;
374.1000;0.0887;-0.8696;
374.4000;0.0912;-0.8564;
374.7000;0.0912;-0.8630;
375.0000;0.0904;-0.8696;
375.3000;0.1001;-0.8475;
375.6000;0.0920;-0.8541;
375.9000;0.0904;-0.8541;
376.2000;0.1001;-0.8276;
376.5000;0.0912;-0.8519;
376.8000;0.0904;-0.8497;
377.1000;0.0912;-0.8541;
377.4000;0.0895;-0.8564;
377.7000;0.0879;-0.8674;
378.0000;0.0887;-0.8608;
378.3000;0.0895;-0.8497;
378.6000;0.0887;-0.8674;
378.9000;0.0920;-0.8652;
379.2000;0.0904;-0.8696;
379.5000;0.0920;-0.8630;
379.8000;0.0920;-0.8586;
380.1000;0.0912;-0.8586;
380.4000;0.0904;-0.8608;
380.7000;0.0887;-0.8608;
381.0000;0.0904;-0.8541;
381.3000;0.0895;-0.8497;
381.6000;0.0912;-0.8453;
381.9000;0.0863;-0.8586;
382.2000;0.0847;-0.8564;
382.5000;0.0961;-0.8276;
382.8000;0.0936;-0.8342;
383.1000;0.0904;-0.8431;
383.4000;0.0928;-0.8387;
383.7000;0.0993;-0.8254;
384.0000;0.0895;-0.8497;
384.3000;0.0912;-0.8497;
384.6000;0.1058;-0.8210;
384.9000;0.0936;-0.8475;
385.2000;0.0928;-0.8409;
385.5000;0.0912;-0.8497;
385.8000;0.0879;-0.8608;
386.1000;0.0904;-0.8519;
386.4000;0.0895;-0.8564;
386.7000;0.0904;-0.8541;
387.0000;0.0928;-0.8497;
387.3000;0.0912;-0.8453;
387.6000;0.0904;-0.8519;
387.9000;0.0928;-0.8497;
388.2000;0.0912;-0.8453;
388.5000;0.0912;-0.8519;
388.8000;0.0830;-0.8652;
389.1000;0.0904;-0.8431;
389.4000;0.0920;-0.8453;
389.7000;0.0928;-0.8453;
390.0000;0.0904;-0.8541;
390.3000;0.0920;-0.8497;
390.6000;0.0920;-0.8431;
390.9000;0.0887;-0.8541;
391.2000;0.0895;-0.8453;
391.5000;0.0895;-0.8475;
391.8000;0.0895;-0.8541;
392.1000;0.0895;-0.8475;
392.4000;0.0912;-0.8541;
392.7000;0.0920;-0.8519;
393.0000;0.0928;-0.8541;
393.3000;0.0904;-0.8541;
393.6000;0.0904;-0.8541;
393.9000;0.0855;-0.8741;
394.2000;0.0895;-0.8608;
394.5000;0.0912;-0.8586;
394.8000;0.0912;-0.8608;
395.1000;0.0904;-0.8564;
395.4000;0.0912;-0.8519;
395.7000;0.0879;-0.8652;
396.0000;0.0863;-0.8652;
396.3000;0.0887;-0.8519;
396.6000;0.1034;-0.8121;
396.9000;0.0904;-0.8431;
397.2000;0.0895;-0.8519;
397.5000;0.0920;-0.8475;
397.8000;0.0912;-0.8453;
398.1000;0.0904;-0.8564;
398.4000;0.0904;-0.8564;
398.7000;0.0904;-0.8652;
399.0000;0.0928;-0.8586;
399.3000;0.0969;-0.8431;
399.6000;0.0887;-0.8696;
399.9000;0.0895;-0.8652;
400.2000;0.1018;-0.8276;
400.5000;0.0912;-0.8564;
400.8000;0.1026;-0.8342;
401.1000;0.0912;-0.8652;
401.4000;0.0977;-0.8475;
401.7000;0.0904;-0.8497;
402.0000;0.0895;-0.8519;
402.3000;0.0912;-0.8453;
402.6000;0.0928;-0.8276;
402.9000;0.0920;-0.8298;
403.2000;0.0928;-0.8276;
403.5000;0.0920;-0.8364;
403.8000;0.0920;-0.8276;
404.1000;0.0920;-0.8298;
404.4000;0.0904;-0.8342;
404.7000;0.0928;-0.8232;
405.0000;0.0887;-0.8364;
405.3000;0.0895;-0.8364;
405.6000;0.1058;-0.8055;
405.9000;0.0887;-0.8387;
406.2000;0.0904;-0.8431;
406.5000;0.0887;-0.8453;
406.8000;0.0822;-0.8696;
407.1000;0.0879;-0.8475;
407.4000;0.0879;-0.8497;
407.7000;0.0895;-0.8364;
408.0000;0.0887;-0.8364;
408.3000;0.0969;-0.8187;
408.6000;0.0895;-0.8364;
408.9000;0.0912;-0.8276;
409.2000;0.0912;-0.8298;
409.5000;0.0904;-0.8387;
409.8000;0.0912;-0.8364;
410.1000;0.0895;-0.8409;
410.4000;0.0814;-0.8564;
410.7000;0.0912;-0.8387;
411.0000;0.0928;-0.8320;
411.3000;0.0879;-0.8431;
411.6000;0.0920;-0.8364;
411.9000;0.0895;-0.8431;
412.2000;0.0879;-0.8497;
412.5000;0.0887;-0.8475;
412.8000;0.0904;-0.8475;
413.1000;0.0912;-0.8431;
413.4000;0.0904;-0.8409;
413.7000;0.0912;-0.8387;
414.0000;0.0912;-0.8364;
414.3000;0.0879;-0.8541;
414.6000;0.0912;-0.8342;
414.9000;0.0871;-0.8276;
415.2000;0.0871;-0.8320;
415.5000;0.0887;-0.8298;
415.8000;0.0822;-0.8519;
416.1000;0.0887;-0.8387;
416.4000;0.0904;-0.8320;
416.7000;0.0944;-0.8276;
417.0000;0.0895;-0.8409;
417.3000;0.0895;-0.8409;
417.6000;0.0912;-0.8342;
417.9000;0.0895;-0.8497;
418.2000;0.0904;-0.8519;
418.5000;0.0895;-0.8475;
418.8000;0.0887;-0.8519;
419.1000;0.0912;-0.8497;
419.4000;0.0904;-0.8431;
419.7000;0.0895;-0.8453;
420.0000;0.0904;-0.8453;
420.3000;0.0879;-0.8519;
420.6000;0.0871;-0.8564;
420.9000;0.0887;-0.8541;
421.2000;0.0912;-0.8475;
421.5000;0.0936;-0.8453;
421.8000;0.0920;-0.8497;
422.1000;0.0912;-0.8475;
422.4000;0.0887;-0.8497;
422.7000;0.0961;-0.8254;
423.0000;0.0895;-0.8364;
423.3000;0.0904;-0.8320;
423.6000;0.0895;-0.8387;
423.9000;0.0912;-0.8364;
424.2000;0.0928;-0.8409;
424.5000;0.0952;-0.8409;
424.8000;0.0912;-0.8564;
425.1000;0.0871;-0.8718;
425.4000;0.0912;-0.8630;
425.7000;0.0912;-0.8741;
426.0000;0.0912;-0.8763;
426.3000;0.0895;-0.8741;
426.6000;0.0895;-0.8785;
426.9000;0.0871;-0.8829;
427.2000;0.0887;-0.8763;
427.5000;0.0887;-0.8741;
427.8000;0.0887;-0.8785;
428.1000;0.0961;-0.8586;
428.4000;0.0920;-0.8652;
428.7000;0.0871;-0.8718;
429.0000;0.0944;-0.8586;
429.3000;0.0920;-0.8586;
429.6000;0.0855;-0.8763;
429.9000;0.0920;-0.8586;
430.2000;0.0806;-0.8763;
430.5000;0.0904;-0.8453;
430.8000;0.0887;-0.8497;
431.1000;0.0895;-0.8475;
431.4000;0.0928;-0.8387;
431.7000;0.0928;-0.8409;
432.0000;0.0895;-0.8564;
432.3000;0.0920;-0.8409;
432.6000;0.0887;-0.8409;
432.9000;0.0912;-0.8298;
433.2000;0.0912;-0.8210;
433.5000;0.0879;-0.8232;
433.8000;0.0847;-0.8497;
434.1000;0.0928;-0.8453;
434.4000;0.0928;-0.8387;
434.7000;0.0912;-0.8409;
435.0000;0.0895;-0.8431;
435.3000;0.0838;-0.8652;
435.6000;0.0912;-0.8409;
435.9000;0.0895;-0.8453;
436.2000;0.0887;-0.8431;
436.5000;0.0887;-0.8387;
436.8000;0.0887;-0.8364;
437.1000;0.0895;-0.8453;
437.4000;0.0863;-0.8630;
437.7000;0.0895;-0.8630;
438.0000;0.0895;-0.8630;
438.3000;0.0912;-0.8630;
438.6000;0.0895;-0.8696;
438.9000;0.0920;-0.8586;
439.2000;0.0920;-0.8475;
439.5000;0.0920;-0.8475;
439.8000;0.0912;-0.8497;
440.1000;0.0871;-0.8630;
440.4000;0.0887;-0.8586;
440.7000;0.0920;-0.8475;
441.0000;0.0887;-0.8453;
441.3000;0.0904;-0.8519;
441.6000;0.0887;-0.8475;
441.9000;0.0871;-0.8652;
442.2000;0.0887;-0.8608;
442.5000;0.0895;-0.8586;
442.8000;0.0895;-0.8608;
443.1000;0.0887;-0.8652;
443.4000;0.0904;-0.8564;
443.7000;0.0904;-0.8519;
444.0000;0.0920;-0.8497;
444.3000;0.0887;-0.8586;
444.6000;0.0904;-0.8519;
444.9000;0.0904;-0.8630;
445.2000;0.0912;-0.8586;
445.5000;0.0806;-0.8851;
445.8000;0.0928;-0.8541;
446.1000;0.0904;-0.8497;
446.4000;0.0822;-0.8763;
446.7000;0.0912;-0.8475;
447.0000;0.0863;-0.8475;
447.3000;0.0912;-0.8453;
447.6000;0.0863;-0.8541;
447.9000;0.0912;-0.8364;
448.2000;0.0912;-0.8364;
448.5000;0.0904;-0.8431;
448.8000;0.0912;-0.8342;
449.1000;0.0887;-0.8409;
449.4000;0.0871;-0.8475;
449.7000;0.0912;-0.8320;
450.0000;0.0904;-0.8276;
450.3000;0.0904;-0.8276;
450.6000;0.0920;-0.8232;
450.9000;0.0887;-0.8298;
451.2000;0.0928;-0.8187;
451.5000;0.0904;-0.8320;
451.8000;0.0904;-0.8320;
452.1000;0.0961;-0.8232;
452.4000;0.0912;-0.8342;
452.7000;0.0871;-0.8431;
453.0000;0.0952;-0.8210;
453.3000;0.0895;-0.8298;
453.6000;0.0904;-0.8254;
453.9000;0.0928;-0.8210;
454.2000;0.0838;-0.8475;
454.5000;0.0944;-0.8254;
454.8000;0.0920;-0.8320;
455.1000;0.0920;-0.8364;
455.4000;0.0871;-0.8453;
455.7000;0.0928;-0.8342;
456.0000;0.0895;-0.8497;
456.3000;0.0928;-0.8364;
456.6000;0.0895;-0.8364;
456.9000;0.0855;-0.8453;
457.2000;0.0928;-0.8320;
457.5000;0.0871;-0.8431;
457.8000;0.0961;-0.8232;
458.1000;0.0887;-0.8387;
458.4000;0.0887;-0.8497;
458.7000;0.0895;-0.8541;
459.0000;0.0928;-0.8431;
459.3000;0.0904;-0.8564;
459.6000;0.0920;-0.8564;
459.9000;0.0904;-0.8608;
460.2000;0.0904;-0.8652;
460.5000;0.0871;-0.8763;
460.8000;0.0887;-0.8696;
461.1000;0.0912;-0.8586;
461.4000;0.0904;-0.8630;
461.7000;0.0773;-0.8873;
462.0000;0.0879;-0.8608;
462.3000;0.0912;-0.8453;
462.6000;0.0887;-0.8475;
462.9000;0.0920;-0.8387;
463.2000;0.0920;-0.8387;
463.5000;0.0904;-0.8497;
463.8000;0.0920;-0.8453;
464.1000;0.0912;-0.8409;
464.4000;0.0912;-0.8342;
464.7000;0.0879;-0.8409;
465.0000;0.0887;-0.8342;
465.3000;0.0912;-0.8276;
465.6000;0.0912;-0.8276;
465.9000;0.0944;-0.8232;
466.2000;0.0928;-0.8276;
466.5000;0.0895;-0.8387;
466.8000;0.0912;-0.8475;
467.1000;0.0822;-0.8785;
467.4000;0.0895;-0.8630;
467.7000;0.0920;-0.8541;
468.0000;0.0920;-0.8541;
468.3000;0.0920;-0.8564;
468.6000;0.1009;-0.8254;
468.9000;0.0928;-0.8497;
469.2000;0.0904;-0.8519;
469.5000;0.0936;-0.8409;
469.8000;0.0944;-0.8364;
470.1000;0.0920;-0.8519;
470.4000;0.0928;-0.8519;
470.7000;0.0895;-0.8630;
471.0000;0.0928;-0.8608;
471.3000;0.0944;-0.8519;
471.6000;0.0912;-0.8541;
471.9000;0.0895;-0.8608;
472.2000;0.0895;-0.8608;
472.5000;0.0871;-0.8586;
472.8000;0.0920;-0.8453;
473.1000;0.0895;-0.8519;
473.4000;0.0920;-0.8541;
473.7000;0.0920;-0.8541;
474.0000;0.0895;-0.8630;
474.3000;0.0895;-0.8652;
474.6000;0.0985;-0.8431;
474.9000;0.0928;-0.8630;
475.2000;0.0887;-0.8630;
475.5000;0.0993;-0.8320;
475.8000;0.0952;-0.8364;
476.1000;0.0871;-0.8674;
476.4000;0.0887;-0.8586;
476.7000;0.0904;-0.8541;
477.0000;0.0855;-0.8630;
477.3000;0.0879;-0.8475;
477.6000;0.0895;-0.8475;
477.9000;0.0887;-0.8586;
478.2000;0.0895;-0.8586;
478.5000;0.0879;-0.8630;
478.8000;0.0879;-0.8696;
479.1000;0.0879;-0.8586;
479.4000;0.0904;-0.8519;
479.7000;0.0920;-0.8475;
480.0000;0.0904;-0.8519;
480.3000;0.0928;-0.8475;
480.6000;0.0928;-0.8497;
480.9000;0.0928;-0.8497;
481.2000;0.0879;-0.8630;
481.5000;0.0904;-0.8541;
481.8000;0.0904;-0.8630;
482.1000;0.0879;-0.8718;
482.4000;0.0904;-0.8674;
482.7000;0.0952;-0.8541;
483.0000;0.0879;-0.8763;
483.3000;0.0912;-0.8652;
483.6000;0.0920;-0.8630;
483.9000;0.0920;-0.8586;
484.2000;0.0912;-0.8541;
484.5000;0.0920;-0.8475;
484.8000;0.0895;-0.8453;
485.1000;0.0920;-0.8320;
485.4000;0.0920;-0.8342;
485.7000;0.0928;-0.8453;
486.0000;0.0920;-0.8608;
486.3000;0.0904;-0.8586;
486.6000;0.0838;-0.8586;
486.9000;0.0944;-0.8364;
487.2000;0.0904;-0.8475;
487.5000;0.0928;-0.8431;
487.8000;0.0887;-0.8475;
488.1000;0.0904;-0.8519;
488.4000;0.0920;-0.8541;
488.7000;0.0895;-0.8630;
489.0000;0.0904;-0.8497;
489.3000;0.0904;-0.8497;
489.6000;0.0887;-0.8453;
489.9000;0.0879;-0.8564;
490.2000;0.0863;-0.8630;
490.5000;0.0928;-0.8409;
490.8000;0.0904;-0.8409;
491.1000;0.0904;-0.8453;
491.4000;0.0895;-0.8497;
491.7000;0.0936;-0.8364;
492.0000;0.1001;-0.8210;
492.3000;0.0977;-0.8232;
492.6000;0.0928;-0.8387;
492.9000;0.0904;-0.8497;
493.2000;0.0904;-0.8475;
493.5000;0.0993;-0.8320;
493.8000;0.0904;-0.8497;
494.1000;0.0912;-0.8475;
494.4000;0.0879;-0.8586;
494.7000;0.0879;-0.8541;
495.0000;0.0952;-0.8453;
495.3000;0.0912;-0.8497;
495.6000;0.0904;-0.8387;
495.9000;0.0912;-0.8387;
496.2000;0.0928;-0.8342;
496.5000;0.0912;-0.8364;
496.8000;0.0944;-0.8342;
497.1000;0.0904;-0.8387;
497.4000;0.0920;-0.8387;
497.7000;0.0895;-0.8453;
498.0000;0.0904;-0.8431;
498.3000;0.0904;-0.8364;
498.6000;0.0895;-0.8364;
498.9000;0.0904;-0.8409;
499.2000;0.0904;-0.8409;
499.5000;0.0912;-0.8475;
499.8000;0.0904;-0.8497;
500.1000;0.0928;-0.8431;
500.4000;0.0904;-0.8453;
500.7000;0.0838;-0.8630;
501.0000;0.0944;-0.8431;
501.3000;0.0879;-0.8608;
501.6000;0.0904;-0.8541;
501.9000;0.1050;-0.8143;
502.2000;0.0912;-0.8564;
502.5000;0.0904;-0.8608;
502.8000;0.0920;-0.8519;
503.1000;0.0904;-0.8541;
503.4000;0.0871;-0.8564;
503.7000;0.0936;-0.8475;
504.0000;0.0904;-0.8674;
504.3000;0.0830;-0.8718;
504.6000;0.0798;-0.8807;
504.9000;0.0904;-0.8497;
505.2000;0.0904;-0.8519;
505.5000;0.0920;-0.8431;
505.8000;0.0912;-0.8453;
506.1000;0.0920;-0.8453;
506.4000;0.0904;-0.8409;
506.7000;0.0912;-0.8387;
507.0000;0.0904;-0.8453;
507.3000;0.0912;-0.8564;
507.6000;0.0887;-0.8564;
507.9000;0.0912;-0.8586;
508.2000;0.0879;-0.8586;
508.5000;0.0904;-0.8453;
508.8000;0.0871;-0.8475;
509.1000;0.0912;-0.8431;
509.4000;0.0912;-0.8497;
509.7000;0.0928;-0.8497;
510.0000;0.0904;-0.8586;
510.3000;0.0920;-0.8497;
510.6000;0.0936;-0.8564;
510.9000;0.0895;-0.8718;
511.2000;0.0904;-0.8741;
511.5000;0.0895;-0.8718;
511.8000;0.0936;-0.8608;
512.1000;0.0904;-0.8630;
512.4000;0.0871;-0.8807;
512.7000;0.0895;-0.8741;
513.0000;0.0895;-0.8696;
513.3000;0.0928;-0.8608;
513.6000;0.0912;-0.8608;
513.9000;0.0814;-0.8896;
514.2000;0.0887;-0.8674;
514.5000;0.0904;-0.8519;
514.8000;0.0912;-0.8541;
515.1000;0.0904;-0.8586;
515.4000;0.0904;-0.8564;
515.7000;0.0920;-0.8564;
516.0000;0.0928;-0.8541;
516.3000;0.0920;-0.8564;
516.6000;0.0904;-0.8652;
516.9000;0.0912;-0.8652;
517.2000;0.0904;-0.8630;
517.5000;0.0879;-0.8696;
517.8000;0.1018;-0.8342;
518.1000;0.0920;-0.8541;
518.4000;0.0944;-0.8431;
518.7000;0.0879;-0.8586;
519.0000;0.0904;-0.8586;
519.3000;0.0895;-0.8652;
519.6000;0.0887;-0.8718;
519.9000;0.0904;-0.8674;
520.2000;0.0920;-0.8608;
520.5000;0.0904;-0.8652;
520.8000;0.0863;-0.8696;
521.1000;0.0920;-0.8608;
521.4000;0.0887;-0.8652;
521.7000;0.0944;-0.8519;
522.0000;0.0879;-0.8718;
522.3000;0.0912;-0.8696;
522.6000;0.0863;-0.8851;
522.9000;0.0936;-0.8674;
523.2000;0.0904;-0.8630;
523.5000;0.0895;-0.8608;
523.8000;0.0863;-0.8741;
524.1000;0.0765;-0.8984;
524.4000;0.0936;-0.8564;
524.7000;0.0993;-0.8387;
525.0000;0.0879;-0.8718;
525.3000;0.0969;-0.8541;
525.6000;0.0847;-0.8807;
525.9000;0.0855;-0.8807;
526.2000;0.0895;-0.8763;
526.5000;0.0887;-0.8807;
526.8000;0.0912;-0.8696;
527.1000;0.0912;-0.8652;
527.4000;0.0838;-0.8851;
527.7000;0.0912;-0.8674;
528.0000;0.0904;-0.8652;
528.3000;0.0887;-0.8586;
528.6000;0.0920;-0.8431;
528.9000;0.0895;-0.8431;
529.2000;0.0904;-0.8409;
529.5000;0.0895;-0.8431;
529.8000;0.0904;-0.8497;
530.1000;0.0895;-0.8608;
530.4000;0.0887;-0.8608;
530.7000;0.0928;-0.8519;
531.0000;0.0904;-0.8519;
531.3000;0.0912;-0.8475;
531.6000;0.1042;-0.8210;
531.9000;0.0912;-0.8497;
532.2000;0.0879;-0.8564;
532.5000;0.0944;-0.8453;
532.8000;0.0887;-0.8519;
533.1000;0.0895;-0.8475;
533.4000;0.0912;-0.8453;
533.7000;0.0847;-0.8652;
534.0000;0.0879;-0.8630;
534.3000;0.0887;-0.8696;
534.6000;0.0936;-0.8564;
534.9000;0.0912;-0.8475;
535.2000;0.0912;-0.8475;
535.5000;0.0912;-0.8519;
535.8000;0.0920;-0.8497;
536.1000;0.0904;-0.8586;
536.4000;0.0952;-0.8475;
536.7000;0.0920;-0.8453;
537.0000;0.0904;-0.8541;
537.3000;0.0912;-0.8497;
537.6000;0.0912;-0.8409;
537.9000;0.0928;-0.8342;
538.2000;0.0920;-0.8364;
538.5000;0.0904;-0.8342;
538.8000;0.0855;-0.8475;
539.1000;0.0985;-0.8232;
539.4000;0.0904;-0.8453;
539.7000;0.0904;-0.8409;
540.0000;0.0912;-0.8320;
540.3000;0.0920;-0.8409;
540.6000;0.0887;-0.8453;
540.9000;0.0936;-0.8364;
541.2000;0.0912;-0.8364;
541.5000;0.0928;-0.8342;
541.8000;0.0895;-0.8519;
542.1000;0.0904;-0.8652;
542.4000;0.0863;-0.8718;
542.7000;0.0904;-0.8564;
543.0000;0.0961;-0.8409;
543.3000;0.0912;-0.8519;
543.6000;0.0904;-0.8586;
543.9000;0.0806;-0.8829;
544.2000;0.0904;-0.8519;
544.5000;0.0920;-0.8475;
544.8000;0.0871;-0.8541;
545.1000;0.0855;-0.8630;
545.4000;0.0928;-0.8541;
545.7000;0.0904;-0.8519;
546.0000;0.0847;-0.8696;
546.3000;0.0904;-0.8586;
546.6000;0.0912;-0.8564;
546.9000;0.0936;-0.8497;
547.2000;0.0887;-0.8586;
547.5000;0.0928;-0.8564;
547.8000;0.0904;-0.8741;
548.1000;0.0879;-0.8785;
548.4000;0.0863;-0.8741;
548.7000;0.0887;-0.8696;
549.0000;0.0928;-0.8586;
549.3000;0.0895;-0.8674;
549.6000;0.0936;-0.8541;
549.9000;0.0912;-0.8630;
550.2000;0.0920;-0.8696;
550.5000;0.0863;-0.8785;
550.8000;0.0912;-0.8674;
551.1000;0.0912;-0.8564;
551.4000;0.0912;-0.8608;
551.7000;0.0920;-0.8541;
552.0000;0.0936;-0.8519;
552.3000;0.0879;-0.8541;
552.6000;0.0887;-0.8608;
552.9000;0.0912;-0.8674;
553.2000;0.0912;-0.8652;
553.5000;0.0887;-0.8674;
553.8000;0.0928;-0.8586;
554.1000;0.0895;-0.8608;
554.4000;0.0879;-0.8608;
554.7000;0.0904;-0.8564;
555.0000;0.0863;-0.8586;
555.3000;0.0928;-0.8519;
555.6000;0.0895;-0.8519;
555.9000;0.0912;-0.8564;
556.2000;0.0936;-0.8497;
556.5000;0.0904;-0.8541;
556.8000;0.0879;-0.8564;
557.1000;0.0887;-0.8475;
557.4000;0.0904;-0.8497;
557.7000;0.0912;-0.8475;
558.0000;0.0928;-0.8409;
558.3000;0.0920;-0.8475;
558.6000;0.0912;-0.8497;
558.9000;0.0961;-0.8431;
559.2000;0.0928;-0.8541;
559.5000;0.0912;-0.8608;
559.8000;0.0944;-0.8475;
560.1000;0.0969;-0.8475;
560.4000;0.0920;-0.8608;
560.7000;0.0928;-0.8608;
561.0000;0.1058;-0.8298;
561.3000;0.0912;-0.8608;
561.6000;0.0977;-0.8519;
561.9000;0.0912;-0.8630;
562.2000;0.0985;-0.8475;
562.5000;0.0936;-0.8608;
562.8000;0.0822;-0.8829;
563.1000;0.0944;-0.8608;
563.4000;0.0765;-0.9050;
563.7000;0.0904;-0.8696;
564.0000;0.0920;-0.8608;
564.3000;0.0920;-0.8586;
564.6000;0.0895;-0.8630;
564.9000;0.0912;-0.8718;
565.2000;0.0904;-0.8718;
565.5000;0.0847;-0.8829;
565.8000;0.0912;-0.8608;
566.1000;0.0912;-0.8564;
566.4000;0.0904;-0.8586;
566.7000;0.0822;-0.8741;
567.0000;0.0871;-0.8541;
567.3000;0.0895;-0.8497;
567.6000;0.0895;-0.8431;
567.9000;0.0936;-0.8254;
568.2000;0.0912;-0.8254;
568.5000;0.0920;-0.8232;
568.8000;0.0871;-0.8320;
569.1000;0.0806;-0.8497;
569.4000;0.0920;-0.8232;
569.7000;0.0904;-0.8276;
570.0000;0.0944;-0.8121;
570.3000;0.0920;-0.8276;
570.6000;0.1009;-0.8077;
570.9000;0.0912;-0.8276;
571.2000;0.1009;-0.8077;
571.5000;0.0920;-0.8342;
571.8000;0.0912;-0.8409;
572.1000;0.0895;-0.8453;
572.4000;0.0912;-0.8497;
572.7000;0.0904;-0.8564;
573.0000;0.0887;-0.8586;
573.3000;0.0887;-0.8586;
573.6000;0.0895;-0.8541;
573.9000;0.0944;-0.8387;
574.2000;0.0912;-0.8475;
574.5000;0.0912;-0.8519;
574.8000;0.0904;-0.8564;
575.1000;0.0936;-0.8586;
575.4000;0.0904;-0.8652;
575.7000;0.0904;-0.8541;
576.0000;0.0912;-0.8497;
576.3000;0.0904;-0.8541;
576.6000;0.0912;-0.8475;
576.9000;0.0904;-0.8541;
577.2000;0.0879;-0.8586;
577.5000;0.0912;-0.8608;
577.8000;0.0944;-0.8608;
578.1000;0.0912;-0.8630;
578.4000;0.0920;-0.8541;
578.7000;0.0920;-0.8608;
579.0000;0.0920;-0.8696;
579.3000;0.0944;-0.8608;
579.6000;0.0920;-0.8586;
579.9000;0.0936;-0.8541;
580.2000;0.0904;-0.8608;
580.5000;0.0904;-0.8541;
580.8000;0.0904;-0.8453;
581.1000;0.0879;-0.8497;
581.4000;0.0912;-0.8453;
581.7000;0.0928;-0.8387;
582.0000;0.0920;-0.8475;
582.3000;0.0912;-0.8453;
582.6000;0.0961;-0.8298;
582.9000;0.0912;-0.8409;
583.2000;0.0993;-0.8187;
583.5000;0.0912;-0.8320;
583.8000;0.0887;-0.8475;
584.1000;0.0887;-0.8519;
584.4000;0.0969;-0.8276;
584.7000;0.0920;-0.8364;
585.0000;0.0969;-0.8187;
585.3000;0.0879;-0.8431;
585.6000;0.0887;-0.8453;
585.9000;0.0936;-0.8409;
586.2000;0.0912;-0.8475;
586.5000;0.0879;-0.8519;
586.8000;0.0944;-0.8342;
587.1000;0.1009;-0.8254;
587.4000;0.0936;-0.8453;
587.7000;0.0887;-0.8541;
588.0000;0.0887;-0.8475;
588.3000;0.0969;-0.8342;
588.6000;0.0847;-0.8652;
588.9000;0.0904;-0.8564;
589.2000;0.0822;-0.8718;
589.5000;0.0912;-0.8564;
589.8000;0.0895;-0.8630;
590.1000;0.0912;-0.8586;
590.4000;0.0765;-0.8873;
590.7000;0.0887;-0.8453;
591.0000;0.0952;-0.8187;
591.3000;0.0895;-0.8342;
591.6000;0.0936;-0.8276;
591.9000;0.0912;-0.8320;
592.2000;0.0920;-0.8364;
592.5000;0.0912;-0.8320;
592.8000;0.1001;-0.8187;
593.1000;0.0904;-0.8431;
593.4000;0.0912;-0.8541;
593.7000;0.0887;-0.8674;
594.0000;0.0895;-0.8652;
594.3000;0.0912;-0.8652;
594.6000;0.0912;-0.8718;
594.9000;0.0904;-0.8741;
595.2000;0.0912;-0.8718;
595.5000;0.0912;-0.8674;
595.8000;0.0944;-0.8630;
596.1000;0.0936;-0.8586;
596.4000;0.0920;-0.8652;
596.7000;0.0887;-0.8718;
597.0000;0.0944;-0.8497;
597.3000;0.0904;-0.8541;
597.6000;0.0895;-0.8630;
597.9000;0.0904;-0.8718;
598.2000;0.0904;-0.8674;
598.5000;0.0952;-0.8519;
598.8000;0.0887;-0.8696;
599.1000;0.0912;-0.8652;
599.4000;0.0928;-0.8652;
599.7000;0.0895;-0.8696;
600.0000;0.0871;-0.8763;
600.3000;0.0895;-0.8741;
600.6000;0.0912;-0.8696;
600.9000;0.0895;-0.8696;
601.2000;0.0879;-0.8807;
601.5000;0.0920;-0.8741;
601.8000;0.0920;-0.8763;
602.1000;0.0879;-0.8896;
602.4000;0.0855;-0.9006;
602.7000;0.0928;-0.8918;
603.0000;0.0895;-0.9050;
603.3000;0.0871;-0.9205;
603.6000;0.0879;-0.9294;
603.9000;0.0879;-0.9338;
604.2000;0.0855;-0.9404;
604.5000;0.0879;-0.9360;
604.8000;0.0871;-0.9294;
605.1000;0.0847;-0.9360;
605.4000;0.0863;-0.9316;
605.7000;0.0863;-0.9316;
606.0000;0.0895;-0.9250;
606.3000;0.0855;-0.9294;
606.6000;0.0814;-0.9316;
606.9000;0.0830;-0.9294;
607.2000;0.0847;-0.9272;
607.5000;0.0847;-0.9360;
607.8000;0.0814;-0.9427;
608.1000;0.0773;-0.9493;
608.4000;0.0741;-0.9670;
608.7000;0.0912;-0.9272;
609.0000;0.0822;-0.9471;
609.3000;0.0822;-0.9449;
609.6000;0.0977;-0.9028;
609.9000;0.0847;-0.9316;
610.2000;0.0871;-0.9294;
610.5000;0.0822;-0.9515;
610.8000;0.0847;-0.9471;
611.1000;0.0838;-0.9449;
611.4000;0.0855;-0.9382;
611.7000;0.0871;-0.9493;
612.0000;0.0863;-0.9537;
612.3000;0.0838;-0.9670;
612.6000;0.0863;-0.9670;
612.9000;0.0806;-0.9736;
613.2000;0.0773;-0.9803;
613.5000;0.0822;-0.9714;
613.8000;0.0798;-0.9781;
614.1000;0.0814;-0.9781;
614.4000;0.0830;-0.9736;
614.7000;0.0838;-0.9781;
615.0000;0.0847;-0.9758;
615.3000;0.0830;-0.9736;
615.6000;0.0904;-0.9449;
615.9000;0.0814;-0.9626;
616.2000;0.0838;-0.9559;
616.5000;0.0822;-0.9559;
616.8000;0.0830;-0.9604;
617.1000;0.0830;-0.9604;
617.4000;0.0830;-0.9670;
617.7000;0.0822;-0.9692;
618.0000;0.0904;-0.9382;
618.3000;0.0749;-0.9758;
618.6000;0.0830;-0.9537;
618.9000;0.0806;-0.9626;
619.2000;0.0814;-0.9714;
619.5000;0.0700;-1.0068;
619.8000;0.0749;-0.9891;
620.1000;0.0798;-0.9758;
620.4000;0.0855;-0.9626;
620.7000;0.0847;-0.9670;
621.0000;0.0814;-0.9803;
621.3000;0.0798;-0.9847;
621.6000;0.0773;-0.9869;
621.9000;0.0806;-0.9825;
622.2000;0.0822;-0.9847;
622.5000;0.0781;-0.9958;
622.8000;0.0879;-0.9736;
623.1000;0.0790;-0.9980;
623.4000;0.0806;-0.9980;
623.7000;0.0822;-0.9847;
624.0000;0.0822;-0.9825;
624.3000;0.0773;-0.9891;
624.6000;0.0822;-0.9758;
624.9000;0.0806;-0.9758;
625.2000;0.0806;-0.9692;
625.5000;0.0798;-0.9714;
625.8000;0.0806;-0.9670;
626.1000;0.0781;-0.9692;
626.4000;0.0773;-0.9648;
626.7000;0.0790;-0.9581;
627.0000;0.0830;-0.9537;
627.3000;0.0814;-0.9581;
627.6000;0.0798;-0.9626;
627.9000;0.0830;-0.9692;
628.2000;0.0757;-0.9803;
628.5000;0.0863;-0.9626;
628.8000;0.0822;-0.9781;
629.1000;0.0822;-0.9847;
629.4000;0.0806;-0.9847;
629.7000;0.0806;-0.9803;
630.0000;0.0814;-0.9736;
630.3000;0.0814;-0.9736;
630.6000;0.0765;-0.9714;
630.9000;0.0790;-0.9648;
631.2000;0.0822;-0.9493;
631.5000;0.0781;-0.9626;
631.8000;0.0684;-0.9758;
632.1000;0.0806;-0.9471;
632.4000;0.0806;-0.9581;
632.7000;0.0790;-0.9692;
633.0000;0.0814;-0.9626;
633.3000;0.0822;-0.9537;
633.6000;0.0798;-0.9559;
633.9000;0.0814;-0.9537;
634.2000;0.0814;-0.9604;
634.5000;0.0757;-0.9736;
634.8000;0.0814;-0.9537;
635.1000;0.0733;-0.9692;
635.4000;0.0716;-0.9803;
635.7000;0.0798;-0.9493;
636.0000;0.0790;-0.9493;
636.3000;0.0790;-0.9471;
636.6000;0.0814;-0.9404;
636.9000;0.0749;-0.9581;
637.2000;0.0741;-0.9648;
637.5000;0.0773;-0.9604;
637.8000;0.0814;-0.9559;
638.1000;0.0798;-0.9648;
638.4000;0.0790;-0.9581;
638.7000;0.0814;-0.9604;
639.0000;0.0790;-0.9581;
639.3000;0.0790;-0.9559;
639.6000;0.0863;-0.9427;
639.9000;0.0773;-0.9581;
640.2000;0.0863;-0.9449;
640.5000;0.0806;-0.9648;
640.8000;0.0806;-0.9803;
641.1000;0.0822;-0.9781;
641.4000;0.0814;-0.9803;
641.7000;0.0798;-0.9825;
642.0000;0.0806;-0.9803;
642.3000;0.0749;-0.9936;
642.6000;0.0790;-0.9936;
642.9000;0.0781;-0.9958;
643.2000;0.0798;-0.9781;
643.5000;0.0700;-0.9936;
643.8000;0.0773;-0.9736;
644.1000;0.0790;-0.9714;
644.4000;0.0806;-0.9714;
644.7000;0.0781;-0.9781;
645.0000;0.0773;-0.9847;
645.3000;0.0790;-0.9781;
645.6000;0.0798;-0.9781;
645.9000;0.0798;-0.9803;
646.2000;0.0781;-0.9869;
646.5000;0.0871;-0.9581;
646.8000;0.0798;-0.9825;
647.1000;0.0790;-0.9891;
647.4000;0.0790;-0.9847;
647.7000;0.0773;-0.9913;
648.0000;0.0798;-0.9913;
648.3000;0.0765;-0.9869;
648.6000;0.0757;-0.9847;
648.9000;0.0798;-0.9781;
649.2000;0.0790;-0.9825;
649.5000;0.0790;-0.9869;
649.8000;0.0798;-0.9869;
650.1000;0.0798;-0.9825;
650.4000;0.0790;-0.9891;
650.7000;0.0814;-0.9825;
651.0000;0.0773;-0.9891;
651.3000;0.0765;-0.9958;
651.6000;0.0773;-1.0024;
651.9000;0.0790;-1.0002;
652.2000;0.0790;-0.9958;
652.5000;0.0765;-1.0002;
652.8000;0.0814;-0.9913;
653.1000;0.0806;-0.9913;
653.4000;0.0806;-0.9958;
653.7000;0.0781;-0.9891;
654.0000;0.0781;-0.9913;
654.3000;0.0822;-0.9781;
654.6000;0.0790;-0.9913;
654.9000;0.0822;-0.9758;
655.2000;0.0790;-0.9847;
655.5000;0.0781;-0.9847;
655.8000;0.0806;-0.9736;
656.1000;0.0773;-0.9847;
656.4000;0.0822;-0.9758;
656.7000;0.0814;-0.9803;
657.0000;0.0773;-0.9891;
657.3000;0.0806;-0.9847;
657.6000;0.0741;-0.9891;
657.9000;0.0667;-1.0090;
658.2000;0.0773;-0.9913;
658.5000;0.0855;-0.9781;
658.8000;0.0781;-0.9958;
659.1000;0.0757;-1.0046;
659.4000;0.0790;-0.9958;
659.7000;0.0790;-0.9958;
660.0000;0.0822;-0.9913;
660.3000;0.0765;-1.0046;
660.6000;0.0806;-0.9980;
660.9000;0.0749;-1.0046;
661.2000;0.0863;-0.9758;
661.5000;0.0790;-0.9891;
661.8000;0.0798;-0.9847;
662.1000;0.0814;-0.9736;
662.4000;0.0790;-0.9847;
662.7000;0.0798;-0.9736;
663.0000;0.0879;-0.9493;
663.3000;0.0749;-0.9891;
663.6000;0.0781;-0.9781;
663.9000;0.0716;-0.9803;
664.2000;0.0798;-0.9559;
664.5000;0.0773;-0.9604;
664.8000;0.0871;-0.9382;
665.1000;0.0798;-0.9537;
665.4000;0.0781;-0.9515;
665.7000;0.0765;-0.9626;
666.0000;0.0765;-0.9714;
666.3000;0.0781;-0.9692;
666.6000;0.0830;-0.9537;
666.9000;0.0749;-0.9803;
667.2000;0.0790;-0.9758;
667.5000;0.0676;-0.9958;
667.8000;0.0757;-0.9736;
668.1000;0.0781;-0.9736;
668.4000;0.0749;-0.9825;
668.7000;0.0757;-0.9803;
669.0000;0.0781;-0.9648;
669.3000;0.0773;-0.9604;
669.6000;0.0822;-0.9537;
669.9000;0.0773;-0.9670;
670.2000;0.0790;-0.9692;
670.5000;0.0806;-0.9604;
670.8000;0.0765;-0.9604;
671.1000;0.0790;-0.9559;
671.4000;0.0790;-0.9515;
671.7000;0.0781;-0.9559;
672.0000;0.0773;-0.9626;
672.3000;0.0806;-0.9559;
672.6000;0.0781;-0.9626;
672.9000;0.0773;-0.9670;
673.2000;0.0781;-0.9670;
673.5000;0.0790;-0.9670;
673.8000;0.0765;-0.9648;
674.1000;0.0765;-0.9670;
674.4000;0.0806;-0.9626;
674.7000;0.0814;-0.9648;
675.0000;0.0814;-0.9670;
675.3000;0.0822;-0.9648;
675.6000;0.0798;-0.9736;
675.9000;0.0765;-0.9736;
676.2000;0.0773;-0.9692;
676.5000;0.0765;-0.9670;
676.8000;0.0798;-0.9626;
677.1000;0.0724;-0.9847;
677.4000;0.0765;-0.9781;
677.7000;0.0741;-0.9869;
678.0000;0.0798;-0.9736;
678.3000;0.0708;-1.0046;
678.6000;0.0765;-0.9847;
678.9000;0.0773;-0.9847;
679.2000;0.0871;-0.9581;
679.5000;0.0773;-0.9803;
679.8000;0.0773;-0.9825;
680.1000;0.0814;-0.9736;
680.4000;0.0928;-0.9427;
680.7000;0.0814;-0.9758;
681.0000;0.0790;-0.9781;
681.3000;0.0773;-0.9891;
681.6000;0.0798;-0.9847;
681.9000;0.0749;-1.0002;
682.2000;0.0806;-0.9869;
682.5000;0.0781;-0.9980;
682.8000;0.0781;-1.0024;
683.1000;0.0814;-0.9913;
683.4000;0.0781;-0.9913;
683.7000;0.0749;-0.9869;
684.0000;0.0708;-1.0024;
684.3000;0.0773;-0.9980;
684.6000;0.0773;-1.0002;
684.9000;0.0781;-0.9869;
685.2000;0.0765;-0.9803;
685.5000;0.0781;-0.9736;
685.8000;0.0781;-0.9758;
686.1000;0.0700;-0.9913;
686.4000;0.0781;-0.9670;
686.7000;0.0765;-0.9736;
687.0000;0.0749;-0.9758;
687.3000;0.0781;-0.9736;
687.6000;0.0757;-0.9891;
687.9000;0.0757;-0.9847;
688.2000;0.0790;-0.9781;
688.5000;0.0781;-0.9781;
688.8000;0.0757;-0.9825;
689.1000;0.0773;-0.9781;
689.4000;0.0773;-0.9736;
689.7000;0.0781;-0.9736;
690.0000;0.0781;-0.9692;
690.3000;0.0765;-0.9670;
690.6000;0.0790;-0.9581;
690.9000;0.0781;-0.9670;
691.2000;0.0773;-0.9648;
691.5000;0.0790;-0.9626;
691.8000;0.0773;-0.9714;
692.1000;0.0741;-0.9825;
692.4000;0.0781;-0.9803;
692.7000;0.0765;-0.9825;
693.0000;0.0765;-0.9781;
693.3000;0.0765;-0.9758;
693.6000;0.0781;-0.9781;
693.9000;0.0765;-0.9781;
694.2000;0.0757;-0.9736;
694.5000;0.0773;-0.9714;
694.8000;0.0765;-0.9714;
695.1000;0.0798;-0.9537;
695.4000;0.0765;-0.9559;
695.7000;0.0773;-0.9581;
696.0000;0.0757;-0.9648;
696.3000;0.0781;-0.9581;
696.6000;0.0716;-0.9736;
696.9000;0.0757;-0.9626;
697.2000;0.0790;-0.9515;
697.5000;0.0765;-0.9581;
697.8000;0.0757;-0.9515;
698.1000;0.0773;-0.9449;
698.4000;0.0765;-0.9493;
698.7000;0.0773;-0.9493;
699.0000;0.0806;-0.9427;
699.3000;0.0781;-0.9559;
699.6000;0.0781;-0.9559;
699.9000;0.0814;-0.9559;
700.2000;0.0798;-0.9626;
700.5000;0.0749;-0.9648;
700.8000;0.0781;-0.9670;
701.1000;0.0773;-0.9670;
701.4000;0.0773;-0.9692;
701.7000;0.0765;-0.9714;
702.0000;0.0773;-0.9604;
702.3000;0.0667;-0.9825;
702.6000;0.0749;-0.9648;
702.9000;0.0724;-0.9692;
703.2000;0.0781;-0.9515;
703.5000;0.0733;-0.9670;
703.8000;0.0643;-0.9891;
704.1000;0.0855;-0.9404;
704.4000;0.0822;-0.9537;
704.7000;0.0773;-0.9670;
705.0000;0.0773;-0.9581;
705.3000;0.0765;-0.9692;
705.6000;0.0765;-0.9648;
705.9000;0.0790;-0.9559;
706.2000;0.0773;-0.9626;
706.5000;0.0790;-0.9559;
706.8000;0.0757;-0.9692;
707.1000;0.0790;-0.9648;
707.4000;0.0659;-1.0024;
707.7000;0.0757;-0.9758;
708.0000;0.0757;-0.9803;
708.3000;0.0749;-0.9781;
708.6000;0.0790;-0.9692;
708.9000;0.0781;-0.9670;
709.2000;0.0692;-0.9825;
709.5000;0.0757;-0.9670;
709.8000;0.0773;-0.9604;
710.1000;0.0879;-0.9427;
710.4000;0.0781;-0.9515;
710.7000;0.0863;-0.9382;
711.0000;0.0806;-0.9471;
711.3000;0.0765;-0.9581;
711.6000;0.0798;-0.9559;
711.9000;0.0757;-0.9604;
712.2000;0.0790;-0.9537;
712.5000;0.0781;-0.9626;
712.8000;0.0757;-0.9604;
713.1000;0.0741;-0.9604;
713.4000;0.0773;-0.9559;
713.7000;0.0798;-0.9559;
714.0000;0.0749;-0.9626;
714.3000;0.0749;-0.9648;
714.6000;0.0790;-0.9559;
714.9000;0.0790;-0.9515;
715.2000;0.0790;-0.9404;
715.5000;0.0773;-0.9449;
715.8000;0.0773;-0.9471;
716.1000;0.0749;-0.9471;
716.4000;0.0749;-0.9382;
716.7000;0.0692;-0.9604;
717.0000;0.0765;-0.9559;
717.3000;0.0741;-0.9604;
717.6000;0.0765;-0.9604;
717.9000;0.0765;-0.9714;
718.2000;0.0749;-0.9781;
718.5000;0.0773;-0.9781;
718.8000;0.0781;-0.9758;
719.1000;0.0757;-0.9736;
719.4000;0.0765;-0.9604;
719.7000;0.0806;-0.9493;
720.0000;0.0781;-0.9493;
720.3000;0.0790;-0.9515;
720.6000;0.0790;-0.9515;
720.9000;0.0781;-0.9515;
721.2000;0.0773;-0.9537;
721.5000;0.0765;-0.9559;
721.8000;0.0773;-0.9692;
722.1000;0.0781;-0.9758;
722.4000;0.0781;-0.9758;
722.7000;0.0798;-0.9758;
723.0000;0.0790;-0.9714;
723.3000;0.0773;-0.9803;
723.6000;0.0781;-0.9736;
723.9000;0.0830;-0.9581;
724.2000;0.0773;-0.9626;
724.5000;0.0781;-0.9581;
724.8000;0.0814;-0.9626;
725.1000;0.0757;-0.9781;
725.4000;0.0757;-0.9825;
725.7000;0.0765;-0.9692;
726.0000;0.0733;-0.9670;
726.3000;0.0838;-0.9427;
726.6000;0.0765;-0.9626;
726.9000;0.0806;-0.9604;
727.2000;0.0757;-0.9604;
727.5000;0.0716;-0.9736;
727.8000;0.0700;-0.9803;
728.1000;0.0765;-0.9604;
728.4000;0.0749;-0.9648;
728.7000;0.0765;-0.9626;
729.0000;0.0765;-0.9581;
729.3000;0.0765;-0.9714;
729.6000;0.0912;-0.9382;
729.9000;0.0855;-0.9404;
730.2000;0.0765;-0.9493;
730.5000;0.0757;-0.9537;
730.8000;0.0790;-0.9537;
731.1000;0.0741;-0.9559;
731.4000;0.0757;-0.9537;
731.7000;0.0700;-0.9692;
732.0000;0.0765;-0.9604;
732.3000;0.0733;-0.9626;
732.6000;0.0765;-0.9581;
732.9000;0.0757;-0.9604;
733.2000;0.0798;-0.9581;
733.5000;0.0765;-0.9648;
733.8000;0.0765;-0.9670;
734.1000;0.0863;-0.9360;
734.4000;0.0749;-0.9581;
734.7000;0.0781;-0.9537;
735.0000;0.0757;-0.9626;
735.3000;0.0773;-0.9648;
735.6000;0.0798;-0.9648;
735.9000;0.0773;-0.9736;
736.2000;0.0749;-0.9781;
736.5000;0.0781;-0.9670;
736.8000;0.0887;-0.9382;
737.1000;0.0790;-0.9559;
737.4000;0.0741;-0.9648;
737.7000;0.0757;-0.9626;
738.0000;0.0749;-0.9515;
738.3000;0.0798;-0.9404;
738.6000;0.0822;-0.9316;
738.9000;0.0790;-0.9449;
739.2000;0.0781;-0.9427;
739.5000;0.0749;-0.9449;
739.8000;0.0708;-0.9581;
740.1000;0.0798;-0.9449;
740.4000;0.0814;-0.9537;
740.7000;0.0798;-0.9515;
741.0000;0.0757;-0.9559;
741.3000;0.0692;-0.9714;
741.6000;0.0773;-0.9449;
741.9000;0.0773;-0.9382;
742.2000;0.0814;-0.9227;
742.5000;0.0651;-0.9648;
742.8000;0.0757;-0.9360;
743.1000;0.0749;-0.9404;
743.4000;0.0749;-0.9449;
743.7000;0.0749;-0.9382;
744.0000;0.0773;-0.9404;
744.3000;0.0773;-0.9360;
744.6000;0.0757;-0.9404;
744.9000;0.0757;-0.9471;
745.2000;0.0781;-0.9515;
745.5000;0.0806;-0.9471;
745.8000;0.0757;-0.9559;
746.1000;0.0741;-0.9449;
746.4000;0.0765;-0.9316;
746.7000;0.0773;-0.9294;
747.0000;0.0781;-0.9338;
747.3000;0.0733;-0.9493;
747.6000;0.0708;-0.9537;
747.9000;0.0765;-0.9471;
748.2000;0.0765;-0.9449;
748.5000;0.0765;-0.9471;
748.8000;0.0749;-0.9559;
749.1000;0.0643;-0.9847;
749.4000;0.0708;-0.9648;
749.7000;0.0733;-0.9648;
750.0000;0.0765;-0.9559;
750.3000;0.0928;-0.9139;
750.6000;0.0798;-0.9404;
750.9000;0.0781;-0.9449;
751.2000;0.0757;-0.9471;
751.5000;0.0838;-0.9294;
751.8000;0.0790;-0.9537;
752.1000;0.0765;-0.9559;
752.4000;0.0798;-0.9537;
752.7000;0.0749;-0.9493;
753.0000;0.0806;-0.9449;
753.3000;0.0798;-0.9449;
753.6000;0.0773;-0.9604;
753.9000;0.0749;-0.9670;
754.2000;0.0716;-0.9714;
754.5000;0.0749;-0.9626;
754.8000;0.0741;-0.9626;
755.1000;0.0741;-0.9626;
755.4000;0.0765;-0.9559;
755.7000;0.0773;-0.9648;
756.0000;0.0822;-0.9581;
756.3000;0.0765;-0.9670;
756.6000;0.0692;-0.9869;
756.9000;0.0757;-0.9670;
757.2000;0.0773;-0.9515;
757.5000;0.0741;-0.9515;
757.8000;0.0741;-0.9493;
758.1000;0.0781;-0.9427;
758.4000;0.0773;-0.9515;
758.7000;0.0741;-0.9626;
759.0000;0.0765;-0.9581;
759.3000;0.0773;-0.9559;
759.6000;0.0757;-0.9537;
759.9000;0.0749;-0.9449;
760.2000;0.0798;-0.9360;
760.5000;0.0781;-0.9427;
760.8000;0.0773;-0.9382;
761.1000;0.0749;-0.9515;
761.4000;0.0757;-0.9581;
761.7000;0.0741;-0.9692;
762.0000;0.0765;-0.9648;
762.3000;0.0741;-0.9736;
762.6000;0.0733;-0.9758;
762.9000;0.0676;-0.9869;
763.2000;0.0749;-0.9736;
763.5000;0.0773;-0.9626;
763.8000;0.0611;-1.0090;
764.1000;0.0741;-0.9714;
764.4000;0.0765;-0.9692;
764.7000;0.0773;-0.9626;
765.0000;0.0773;-0.9493;
765.3000;0.0790;-0.9449;
765.6000;0.0757;-0.9537;
765.9000;0.0773;-0.9471;
766.2000;0.0798;-0.9382;
766.5000;0.0757;-0.9427;
766.8000;0.0749;-0.9515;
767.1000;0.0765;-0.9427;
767.4000;0.0757;-0.9537;
767.7000;0.0765;-0.9559;
768.0000;0.0765;-0.9581;
768.3000;0.0781;-0.9493;
768.6000;0.0773;-0.9515;
768.9000;0.0667;-0.9803;
769.2000;0.0781;-0.9581;
769.5000;0.0773;-0.9515;
769.8000;0.0765;-0.9471;
770.1000;0.0790;-0.9471;
770.4000;0.0798;-0.9449;
770.7000;0.0765;-0.9471;
771.0000;0.0765;-0.9493;
771.3000;0.0692;-0.9692;
771.6000;0.0765;-0.9581;
771.9000;0.0716;-0.9714;
772.2000;0.0806;-0.9626;
772.5000;0.0781;-0.9670;
772.8000;0.0765;-0.9670;
773.1000;0.0773;-0.9648;
773.4000;0.0765;-0.9692;
773.7000;0.0757;-0.9692;
774.0000;0.0920;-0.9294;
774.3000;0.0798;-0.9559;
774.6000;0.0773;-0.9670;
774.9000;0.0757;-0.9626;
775.2000;0.0749;-0.9626;
775.5000;0.0781;-0.9471;
775.8000;0.0757;-0.9537;
776.1000;0.0798;-0.9537;
776.4000;0.0741;-0.9670;
776.7000;0.0741;-0.9736;
777.0000;0.0806;-0.9626;
777.3000;0.0757;-0.9781;
777.6000;0.0773;-0.9736;
777.9000;0.0757;-0.9670;
778.2000;0.0798;-0.9692;
778.5000;0.0798;-0.9626;
778.8000;0.0757;-0.9736;
779.1000;0.0790;-0.9714;
779.4000;0.0781;-0.9714;
779.7000;0.0781;-0.9736;
780.0000;0.0749;-0.9758;
780.3000;0.0790;-0.9670;
780.6000;0.0765;-0.9670;
780.9000;0.0790;-0.9626;
781.2000;0.0773;-0.9692;
781.5000;0.0773;-0.9736;
781.8000;0.0757;-0.9847;
782.1000;0.0773;-0.9825;
782.4000;0.0773;-0.9891;
782.7000;0.0765;-0.9869;
783.0000;0.0781;-0.9758;
783.3000;0.0757;-0.9736;
783.6000;0.0749;-0.9714;
783.9000;0.0790;-0.9604;
784.2000;0.0765;-0.9626;
784.5000;0.0741;-0.9648;
784.8000;0.0765;-0.9648;
785.1000;0.0749;-0.9670;
785.4000;0.0765;-0.9581;
785.7000;0.0708;-0.9781;
786.0000;0.0765;-0.9692;
786.3000;0.0773;-0.9626;
786.6000;0.0773;-0.9670;
786.9000;0.0773;-0.9604;
787.2000;0.0798;-0.9648;
787.5000;0.0814;-0.9626;
787.8000;0.0765;-0.9758;
788.1000;0.0733;-0.9781;
788.4000;0.0708;-0.9847;
788.7000;0.0765;-0.9648;
789.0000;0.0806;-0.9581;
789.3000;0.0741;-0.9714;
789.6000;0.0773;-0.9626;
789.9000;0.0765;-0.9626;
790.2000;0.0757;-0.9559;
790.5000;0.0781;-0.9493;
790.8000;0.0749;-0.9515;
791.1000;0.0773;-0.9471;
791.4000;0.0765;-0.9471;
791.7000;0.0806;-0.9316;
792.0000;0.0741;-0.9449;
792.3000;0.0749;-0.9338;
792.6000;0.0773;-0.9382;
792.9000;0.0765;-0.9471;
793.2000;0.0765;-0.9471;
793.5000;0.0757;-0.9493;
793.8000;0.0798;-0.9449;
794.1000;0.0781;-0.9493;
794.4000;0.0830;-0.9404;
794.7000;0.0700;-0.9648;
795.0000;0.0708;-0.9604;
795.3000;0.0749;-0.9559;
795.6000;0.0765;-0.9537;
795.9000;0.0733;-0.9692;
796.2000;0.0781;-0.9537;
796.5000;0.0838;-0.9449;
796.8000;0.0781;-0.9626;
797.1000;0.1001;-0.9117;
797.4000;0.0700;-0.9736;
797.7000;0.0733;-0.9626;
798.0000;0.0773;-0.9471;
798.3000;0.0806;-0.9427;
798.6000;0.0741;-0.9493;
798.9000;0.0790;-0.9427;
799.2000;0.0765;-0.9471;
799.5000;0.0790;-0.9404;
799.8000;0.0749;-0.9404;
800.1000;0.0773;-0.9360;
800.4000;0.0757;-0.9382;
800.7000;0.0765;-0.9316;
801.0000;0.0757;-0.9338;
801.3000;0.0781;-0.9382;
801.6000;0.0781;-0.9427;
801.9000;0.0749;-0.9537;
802.2000;0.0806;-0.9427;
802.5000;0.0773;-0.9493;
802.8000;0.0757;-0.9537;
803.1000;0.0749;-0.9537;
803.4000;0.0790;-0.9449;
803.7000;0.0757;-0.9515;
804.0000;0.0765;-0.9515;
804.3000;0.0790;-0.9471;
804.6000;0.0790;-0.9382;
804.9000;0.0773;-0.9382;
805.2000;0.0773;-0.9404;
805.5000;0.0773;-0.9449;
805.8000;0.0708;-0.9604;
806.1000;0.0757;-0.9471;
806.4000;0.0790;-0.9515;
806.7000;0.0765;-0.9559;
807.0000;0.0749;-0.9559;
807.3000;0.0773;-0.9515;
807.6000;0.0895;-0.9294;
807.9000;0.0838;-0.9471;
808.2000;0.0741;-0.9648;
808.5000;0.0724;-0.9604;
808.8000;0.0757;-0.9515;
809.1000;0.0790;-0.9471;
809.4000;0.0806;-0.9493;
809.7000;0.0781;-0.9559;
810.0000;0.0765;-0.9581;
810.3000;0.0619;-0.9913;
810.6000;0.0765;-0.9515;
810.9000;0.0822;-0.9338;
811.2000;0.0733;-0.9515;
811.5000;0.0798;-0.9272;
811.8000;0.0838;-0.9205;
812.1000;0.0741;-0.9427;
812.4000;0.0757;-0.9471;
812.7000;0.0765;-0.9471;
813.0000;0.0765;-0.9404;
813.3000;0.0757;-0.9360;
813.6000;0.0773;-0.9404;
813.9000;0.0822;-0.9294;
814.2000;0.0741;-0.9471;
814.5000;0.0749;-0.9493;
814.8000;0.0781;-0.9404;
815.1000;0.0765;-0.9404;
815.4000;0.0773;-0.9360;
815.7000;0.0749;-0.9382;
816.0000;0.0806;-0.9227;
816.3000;0.0773;-0.9360;
816.6000;0.0757;-0.9404;
816.9000;0.0814;-0.9382;
817.2000;0.0741;-0.9537;
817.5000;0.0741;-0.9515;
817.8000;0.0765;-0.9537;
818.1000;0.0773;-0.9537;
818.4000;0.0757;-0.9626;
818.7000;0.0749;-0.9559;
819.0000;0.0822;-0.9360;
819.3000;0.0765;-0.9515;
819.6000;0.0773;-0.9537;
819.9000;0.0749;-0.9670;
820.2000;0.0684;-0.9781;
820.5000;0.0765;-0.9559;
820.8000;0.0757;-0.9537;
821.1000;0.0790;-0.9427;
821.4000;0.0773;-0.9515;
821.7000;0.0765;-0.9493;
822.0000;0.0773;-0.9404;
822.3000;0.0619;-0.9847;
822.6000;0.0781;-0.9427;
822.9000;0.0757;-0.9493;
823.2000;0.0692;-0.9714;
823.5000;0.0749;-0.9493;
823.8000;0.0757;-0.9493;
824.1000;0.0781;-0.9471;
824.4000;0.0790;-0.9471;
824.7000;0.0757;-0.9581;
825.0000;0.0781;-0.9581;
825.3000;0.0765;-0.9471;
825.6000;0.0765;-0.9360;
825.9000;0.0757;-0.9360;
826.2000;0.0749;-0.9404;
826.5000;0.0757;-0.9382;
826.8000;0.0749;-0.9360;
827.1000;0.0765;-0.9250;
827.4000;0.0741;-0.9272;
827.7000;0.0765;-0.9404;
828.0000;0.0749;-0.9471;
828.3000;0.0757;-0.9537;
828.6000;0.0871;-0.9250;
828.9000;0.0781;-0.9471;
829.2000;0.0765;-0.9493;
829.5000;0.0757;-0.9493;
829.8000;0.0790;-0.9515;
830.1000;0.0757;-0.9493;
830.4000;0.0749;-0.9626;
830.7000;0.0757;-0.9626;
831.0000;0.0806;-0.9427;
831.3000;0.0757;-0.9493;
831.6000;0.0684;-0.9736;
831.9000;0.0733;-0.9581;
832.2000;0.0749;-0.9559;
832.5000;0.0781;-0.9449;
832.8000;0.0749;-0.9427;
833.1000;0.0765;-0.9382;
833.4000;0.0773;-0.9272;
833.7000;0.0749;-0.9316;
834.0000;0.0749;-0.9360;
834.3000;0.0806;-0.9316;
834.6000;0.0749;-0.9493;
834.9000;0.0749;-0.9427;
835.2000;0.0798;-0.9294;
835.5000;0.0741;-0.9404;
835.8000;0.0765;-0.9294;
836.1000;0.0741;-0.9338;
836.4000;0.0757;-0.9272;
836.7000;0.0708;-0.9316;
837.0000;0.0765;-0.9139;
837.3000;0.0749;-0.9183;
837.6000;0.0741;-0.9183;
837.9000;0.0749;-0.9272;
838.2000;0.0757;-0.9382;
838.5000;0.0741;-0.9427;
838.8000;0.0757;-0.9471;
839.1000;0.0733;-0.9604;
839.4000;0.0757;-0.9515;
839.7000;0.0757;-0.9537;
840.0000;0.0773;-0.9427;
840.3000;0.0741;-0.9427;
840.6000;0.0765;-0.9360;
840.9000;0.0765;-0.9382;
841.2000;0.0757;-0.9404;
841.5000;0.0741;-0.9493;
841.8000;0.0716;-0.9515;
842.1000;0.0749;-0.9515;
842.4000;0.0757;-0.9493;
842.7000;0.0781;-0.9404;
843.0000;0.0749;-0.9471;
843.3000;0.0757;-0.9471;
843.6000;0.0741;-0.9604;
843.9000;0.0757;-0.9604;
844.2000;0.0757;-0.9604;
844.5000;0.0749;-0.9559;
844.8000;0.0733;-0.9559;
845.1000;0.0798;-0.9382;
845.4000;0.0757;-0.9493;
845.7000;0.0773;-0.9493;
846.0000;0.0733;-0.9537;
846.3000;0.0765;-0.9559;
846.6000;0.0749;-0.9515;
846.9000;0.0781;-0.9404;
847.2000;0.0757;-0.9360;
847.5000;0.0798;-0.9316;
847.8000;0.0773;-0.9316;
848.1000;0.0733;-0.9427;
848.4000;0.0847;-0.9139;
848.7000;0.0765;-0.9360;
849.0000;0.0757;-0.9316;
849.3000;0.0781;-0.9316;
849.6000;0.0847;-0.9183;
849.9000;0.0733;-0.9559;
850.2000;0.0765;-0.9493;
850.5000;0.0757;-0.9471;
850.8000;0.0765;-0.9537;
851.1000;0.0724;-0.9581;
851.4000;0.0765;-0.9559;
851.7000;0.0773;-0.9604;
852.0000;0.0708;-0.9648;
852.3000;0.0773;-0.9515;
852.6000;0.0781;-0.9493;
852.9000;0.0708;-0.9670;
853.2000;0.0733;-0.9648;
853.5000;0.0765;-0.9515;
853.8000;0.0749;-0.9493;
854.1000;0.0749;-0.9604;
854.4000;0.0757;-0.9581;
854.7000;0.0790;-0.9559;
855.0000;0.0781;-0.9559;
855.3000;0.0798;-0.9537;
855.6000;0.0798;-0.9559;
855.9000;0.0724;-0.9692;
856.2000;0.0773;-0.9515;
856.5000;0.0838;-0.9382;
856.8000;0.0765;-0.9559;
857.1000;0.0757;-0.9471;
857.4000;0.0814;-0.9404;
857.7000;0.0741;-0.9537;
858.0000;0.0741;-0.9515;
858.3000;0.0733;-0.9471;
858.6000;0.0692;-0.9515;
858.9000;0.0749;-0.9427;
859.2000;0.0765;-0.9449;
859.5000;0.0749;-0.9449;
859.8000;0.0847;-0.9272;
860.1000;0.0708;-0.9692;
860.4000;0.0757;-0.9537;
860.7000;0.0757;-0.9382;
861.0000;0.0773;-0.9316;
861.3000;0.0806;-0.9272;
861.6000;0.0773;-0.9360;
861.9000;0.0692;-0.9493;
862.2000;0.0757;-0.9316;
862.5000;0.0716;-0.9427;
862.8000;0.0806;-0.9205;
863.1000;0.0757;-0.9449;
863.4000;0.0733;-0.9537;
863.7000;0.0830;-0.9316;
864.0000;0.0773;-0.9449;
864.3000;0.0749;-0.9493;
864.6000;0.0757;-0.9515;
864.9000;0.0855;-0.9404;
865.2000;0.0806;-0.9515;
865.5000;0.0765;-0.9581;
865.8000;0.0749;-0.9670;
866.1000;0.0773;-0.9559;
866.4000;0.0765;-0.9537;
866.7000;0.0749;-0.9515;
867.0000;0.0757;-0.9449;
867.3000;0.0741;-0.9493;
867.6000;0.0749;-0.9515;
867.9000;0.0749;-0.9581;
868.2000;0.0749;-0.9537;
868.5000;0.0724;-0.9449;
868.8000;0.0765;-0.9360;
869.1000;0.0749;-0.9449;
869.4000;0.0749;-0.9360;
869.7000;0.0716;-0.9471;
870.0000;0.0781;-0.9360;
870.3000;0.0765;-0.9360;
870.6000;0.0757;-0.9338;
870.9000;0.0757;-0.9294;
871.2000;0.0692;-0.9471;
871.5000;0.0757;-0.9316;
871.8000;0.0733;-0.9272;
872.1000;0.0749;-0.9250;
872.4000;0.0741;-0.9250;
872.7000;0.0773;-0.9250;
873.0000;0.0676;-0.9449;
873.3000;0.0773;-0.9272;
873.6000;0.0765;-0.9272;
873.9000;0.0773;-0.9183;
874.2000;0.0798;-0.9161;
874.5000;0.0741;-0.9227;
874.8000;0.0765;-0.9272;
875.1000;0.0757;-0.9382;
875.4000;0.0765;-0.9360;
875.7000;0.0757;-0.9294;
876.0000;0.0749;-0.9404;
876.3000;0.0773;-0.9382;
876.6000;0.0724;-0.9493;
876.9000;0.0765;-0.9360;
877.2000;0.0765;-0.9360;
877.5000;0.0749;-0.9449;
877.8000;0.0757;-0.9449;
878.1000;0.0757;-0.9471;
878.4000;0.0765;-0.9449;
878.7000;0.0814;-0.9294;
879.0000;0.0765;-0.9360;
879.3000;0.0676;-0.9604;
879.6000;0.0773;-0.9404;
879.9000;0.0708;-0.9559;
880.2000;0.0765;-0.9338;
880.5000;0.0749;-0.9427;
880.8000;0.0790;-0.9294;
881.1000;0.0765;-0.9227;
881.4000;0.0733;-0.9272;
881.7000;0.0806;-0.9095;
882.0000;0.0757;-0.9205;
882.3000;0.0749;-0.9250;
882.6000;0.0765;-0.9250;
882.9000;0.0749;-0.9404;
883.2000;0.0741;-0.9427;
883.5000;0.0773;-0.9316;
883.8000;0.0741;-0.9427;
884.1000;0.0773;-0.9404;
884.4000;0.0716;-0.9626;
884.7000;0.0733;-0.9537;
885.0000;0.0765;-0.9493;
885.3000;0.0757;-0.9449;
885.6000;0.0749;-0.9537;
885.9000;0.0765;-0.9404;
886.2000;0.0863;-0.9161;
886.5000;0.0765;-0.9427;
886.8000;0.0651;-0.9781;
887.1000;0.0773;-0.9449;
887.4000;0.0749;-0.9449;
887.7000;0.0765;-0.9404;
888.0000;0.0667;-0.9537;
888.3000;0.0676;-0.9581;
888.6000;0.0790;-0.9250;
888.9000;0.0847;-0.9117;
889.2000;0.0773;-0.9316;
889.5000;0.0863;-0.9117;
889.8000;0.0781;-0.9294;
890.1000;0.0667;-0.9670;
890.4000;0.0757;-0.9382;
890.7000;0.0708;-0.9404;
891.0000;0.0765;-0.9294;
891.3000;0.0700;-0.9537;
891.6000;0.0757;-0.9338;
891.9000;0.0765;-0.9227;
892.2000;0.0830;-0.9073;
892.5000;0.0741;-0.9294;
892.8000;0.0757;-0.9205;
893.1000;0.0676;-0.9449;
893.4000;0.0757;-0.9272;
893.7000;0.0667;-0.9559;
894.0000;0.0733;-0.9449;
894.3000;0.0741;-0.9449;
894.6000;0.0781;-0.9316;
894.9000;0.0765;-0.9294;
895.2000;0.0757;-0.9316;
895.5000;0.0798;-0.9161;
895.8000;0.0765;-0.9272;
896.1000;0.0781;-0.9294;
896.4000;0.0757;-0.9294;
896.7000;0.0790;-0.9316;
897.0000;0.0733;-0.9360;
897.3000;0.0749;-0.9294;
897.6000;0.0806;-0.9161;
897.9000;0.0749;-0.9382;
898.2000;0.0741;-0.9493;
898.5000;0.0749;-0.9604;
898.8000;0.0773;-0.9559;
899.1000;0.0757;-0.9559;
899.4000;0.0765;-0.9471;
899.7000;0.0855;-0.9294;
900.0000;0.0765;-0.9515;
900.3000;0.0741;-0.9427;
900.6000;0.0749;-0.9360;
900.9000;0.0798;-0.9227;
901.2000;0.0757;-0.9382;
901.5000;0.0757;-0.9404;
901.8000;0.0765;-0.9449;
902.1000;0.0749;-0.9515;
902.4000;0.0700;-0.9736;
902.7000;0.0765;-0.9537;
903.0000;0.0838;-0.9316;
903.3000;0.0733;-0.9604;
903.6000;0.0733;-0.9604;
903.9000;0.0773;-0.9449;
904.2000;0.0757;-0.9449;
904.5000;0.0765;-0.9404;
904.8000;0.0741;-0.9493;
905.1000;0.0741;-0.9581;
905.4000;0.0863;-0.9272;
905.7000;0.0659;-0.9648;
906.0000;0.0749;-0.9382;
906.3000;0.0741;-0.9427;
906.6000;0.0765;-0.9360;
906.9000;0.0749;-0.9316;
907.2000;0.0798;-0.9250;
907.5000;0.0765;-0.9294;
907.8000;0.0757;-0.9360;
908.1000;0.0773;-0.9338;
908.4000;0.0773;-0.9250;
908.7000;0.0757;-0.9338;
909.0000;0.0716;-0.9471;
909.3000;0.0749;-0.9404;
909.6000;0.0765;-0.9316;
909.9000;0.0757;-0.9382;
910.2000;0.0814;-0.9250;
910.5000;0.0757;-0.9338;
910.8000;0.0798;-0.9183;
911.1000;0.0806;-0.9117;
911.4000;0.0716;-0.9316;
911.7000;0.0822;-0.9095;
912.0000;0.0733;-0.9382;
912.3000;0.0790;-0.9227;
912.6000;0.0741;-0.9404;
912.9000;0.0741;-0.9427;
913.2000;0.0749;-0.9382;
913.5000;0.0757;-0.9227;
913.8000;0.0741;-0.9227;
914.1000;0.0602;-0.9670;
914.4000;0.0586;-0.9604;
914.7000;0.0733;-0.9294;
915.0000;0.0773;-0.9250;
915.3000;0.0676;-0.9449;
915.6000;0.0749;-0.9250;
915.9000;0.0749;-0.9316;
916.2000;0.0781;-0.9272;
916.5000;0.0757;-0.9382;
916.8000;0.0757;-0.9404;
917.1000;0.0790;-0.9360;
917.4000;0.0765;-0.9449;
917.7000;0.0741;-0.9581;
918.0000;0.0757;-0.9581;
918.3000;0.0765;-0.9581;
918.6000;0.0733;-0.9604;
918.9000;0.0749;-0.9581;
919.2000;0.0798;-0.9604;
919.5000;0.0765;-0.9648;
919.8000;0.0790;-0.9648;
920.1000;0.0684;-0.9847;
920.4000;0.0757;-0.9692;
920.7000;0.0798;-0.9581;
921.0000;0.0790;-0.9648;
921.3000;0.0773;-0.9648;
921.6000;0.0781;-0.9604;
921.9000;0.0733;-0.9714;
922.2000;0.0749;-0.9736;
922.5000;0.0749;-0.9803;
922.8000;0.0741;-0.9781;
923.1000;0.0749;-0.9803;
923.4000;0.0781;-0.9803;
923.7000;0.0773;-0.9714;
924.0000;0.0733;-0.9714;
924.3000;0.0692;-0.9781;
924.6000;0.0798;-0.9604;
924.9000;0.0822;-0.9537;
925.2000;0.0749;-0.9626;
925.5000;0.0733;-0.9604;
925.8000;0.0765;-0.9515;
926.1000;0.0757;-0.9493;
926.4000;0.0781;-0.9382;
926.7000;0.0798;-0.9404;
927.0000;0.0765;-0.9559;
927.3000;0.0838;-0.9294;
927.6000;0.0749;-0.9382;
927.9000;0.0749;-0.9449;
928.2000;0.0798;-0.9382;
928.5000;0.0765;-0.9427;
928.8000;0.0757;-0.9427;
929.1000;0.0781;-0.9338;
929.4000;0.0765;-0.9360;
929.7000;0.0765;-0.9227;
930.0000;0.0757;-0.9161;
930.3000;0.0765;-0.9227;
930.6000;0.0773;-0.9161;
930.9000;0.0749;-0.9272;
931.2000;0.0781;-0.9294;
931.5000;0.0781;-0.9316;
931.8000;0.0757;-0.9316;
932.1000;0.0765;-0.9227;
932.4000;0.0765;-0.9205;
932.7000;0.0733;-0.9316;
933.0000;0.0757;-0.9205;
933.3000;0.0757;-0.9294;
933.6000;0.0749;-0.9338;
933.9000;0.0733;-0.9338;
934.2000;0.0749;-0.9316;
934.5000;0.0749;-0.9316;
934.8000;0.0757;-0.9272;
935.1000;0.0741;-0.9272;
935.4000;0.0757;-0.9139;
935.7000;0.0773;-0.9073;
936.0000;0.0838;-0.8962;
936.3000;0.0773;-0.9161;
936.6000;0.0790;-0.9338;
936.9000;0.0838;-0.9139;
937.2000;0.0749;-0.9294;
937.5000;0.0749;-0.9382;
937.8000;0.0733;-0.9382;
938.1000;0.0757;-0.9316;
938.4000;0.0773;-0.9294;
938.7000;0.0765;-0.9205;
939.0000;0.0733;-0.9205;
939.3000;0.0741;-0.9227;
939.6000;0.0724;-0.9294;
939.9000;0.0773;-0.9227;
940.2000;0.0749;-0.9250;
940.5000;0.0765;-0.9294;
940.8000;0.0733;-0.9427;
941.1000;0.0708;-0.9515;
941.4000;0.0749;-0.9360;
941.7000;0.0684;-0.9537;
942.0000;0.0684;-0.9449;
942.3000;0.0781;-0.9250;
942.6000;0.0806;-0.9294;
942.9000;0.0757;-0.9449;
943.2000;0.0741;-0.9559;
943.5000;0.0749;-0.9449;
943.8000;0.0724;-0.9471;
944.1000;0.0716;-0.9449;
944.4000;0.0781;-0.9316;
944.7000;0.0749;-0.9427;
945.0000;0.0765;-0.9449;
945.3000;0.0757;-0.9404;
945.6000;0.0733;-0.9581;
945.9000;0.0757;-0.9493;
946.2000;0.0790;-0.9382;
946.5000;0.0741;-0.9449;
946.8000;0.0749;-0.9404;
947.1000;0.0749;-0.9338;
947.4000;0.0733;-0.9427;
947.7000;0.0741;-0.9360;
948.0000;0.0765;-0.9294;
948.3000;0.0855;-0.9028;
948.6000;0.0741;-0.9272;
948.9000;0.0830;-0.9028;
949.2000;0.0749;-0.9250;
949.5000;0.0749;-0.9205;
949.8000;0.0700;-0.9360;
950.1000;0.0773;-0.9250;
950.4000;0.0749;-0.9294;
950.7000;0.0741;-0.9205;
951.0000;0.0830;-0.9050;
951.3000;0.0619;-0.9581;
951.6000;0.0855;-0.9050;
951.9000;0.0733;-0.9360;
952.2000;0.0798;-0.9183;
952.5000;0.0749;-0.9338;
952.8000;0.0757;-0.9338;
953.1000;0.0757;-0.9272;
953.4000;0.0741;-0.9205;
953.7000;0.0790;-0.9073;
954.0000;0.0741;-0.9161;
954.3000;0.0781;-0.9073;
954.6000;0.0716;-0.9139;
954.9000;0.0749;-0.9028;
955.2000;0.0757;-0.9006;
955.5000;0.0757;-0.9006;
955.8000;0.0757;-0.9095;
956.1000;0.0757;-0.9073;
956.4000;0.0765;-0.9028;
956.7000;0.0757;-0.9050;
957.0000;0.0757;-0.9161;
957.3000;0.0741;-0.9250;
957.6000;0.0749;-0.9227;
957.9000;0.0781;-0.9183;
958.2000;0.0757;-0.9294;
958.5000;0.0749;-0.9338;
958.8000;0.0757;-0.9382;
959.1000;0.0749;-0.9360;
959.4000;0.0749;-0.9382;
959.7000;0.0659;-0.9626;
960.0000;0.0635;-0.9604;
960.3000;0.0781;-0.9272;
960.6000;0.0684;-0.9404;
960.9000;0.0765;-0.9272;
961.2000;0.0765;-0.9272;
961.5000;0.0741;-0.9382;
961.8000;0.0627;-0.9581;
962.1000;0.0700;-0.9515;
962.4000;0.0757;-0.9316;
962.7000;0.0814;-0.9161;
963.0000;0.0765;-0.9250;
963.3000;0.0765;-0.9272;
963.6000;0.0741;-0.9316;
963.9000;0.0733;-0.9316;
964.2000;0.0863;-0.8918;
964.5000;0.0757;-0.9161;
964.8000;0.0749;-0.9227;
965.1000;0.0895;-0.8851;
965.4000;0.0798;-0.9117;
965.7000;0.0733;-0.9316;
966.0000;0.0749;-0.9183;
966.3000;0.0749;-0.9205;
966.6000;0.0773;-0.9161;
966.9000;0.0773;-0.9095;
967.2000;0.0627;-0.9427;
967.5000;0.0749;-0.9095;
967.8000;0.0765;-0.9161;
968.1000;0.0692;-0.9404;
968.4000;0.0749;-0.9205;
968.7000;0.0757;-0.9183;
969.0000;0.0757;-0.9250;
969.3000;0.0757;-0.9161;
969.6000;0.0749;-0.9117;
969.9000;0.0733;-0.9139;
970.2000;0.0733;-0.9183;
970.5000;0.0765;-0.9161;
970.8000;0.0741;-0.9294;
971.1000;0.0749;-0.9272;
971.4000;0.0773;-0.9250;
971.7000;0.0790;-0.9117;
972.0000;0.0692;-0.9338;
972.3000;0.0765;-0.9161;
972.6000;0.0847;-0.9028;
972.9000;0.0749;-0.9294;
973.2000;0.0781;-0.9205;
973.5000;0.0733;-0.9294;
973.8000;0.0773;-0.9161;
974.1000;0.0765;-0.9161;
974.4000;0.0733;-0.9139;
974.7000;0.0733;-0.9139;
975.0000;0.0757;-0.9117;
975.3000;0.0676;-0.9338;
975.6000;0.0773;-0.9073;
975.9000;0.0724;-0.9095;
976.2000;0.0757;-0.8962;
976.5000;0.0814;-0.8741;
976.8000;0.0757;-0.9006;
977.1000;0.0749;-0.9073;
977.4000;0.0790;-0.8962;
977.7000;0.0692;-0.9360;
978.0000;0.0749;-0.9205;
978.3000;0.0733;-0.9250;
978.6000;0.0806;-0.9028;
978.9000;0.0676;-0.9250;
979.2000;0.0749;-0.9095;
979.5000;0.0773;-0.9050;
979.8000;0.0814;-0.8851;
980.1000;0.0757;-0.9117;
980.4000;0.0765;-0.9117;
980.7000;0.0749;-0.9161;
981.0000;0.0749;-0.9205;
981.3000;0.0790;-0.9073;
981.6000;0.0781;-0.9073;
981.9000;0.0757;-0.9250;
982.2000;0.0716;-0.9338;
982.5000;0.0773;-0.9205;
982.8000;0.0741;-0.9272;
983.1000;0.0757;-0.9227;
983.4000;0.0814;-0.9050;
983.7000;0.0733;-0.9250;
984.0000;0.0749;-0.9227;
984.3000;0.0659;-0.9404;
984.6000;0.0708;-0.9272;
984.9000;0.0757;-0.9205;
985.2000;0.0798;-0.9161;
985.5000;0.0765;-0.9250;
985.8000;0.0692;-0.9471;
986.1000;0.0757;-0.9316;
986.4000;0.0554;-0.9758;
986.7000;0.0790;-0.9139;
987.0000;0.0773;-0.9095;
987.3000;0.0716;-0.9227;
987.6000;0.0765;-0.9095;
987.9000;0.0765;-0.9161;
988.2000;0.0757;-0.9272;
988.5000;0.0765;-0.9227;
988.8000;0.0749;-0.9272;
989.1000;0.0757;-0.9161;
989.4000;0.0765;-0.9139;
989.7000;0.0757;-0.9095;
990.0000;0.0773;-0.9050;
990.3000;0.0749;-0.9205;
990.6000;0.0749;-0.9250;
990.9000;0.0765;-0.9294;
991.2000;0.0773;-0.9294;
991.5000;0.0790;-0.9272;
991.8000;0.0765;-0.9205;
992.1000;0.0733;-0.9250;
992.4000;0.0684;-0.9250;
992.7000;0.0765;-0.9073;
993.0000;0.0781;-0.9028;
993.3000;0.0741;-0.9161;
993.6000;0.0741;-0.9117;
993.9000;0.0749;-0.9161;
994.2000;0.0741;-0.9117;
994.5000;0.0741;-0.9161;
994.8000;0.0757;-0.9227;
995.1000;0.0765;-0.9183;
995.4000;0.0798;-0.9117;
995.7000;0.0765;-0.9227;
996.0000;0.0684;-0.9404;
996.3000;0.0773;-0.9227;
996.6000;0.0765;-0.9227;
996.9000;0.0838;-0.9183;
997.2000;0.0773;-0.9316;
997.5000;0.0814;-0.9250;
997.8000;0.0749;-0.9360;
998.1000;0.0757;-0.9382;
998.4000;0.0602;-0.9581;
998.7000;0.0741;-0.9294;
999.0000;0.0684;-0.9382;
999.3000;0.0765;-0.9117;
999.6000;0.0765;-0.9161;
999.9000;0.0781;-0.9139;
1000.2000;0.0781;-0.9117;
1000.5000;0.0741;-0.9227;
1000.8000;0.0749;-0.9250;
1001.1000;0.0716;-0.9316;
1001.4000;0.0749;-0.9227;
1001.7000;0.0635;-0.9604;
1002.0000;0.0773;-0.9294;
1002.3000;0.0765;-0.9183;
1002.6000;0.0741;-0.9139;
1002.9000;0.0838;-0.8785;
1003.2000;0.0781;-0.8918;
1003.5000;0.0765;-0.9050;
1003.8000;0.0814;-0.8851;
1004.1000;0.0708;-0.9117;
1004.4000;0.0741;-0.9095;
1004.7000;0.0700;-0.9250;
1005.0000;0.0773;-0.9073;
1005.3000;0.0757;-0.9161;
1005.6000;0.0773;-0.9095;
1005.9000;0.0847;-0.8940;
1006.2000;0.0790;-0.9073;
1006.5000;0.0781;-0.9028;
1006.8000;0.0806;-0.9006;
1007.1000;0.0757;-0.9183;
1007.4000;0.0733;-0.9205;
1007.7000;0.0773;-0.8962;
1008.0000;0.0765;-0.8918;
1008.3000;0.0749;-0.8940;
1008.6000;0.0733;-0.9050;
1008.9000;0.0716;-0.9117;
1009.2000;0.0757;-0.9028;
1009.5000;0.0773;-0.9006;
1009.8000;0.0741;-0.9073;
1010.1000;0.0781;-0.8962;
1010.4000;0.0790;-0.9006;
1010.7000;0.0757;-0.9050;
1011.0000;0.0757;-0.9006;
1011.3000;0.0724;-0.9205;
1011.6000;0.0757;-0.9183;
1011.9000;0.0749;-0.9183;
1012.2000;0.0773;-0.9139;
1012.5000;0.0773;-0.9117;
1012.8000;0.0757;-0.9139;
1013.1000;0.0643;-0.9427;
1013.4000;0.0757;-0.9161;
1013.7000;0.0757;-0.9272;
1014.0000;0.0847;-0.8984;
1014.3000;0.0765;-0.9205;
1014.6000;0.0733;-0.9205;
1014.9000;0.0765;-0.9073;
1015.2000;0.0724;-0.9205;
1015.5000;0.0741;-0.9095;
1015.8000;0.0757;-0.9006;
1016.1000;0.0757;-0.9006;
1016.4000;0.0757;-0.9073;
1016.7000;0.0749;-0.9073;
1017.0000;0.0757;-0.9161;
1017.3000;0.0781;-0.9161;
1017.6000;0.0757;-0.9183;
1017.9000;0.0765;-0.9117;
1018.2000;0.0724;-0.9205;
1018.5000;0.0741;-0.9205;
1018.8000;0.0757;-0.9205;
1019.1000;0.0749;-0.9360;
1019.4000;0.0765;-0.9338;
1019.7000;0.0733;-0.9382;
1020.0000;0.0765;-0.9294;
1020.3000;0.0773;-0.9250;
1020.6000;0.0733;-0.9294;
1020.9000;0.0822;-0.9073;
1021.2000;0.0733;-0.9316;
1021.5000;0.0781;-0.9227;
1021.8000;0.0806;-0.9050;
1022.1000;0.0765;-0.9139;
1022.4000;0.0741;-0.9183;
1022.7000;0.0627;-0.9515;
1023.0000;0.0700;-0.9382;
1023.3000;0.0749;-0.9316;
1023.6000;0.0741;-0.9382;
1023.9000;0.0741;-0.9272;
1024.2000;0.0749;-0.9227;
1024.5000;0.0765;-0.9227;
1024.8000;0.0765;-0.9161;
1025.1000;0.0733;-0.9117;
1025.4000;0.0781;-0.9050;
1025.7000;0.0733;-0.9250;
1026.0000;0.0781;-0.9073;
1026.3000;0.0773;-0.9117;
1026.6000;0.0741;-0.9205;
1026.9000;0.0798;-0.9117;
1027.2000;0.0765;-0.9183;
1027.5000;0.0741;-0.9316;
1027.8000;0.0700;-0.9404;
1028.1000;0.0765;-0.9183;
1028.4000;0.0724;-0.9294;
1028.7000;0.0741;-0.9294;
1029.0000;0.0741;-0.9382;
1029.3000;0.0741;-0.9227;
1029.6000;0.0765;-0.9227;
1029.9000;0.0773;-0.9117;
1030.2000;0.0749;-0.9227;
1030.5000;0.0741;-0.9338;
1030.8000;0.0773;-0.9183;
1031.1000;0.0749;-0.9227;
1031.4000;0.0765;-0.9227;
1031.7000;0.0733;-0.9316;
1032.0000;0.0733;-0.9338;
1032.3000;0.0773;-0.9227;
1032.6000;0.0757;-0.9294;
1032.9000;0.0757;-0.9272;
1033.2000;0.0749;-0.9294;
1033.5000;0.0757;-0.9205;
1033.8000;0.0765;-0.9161;
1034.1000;0.0765;-0.9117;
1034.4000;0.0741;-0.9183;
1034.7000;0.0741;-0.9272;
1035.0000;0.0757;-0.9316;
1035.3000;0.0781;-0.9294;
1035.6000;0.0765;-0.9382;
1035.9000;0.0724;-0.9493;
1036.2000;0.0790;-0.9427;
1036.5000;0.0733;-0.9449;
1036.8000;0.0757;-0.9360;
1037.1000;0.0757;-0.9382;
1037.4000;0.0749;-0.9404;
1037.7000;0.0765;-0.9338;
1038.0000;0.0635;-0.9692;
1038.3000;0.0741;-0.9404;
1038.6000;0.0765;-0.9316;
1038.9000;0.0716;-0.9360;
1039.2000;0.0757;-0.9294;
1039.5000;0.0724;-0.9382;
1039.8000;0.0749;-0.9272;
1040.1000;0.0611;-0.9648;
1040.4000;0.0765;-0.9338;
1040.7000;0.0757;-0.9272;
1041.0000;0.0765;-0.9161;
1041.3000;0.0716;-0.9250;
1041.6000;0.0741;-0.9205;
1041.9000;0.0741;-0.9139;
1042.2000;0.0806;-0.9028;
1042.5000;0.0781;-0.9139;
1042.8000;0.0757;-0.9272;
1043.1000;0.0749;-0.9250;
1043.4000;0.0716;-0.9316;
1043.7000;0.0733;-0.9316;
1044.0000;0.0733;-0.9294;
1044.3000;0.0749;-0.9294;
1044.6000;0.0684;-0.9515;
1044.9000;0.0765;-0.9272;
1045.2000;0.0724;-0.9427;
1045.5000;0.0749;-0.9294;
1045.8000;0.0716;-0.9404;
1046.1000;0.0749;-0.9250;
1046.4000;0.0814;-0.9006;
1046.7000;0.0684;-0.9382;
1047.0000;0.0765;-0.9227;
1047.3000;0.0733;-0.9294;
1047.6000;0.0708;-0.9338;
1047.9000;0.0741;-0.9294;
1048.2000;0.0798;-0.9073;
1048.5000;0.0749;-0.9117;
1048.8000;0.0773;-0.9073;
1049.1000;0.0749;-0.9161;
1049.4000;0.0798;-0.9161;
1049.7000;0.0741;-0.9227;
1050.0000;0.0749;-0.9227;
1050.3000;0.0741;-0.9272;
1050.6000;0.0887;-0.8984;
1050.9000;0.0741;-0.9272;
1051.2000;0.0733;-0.9338;
1051.5000;0.0773;-0.9250;
1051.8000;0.0781;-0.9139;
1052.1000;0.0724;-0.9272;
1052.4000;0.0749;-0.9227;
1052.7000;0.0773;-0.9139;
1053.0000;0.0741;-0.9205;
1053.3000;0.0733;-0.9272;
1053.6000;0.0749;-0.9205;
1053.9000;0.0887;-0.8873;
1054.2000;0.0757;-0.9161;
1054.5000;0.0757;-0.9117;
1054.8000;0.0741;-0.9183;
1055.1000;0.0724;-0.9205;
1055.4000;0.0765;-0.9139;
1055.7000;0.0757;-0.9139;
1056.0000;0.0757;-0.9183;
1056.3000;0.0716;-0.9272;
1056.6000;0.0749;-0.9250;
1056.9000;0.0757;-0.9294;
1057.2000;0.0847;-0.9161;
1057.5000;0.0838;-0.9161;
1057.8000;0.0724;-0.9338;
1058.1000;0.0741;-0.9272;
1058.4000;0.0757;-0.9294;
1058.7000;0.0830;-0.9095;
1059.0000;0.0757;-0.9338;
1059.3000;0.0773;-0.9360;
1059.6000;0.0733;-0.9404;
1059.9000;0.0765;-0.9338;
1060.2000;0.0790;-0.9250;
1060.5000;0.0667;-0.9537;
1060.8000;0.0749;-0.9382;
1061.1000;0.0749;-0.9404;
1061.4000;0.0741;-0.9382;
1061.7000;0.0765;-0.9338;
1062.0000;0.0749;-0.9294;
1062.3000;0.0757;-0.9272;
1062.6000;0.0700;-0.9449;
1062.9000;0.0790;-0.9139;
1063.2000;0.0724;-0.9183;
1063.5000;0.0733;-0.9095;
1063.8000;0.0773;-0.9117;
1064.1000;0.0757;-0.9161;
1064.4000;0.0741;-0.9183;
1064.7000;0.0757;-0.9227;
1065.0000;0.0781;-0.9139;
1065.3000;0.0716;-0.9250;
1065.6000;0.0773;-0.9161;
1065.9000;0.0773;-0.9250;
1066.2000;0.0790;-0.9250;
1066.5000;0.0790;-0.9161;
1066.8000;0.0757;-0.9205;
1067.1000;0.0741;-0.9382;
1067.4000;0.0716;-0.9449;
1067.7000;0.0757;-0.9338;
1068.0000;0.0708;-0.9382;
1068.3000;0.0781;-0.9227;
1068.6000;0.0757;-0.9294;
1068.9000;0.0724;-0.9360;
1069.2000;0.0741;-0.9338;
1069.5000;0.0733;-0.9294;
1069.8000;0.0952;-0.8696;
1070.1000;0.0757;-0.9227;
1070.4000;0.0749;-0.9272;
1070.7000;0.0733;-0.9449;
1071.0000;0.0733;-0.9427;
1071.3000;0.0724;-0.9382;
1071.6000;0.0757;-0.9294;
1071.9000;0.0741;-0.9360;
1072.2000;0.0790;-0.9227;
1072.5000;0.0733;-0.9316;
1072.8000;0.0749;-0.9227;
1073.1000;0.0838;-0.9117;
1073.4000;0.0749;-0.9382;
1073.7000;0.0741;-0.9404;
1074.0000;0.0749;-0.9404;
1074.3000;0.0733;-0.9493;
1074.6000;0.0749;-0.9493;
1074.9000;0.0708;-0.9581;
1075.2000;0.0749;-0.9493;
1075.5000;0.0757;-0.9581;
1075.8000;0.0765;-0.9537;
1076.1000;0.0619;-0.9958;
1076.4000;0.0733;-0.9559;
1076.7000;0.0741;-0.9493;
1077.0000;0.0749;-0.9427;
1077.3000;0.0733;-0.9515;
1077.6000;0.0724;-0.9537;
1077.9000;0.0749;-0.9404;
1078.2000;0.0765;-0.9404;
1078.5000;0.0733;-0.9559;
1078.8000;0.0741;-0.9559;
1079.1000;0.0749;-0.9581;
1079.4000;0.0773;-0.9537;
1079.7000;0.0806;-0.9449;
1080.0000;0.0765;-0.9559;
1080.3000;0.0724;-0.9692;
1080.6000;0.0708;-0.9670;
1080.9000;0.0733;-0.9581;
1081.2000;0.0724;-0.9670;
1081.5000;0.0716;-0.9670;
1081.8000;0.0749;-0.9670;
1082.1000;0.0757;-0.9604;
1082.4000;0.0781;-0.9537;
1082.7000;0.0741;-0.9714;
1083.0000;0.0684;-0.9825;
1083.3000;0.0741;-0.9648;
1083.6000;0.0830;-0.9360;
1083.9000;0.0700;-0.9626;
1084.2000;0.0757;-0.9493;
1084.5000;0.0749;-0.9493;
1084.8000;0.0781;-0.9404;
1085.1000;0.0773;-0.9404;
1085.4000;0.0749;-0.9404;
1085.7000;0.0773;-0.9360;
1086.0000;0.0749;-0.9449;
1086.3000;0.0749;-0.9493;
1086.6000;0.0757;-0.9515;
1086.9000;0.0765;-0.9515;
1087.2000;0.0765;-0.9537;
1087.5000;0.0749;-0.9648;
1087.8000;0.0749;-0.9692;
1088.1000;0.0724;-0.9714;
1088.4000;0.0765;-0.9537;
1088.7000;0.0749;-0.9604;
1089.0000;0.0749;-0.9604;
1089.3000;0.0724;-0.9670;
1089.6000;0.0790;-0.9493;
1089.9000;0.0765;-0.9493;
1090.2000;0.0773;-0.9471;
1090.5000;0.0733;-0.9471;
1090.8000;0.0814;-0.9272;
1091.1000;0.0765;-0.9449;
1091.4000;0.0757;-0.9493;
1091.7000;0.0757;-0.9626;
1092.0000;0.0879;-0.9382;
1092.3000;0.0765;-0.9648;
1092.6000;0.0765;-0.9604;
1092.9000;0.0757;-0.9471;
1093.2000;0.0773;-0.9338;
1093.5000;0.0692;-0.9471;
1093.8000;0.0684;-0.9427;
1094.1000;0.0724;-0.9294;
1094.4000;0.0773;-0.9250;
1094.7000;0.0765;-0.9250;
1095.0000;0.0765;-0.9360;
1095.3000;0.0749;-0.9338;
1095.6000;0.0773;-0.9338;
1095.9000;0.0733;-0.9316;
1096.2000;0.0757;-0.9338;
1096.5000;0.0749;-0.9427;
1096.8000;0.0765;-0.9471;
1097.1000;0.0904;-0.9205;
1097.4000;0.0741;-0.9537;
1097.7000;0.0757;-0.9515;
1098.0000;0.0741;-0.9559;
1098.3000;0.0757;-0.9515;
1098.6000;0.0716;-0.9604;
1098.9000;0.0733;-0.9493;
1099.2000;0.0619;-0.9758;
1099.5000;0.0781;-0.9427;
1099.8000;0.0749;-0.9537;
1100.1000;0.0847;-0.9338;
1100.4000;0.0741;-0.9515;
1100.7000;0.0716;-0.9537;
1101.0000;0.0741;-0.9515;
1101.3000;0.0757;-0.9537;
1101.6000;0.0741;-0.9604;
1101.9000;0.0773;-0.9471;
1102.2000;0.0749;-0.9471;
1102.5000;0.0724;-0.9471;
1102.8000;0.0790;-0.9272;
1103.1000;0.0733;-0.9316;
1103.4000;0.0741;-0.9272;
1103.7000;0.0830;-0.9073;
1104.0000;0.0781;-0.9139;
1104.3000;0.0733;-0.9338;
1104.6000;0.0765;-0.9250;
1104.9000;0.0757;-0.9294;
1105.2000;0.0847;-0.9161;
1105.5000;0.0741;-0.9404;
1105.8000;0.0733;-0.9404;
1106.1000;0.0920;-0.8962;
1106.4000;0.0749;-0.9338;
1106.7000;0.0741;-0.9382;
1107.0000;0.0733;-0.9427;
1107.3000;0.0749;-0.9404;
1107.6000;0.0757;-0.9360;
1107.9000;0.0806;-0.9272;
1108.2000;0.0733;-0.9316;
1108.5000;0.0619;-0.9604;
1108.8000;0.0749;-0.9316;
1109.1000;0.0757;-0.9338;
1109.4000;0.0700;-0.9537;
1109.7000;0.0716;-0.9382;
1110.0000;0.0716;-0.9338;
1110.3000;0.0741;-0.9250;
1110.6000;0.0724;-0.9250;
1110.9000;0.0781;-0.9183;
1111.2000;0.0757;-0.9161;
1111.5000;0.0757;-0.9161;
1111.8000;0.0773;-0.9139;
1112.1000;0.0757;-0.9161;
1112.4000;0.0757;-0.9161;
1112.7000;0.0830;-0.8940;
1113.0000;0.0790;-0.9006;
1113.3000;0.0741;-0.9117;
1113.6000;0.0659;-0.9360;
1113.9000;0.0757;-0.9095;
1114.2000;0.0749;-0.9161;
1114.5000;0.0765;-0.9205;
1114.8000;0.0684;-0.9382;
1115.1000;0.0733;-0.9294;
1115.4000;0.0749;-0.9272;
1115.7000;0.0773;-0.9117;
1116.0000;0.0716;-0.9161;
1116.3000;0.0757;-0.9161;
1116.6000;0.0741;-0.9227;
1116.9000;0.0757;-0.9205;
1117.2000;0.0741;-0.9205;
1117.5000;0.0741;-0.9250;
1117.8000;0.0830;-0.9050;
1118.1000;0.0757;-0.9250;
1118.4000;0.0773;-0.9205;
1118.7000;0.0757;-0.9272;
1119.0000;0.0773;-0.9227;
1119.3000;0.0757;-0.9227;
1119.6000;0.0757;-0.9117;
1119.9000;0.0749;-0.9028;
1120.2000;0.0773;-0.8940;
1120.5000;0.0676;-0.9161;
1120.8000;0.0749;-0.9006;
1121.1000;0.0733;-0.9028;
1121.4000;0.0765;-0.8984;
1121.7000;0.0773;-0.9006;
1122.0000;0.0749;-0.9117;
1122.3000;0.0814;-0.9006;
1122.6000;0.0741;-0.9161;
1122.9000;0.0733;-0.9117;
1123.2000;0.0684;-0.9227;
1123.5000;0.0757;-0.9073;
1123.8000;0.0733;-0.9050;
1124.1000;0.0749;-0.8984;
1124.4000;0.0749;-0.8984;
1124.7000;0.0708;-0.9161;
1125.0000;0.0749;-0.9073;
1125.3000;0.0716;-0.9227;
1125.6000;0.0749;-0.9183;
1125.9000;0.0806;-0.9050;
1126.2000;0.0749;-0.9205;
1126.5000;0.0781;-0.9183;
1126.8000;0.0781;-0.9183;
1127.1000;0.0741;-0.9205;
1127.4000;0.0733;-0.9294;
1127.7000;0.0773;-0.9183;
1128.0000;0.0773;-0.9161;
1128.3000;0.0749;-0.9227;
1128.6000;0.0781;-0.9117;
1128.9000;0.0749;-0.9183;
1129.2000;0.0757;-0.9161;
1129.5000;0.0749;-0.9139;
1129.8000;0.0659;-0.9382;
1130.1000;0.0773;-0.9095;
1130.4000;0.0757;-0.9227;
1130.7000;0.0773;-0.9117;
1131.0000;0.0724;-0.9205;
1131.3000;0.0765;-0.9117;
1131.6000;0.0757;-0.9183;
1131.9000;0.0749;-0.9250;
1132.2000;0.0765;-0.9183;
1132.5000;0.0692;-0.9227;
1132.8000;0.0716;-0.9183;
1133.1000;0.0790;-0.8962;
1133.4000;0.0749;-0.9028;
1133.7000;0.0716;-0.9205;
1134.0000;0.0773;-0.9095;
1134.3000;0.0773;-0.9139;
1134.6000;0.0757;-0.9139;
1134.9000;0.0765;-0.9139;
1135.2000;0.0765;-0.9139;
1135.5000;0.0741;-0.9205;
1135.8000;0.0765;-0.9227;
1136.1000;0.0773;-0.9183;
1136.4000;0.0765;-0.9161;
1136.7000;0.0806;-0.9117;
1137.0000;0.0757;-0.9205;
1137.3000;0.0757;-0.9250;
1137.6000;0.0627;-0.9604;
1137.9000;0.0757;-0.9294;
1138.2000;0.0773;-0.9227;
1138.5000;0.0724;-0.9250;
1138.8000;0.0765;-0.9139;
1139.1000;0.0773;-0.9161;
1139.4000;0.0781;-0.9205;
1139.7000;0.0765;-0.9272;
1140.0000;0.0741;-0.9272;
1140.3000;0.0773;-0.9205;
1140.6000;0.0700;-0.9338;
1140.9000;0.0741;-0.9250;
1141.2000;0.0733;-0.9294;
1141.5000;0.0757;-0.9183;
1141.8000;0.0700;-0.9338;
1142.1000;0.0781;-0.9183;
1142.4000;0.0724;-0.9294;
1142.7000;0.0757;-0.9205;
1143.0000;0.0757;-0.9139;
1143.3000;0.0749;-0.9183;
1143.6000;0.0773;-0.9161;
1143.9000;0.0773;-0.9139;
1144.2000;0.0749;-0.9227;
1144.5000;0.0749;-0.9095;
1144.8000;0.0716;-0.9183;
1145.1000;0.0733;-0.9227;
1145.4000;0.0773;-0.9161;
1145.7000;0.0757;-0.9294;
1146.0000;0.0757;-0.9360;
1146.3000;0.0741;-0.9360;
1146.6000;0.0757;-0.9360;
1146.9000;0.0733;-0.9360;
1147.2000;0.0765;-0.9316;
1147.5000;0.0724;-0.9404;
1147.8000;0.0757;-0.9360;
1148.1000;0.0749;-0.9250;
1148.4000;0.0700;-0.9427;
1148.7000;0.0724;-0.9294;
1149.0000;0.0749;-0.9272;
1149.3000;0.0741;-0.9360;
1149.6000;0.0773;-0.9227;
1149.9000;0.0781;-0.9183;
1150.2000;0.0757;-0.9294;
1150.5000;0.0757;-0.9205;
1150.8000;0.0627;-0.9471;
1151.1000;0.0887;-0.8807;
1151.4000;0.0765;-0.9161;
1151.7000;0.0741;-0.9227;
1152.0000;0.0716;-0.9382;
1152.3000;0.0749;-0.9338;
1152.6000;0.0716;-0.9493;
1152.9000;0.0716;-0.9493;
1153.2000;0.0741;-0.9427;
1153.5000;0.0814;-0.9294;
1153.8000;0.0602;-0.9781;
1154.1000;0.0773;-0.9338;
1154.4000;0.0895;-0.8984;
1154.7000;0.0708;-0.9537;
1155.0000;0.0741;-0.9493;
1155.3000;0.0781;-0.9427;
1155.6000;0.0765;-0.9404;
1155.9000;0.0781;-0.9338;
1156.2000;0.0724;-0.9515;
1156.5000;0.0757;-0.9471;
1156.8000;0.0724;-0.9493;
1157.1000;0.0724;-0.9449;
1157.4000;0.0741;-0.9360;
1157.7000;0.0757;-0.9360;
1158.0000;0.0724;-0.9471;
1158.3000;0.0724;-0.9471;
1158.6000;0.0749;-0.9427;
1158.9000;0.0733;-0.9338;
1159.2000;0.0765;-0.9272;
1159.5000;0.0765;-0.9272;
1159.8000;0.0757;-0.9294;
1160.1000;0.0757;-0.9360;
1160.4000;0.0757;-0.9404;
1160.7000;0.0741;-0.9427;
1161.0000;0.0749;-0.9382;
1161.3000;0.0741;-0.9316;
1161.6000;0.0765;-0.9227;
1161.9000;0.0741;-0.9338;
1162.2000;0.0765;-0.9316;
1162.5000;0.0765;-0.9183;
1162.8000;0.0749;-0.9205;
1163.1000;0.0741;-0.9250;
1163.4000;0.0822;-0.9139;
1163.7000;0.0741;-0.9382;
1164.0000;0.0765;-0.9316;
1164.3000;0.0741;-0.9338;
1164.6000;0.0749;-0.9294;
1164.9000;0.0733;-0.9316;
1165.2000;0.0749;-0.9227;
1165.5000;0.0790;-0.9250;
1165.8000;0.0765;-0.9227;
1166.1000;0.0765;-0.9250;
1166.4000;0.0765;-0.9294;
1166.7000;0.0733;-0.9360;
1167.0000;0.0798;-0.9205;
1167.3000;0.0765;-0.9205;
1167.6000;0.0741;-0.9272;
1167.9000;0.0765;-0.9316;
1168.2000;0.0781;-0.9316;
1168.5000;0.0749;-0.9493;
1168.8000;0.0757;-0.9427;
1169.1000;0.0676;-0.9692;
1169.4000;0.0765;-0.9604;
1169.7000;0.0619;-0.9936;
1170.0000;0.0659;-0.9891;
1170.3000;0.0741;-0.9692;
1170.6000;0.0741;-0.9626;
1170.9000;0.0790;-0.9515;
1171.2000;0.0749;-0.9581;
1171.5000;0.0773;-0.9404;
1171.8000;0.0749;-0.9449;
1172.1000;0.0765;-0.9382;
1172.4000;0.0765;-0.9360;
1172.7000;0.0757;-0.9338;
1173.0000;0.0749;-0.9382;
1173.3000;0.0749;-0.9294;
1173.6000;0.0684;-0.9493;
1173.9000;0.0838;-0.9006;
1174.2000;0.0708;-0.9272;
1174.5000;0.0765;-0.9183;
1174.8000;0.0749;-0.9205;
1175.1000;0.0806;-0.9117;
1175.4000;0.0741;-0.9183;
1175.7000;0.0814;-0.8940;
1176.0000;0.0765;-0.9139;
1176.3000;0.0733;-0.9161;
1176.6000;0.0733;-0.9205;
1176.9000;0.0676;-0.9338;
1177.2000;0.0700;-0.9316;
1177.5000;0.0741;-0.9205;
1177.8000;0.0692;-0.9360;
1178.1000;0.0724;-0.9316;
1178.4000;0.0724;-0.9338;
1178.7000;0.0757;-0.9272;
1179.0000;0.0741;-0.9427;
1179.3000;0.0724;-0.9382;
1179.6000;0.0830;-0.9095;
1179.9000;0.0741;-0.9294;
1180.2000;0.0765;-0.9316;
1180.5000;0.0684;-0.9537;
1180.8000;0.0716;-0.9493;
1181.1000;0.0749;-0.9427;
1181.4000;0.0773;-0.9404;
1181.7000;0.0716;-0.9537;
1182.0000;0.0773;-0.9294;
1182.3000;0.0798;-0.9205;
1182.6000;0.0749;-0.9250;
1182.9000;0.0765;-0.9250;
1183.2000;0.0741;-0.9205;
1183.5000;0.0749;-0.9139;
1183.8000;0.0790;-0.9095;
1184.1000;0.0757;-0.9227;
1184.4000;0.0733;-0.9294;
1184.7000;0.0741;-0.9316;
1185.0000;0.0814;-0.9183;
1185.3000;0.0757;-0.9360;
1185.6000;0.0781;-0.9316;
1185.9000;0.0749;-0.9427;
1186.2000;0.0757;-0.9316;
1186.5000;0.0765;-0.9338;
1186.8000;0.0773;-0.9382;
1187.1000;0.0757;-0.9360;
1187.4000;0.0757;-0.9382;
1187.7000;0.0757;-0.9338;
1188.0000;0.0716;-0.9338;
1188.3000;0.0765;-0.9250;
1188.6000;0.0741;-0.9272;
1188.9000;0.0773;-0.9272;
1189.2000;0.0741;-0.9360;
1189.5000;0.0733;-0.9316;
1189.8000;0.0741;-0.9338;
1190.1000;0.0749;-0.9250;
1190.4000;0.0749;-0.9316;
1190.7000;0.0773;-0.9294;
1191.0000;0.0684;-0.9471;
1191.3000;0.0749;-0.9227;
1191.6000;0.0765;-0.9161;
1191.9000;0.0741;-0.9250;
1192.2000;0.0773;-0.9227;
1192.5000;0.0749;-0.9250;
1192.8000;0.0757;-0.9250;
1193.1000;0.0724;-0.9250;
1193.4000;0.0749;-0.9183;
1193.7000;0.0765;-0.9095;
1194.0000;0.0692;-0.9272;
1194.3000;0.0749;-0.9161;
1194.6000;0.0822;-0.9073;
1194.9000;0.0765;-0.9227;
1195.2000;0.0749;-0.9360;
1195.5000;0.0757;-0.9272;
1195.8000;0.0773;-0.9294;
1196.1000;0.0757;-0.9338;
1196.4000;0.0765;-0.9205;
1196.7000;0.0765;-0.9227;
1197.0000;0.0822;-0.9139;
1197.3000;0.0692;-0.9427;
1197.6000;0.0708;-0.9382;
1197.9000;0.0749;-0.9382;
1198.2000;0.0700;-0.9493;
1198.5000;0.0716;-0.9338;
1198.8000;0.0741;-0.9250;
1199.1000;0.0659;-0.9338;
1199.4000;0.0765;-0.9139;
1199.7000;0.0733;-0.9183;
1200.0000;0.0830;-0.8940;
1200.3000;0.0757;-0.9139;
1200.6000;0.0773;-0.9205;
1200.9000;0.0781;-0.9272;
1201.2000;0.0765;-0.9316;
1201.5000;0.0757;-0.9316;
1201.8000;0.0733;-0.9427;
1202.1000;0.0749;-0.9227;
1202.4000;0.0757;-0.9183;
1202.7000;0.0757;-0.9183;
1203.0000;0.0757;-0.9227;
1203.3000;0.0814;-0.9095;
1203.6000;0.0814;-0.8984;
1203.9000;0.0724;-0.9382;
1204.2000;0.0773;-0.9294;
1204.5000;0.0765;-0.9294;
1204.8000;0.0741;-0.9360;
1205.1000;0.0749;-0.9360;
1205.4000;0.0798;-0.9183;
1205.7000;0.0708;-0.9382;
1206.0000;0.0765;-0.9161;
1206.3000;0.0749;-0.9205;
1206.6000;0.0741;-0.9227;
1206.9000;0.0749;-0.9183;
1207.2000;0.0733;-0.9161;
1207.5000;0.0708;-0.9183;
1207.8000;0.0757;-0.9117;
1208.1000;0.0716;-0.9161;
1208.4000;0.0741;-0.9139;
1208.7000;0.0757;-0.9161;
1209.0000;0.0676;-0.9338;
1209.3000;0.0757;-0.9161;
1209.6000;0.0790;-0.9095;
1209.9000;0.0692;-0.9272;
1210.2000;0.0724;-0.9272;
1210.5000;0.0757;-0.9227;
1210.8000;0.0757;-0.9205;
1211.1000;0.0724;-0.9227;
1211.4000;0.0765;-0.9139;
1211.7000;0.0749;-0.9117;
1212.0000;0.0765;-0.9095;
1212.3000;0.0733;-0.9227;
1212.6000;0.0741;-0.9227;
1212.9000;0.0814;-0.9073;
1213.2000;0.0741;-0.9316;
1213.5000;0.0676;-0.9471;
1213.8000;0.0757;-0.9272;
1214.1000;0.0749;-0.9294;
1214.4000;0.0765;-0.9272;
1214.7000;0.0724;-0.9382;
1215.0000;0.0773;-0.9250;
1215.3000;0.0733;-0.9360;
1215.6000;0.0741;-0.9360;
1215.9000;0.0757;-0.9205;
1216.2000;0.0724;-0.9316;
1216.5000;0.0749;-0.9272;
1216.8000;0.0765;-0.9205;
1217.1000;0.0773;-0.9205;
1217.4000;0.0773;-0.9250;
1217.7000;0.0757;-0.9272;
1218.0000;0.0749;-0.9250;
1218.3000;0.0741;-0.9205;
1218.6000;0.0724;-0.9250;
1218.9000;0.0733;-0.9360;
1219.2000;0.0798;-0.9161;
1219.5000;0.0798;-0.9139;
1219.8000;0.0724;-0.9316;
1220.1000;0.0765;-0.9316;
1220.4000;0.0781;-0.9272;
1220.7000;0.0708;-0.9382;
1221.0000;0.0749;-0.9205;
1221.3000;0.0765;-0.9272;
1221.6000;0.0741;-0.9272;
1221.9000;0.0757;-0.9272;
1222.2000;0.0765;-0.9250;
1222.5000;0.0724;-0.9294;
1222.8000;0.0749;-0.9183;
1223.1000;0.0757;-0.9205;
1223.4000;0.0749;-0.9117;
1223.7000;0.0887;-0.8896;
1224.0000;0.0733;-0.9227;
1224.3000;0.0765;-0.9294;
1224.6000;0.0741;-0.9316;
1224.9000;0.0765;-0.9316;
1225.2000;0.0765;-0.9316;
1225.5000;0.0773;-0.9294;
1225.8000;0.0781;-0.9272;
1226.1000;0.0790;-0.9404;
1226.4000;0.0765;-0.9449;
1226.7000;0.0757;-0.9360;
1227.0000;0.0773;-0.9294;
1227.3000;0.0724;-0.9360;
1227.6000;0.0733;-0.9427;
1227.9000;0.0773;-0.9338;
1228.2000;0.0773;-0.9404;
1228.5000;0.0733;-0.9471;
1228.8000;0.0659;-0.9714;
1229.1000;0.0733;-0.9626;
1229.4000;0.0765;-0.9449;
1229.7000;0.0765;-0.9427;
1230.0000;0.0749;-0.9537;
1230.3000;0.0741;-0.9449;
1230.6000;0.0611;-0.9758;
1230.9000;0.0781;-0.9316;
1231.2000;0.0749;-0.9404;
1231.5000;0.0757;-0.9360;
1231.8000;0.0790;-0.9294;
1232.1000;0.0773;-0.9272;
1232.4000;0.0749;-0.9360;
1232.7000;0.0757;-0.9404;
1233.0000;0.0749;-0.9515;
1233.3000;0.0757;-0.9537;
1233.6000;0.0838;-0.9316;
1233.9000;0.0692;-0.9736;
1234.2000;0.0749;-0.9648;
1234.5000;0.0741;-0.9692;
1234.8000;0.0749;-0.9581;
1235.1000;0.0757;-0.9537;
1235.4000;0.0765;-0.9515;
1235.7000;0.0757;-0.9471;
1236.0000;0.0741;-0.9471;
1236.3000;0.0741;-0.9427;
1236.6000;0.0773;-0.9294;
1236.9000;0.0724;-0.9404;
1237.2000;0.0765;-0.9449;
1237.5000;0.0749;-0.9471;
1237.8000;0.0741;-0.9493;
1238.1000;0.0741;-0.9493;
1238.4000;0.0741;-0.9515;
1238.7000;0.0724;-0.9626;
1239.0000;0.0741;-0.9559;
1239.3000;0.0749;-0.9604;
1239.6000;0.0790;-0.9537;
1239.9000;0.0757;-0.9559;
1240.2000;0.0724;-0.9692;
1240.5000;0.0757;-0.9559;
1240.8000;0.0733;-0.9626;
1241.1000;0.0765;-0.9670;
1241.4000;0.0749;-0.9648;
1241.7000;0.0757;-0.9626;
1242.0000;0.0765;-0.9581;
1242.3000;0.0749;-0.9559;
1242.6000;0.0757;-0.9449;
1242.9000;0.0724;-0.9449;
1243.2000;0.0692;-0.9515;
1243.5000;0.0741;-0.9404;
1243.8000;0.0757;-0.9382;
1244.1000;0.0667;-0.9714;
1244.4000;0.0757;-0.9493;
1244.7000;0.0667;-0.9604;
1245.0000;0.0749;-0.9449;
1245.3000;0.0773;-0.9449;
1245.6000;0.0749;-0.9449;
1245.9000;0.0733;-0.9515;
1246.2000;0.0733;-0.9515;
1246.5000;0.0716;-0.9559;
1246.8000;0.0798;-0.9515;
1247.1000;0.0619;-0.9913;
1247.4000;0.0757;-0.9515;
1247.7000;0.0692;-0.9736;
1248.0000;0.0733;-0.9626;
1248.3000;0.0757;-0.9537;
1248.6000;0.0781;-0.9471;
1248.9000;0.0749;-0.9581;
1249.2000;0.0741;-0.9537;
1249.5000;0.0724;-0.9515;
1249.8000;0.0667;-0.9604;
1250.1000;0.0757;-0.9404;
1250.4000;0.0724;-0.9493;
1250.7000;0.0733;-0.9449;
1251.0000;0.0847;-0.9139;
1251.3000;0.0733;-0.9338;
1251.6000;0.0798;-0.9205;
1251.9000;0.0895;-0.8962;
1252.2000;0.0733;-0.9316;
1252.5000;0.0724;-0.9449;
1252.8000;0.0733;-0.9427;
1253.1000;0.0741;-0.9449;
1253.4000;0.0757;-0.9382;
1253.7000;0.0765;-0.9427;
1254.0000;0.0741;-0.9449;
1254.3000;0.0749;-0.9449;
1254.6000;0.0659;-0.9670;
1254.9000;0.0741;-0.9427;
1255.2000;0.0741;-0.9427;
1255.5000;0.0733;-0.9493;
1255.8000;0.0724;-0.9559;
1256.1000;0.0773;-0.9471;
1256.4000;0.0724;-0.9604;
1256.7000;0.0749;-0.9626;
1257.0000;0.0765;-0.9559;
1257.3000;0.0757;-0.9604;
1257.6000;0.0741;-0.9626;
1257.9000;0.0716;-0.9604;
1258.2000;0.0741;-0.9604;
1258.5000;0.0716;-0.9692;
1258.8000;0.0724;-0.9692;
1259.1000;0.0741;-0.9604;
1259.4000;0.0830;-0.9360;
1259.7000;0.0741;-0.9604;
1260.0000;0.0790;-0.9404;
1260.3000;0.0733;-0.9604;
1260.6000;0.0733;-0.9493;
1260.9000;0.0667;-0.9692;
1261.2000;0.0765;-0.9382;
1261.5000;0.0790;-0.9360;
1261.8000;0.0733;-0.9427;
1262.1000;0.0749;-0.9493;
1262.4000;0.0757;-0.9471;
1262.7000;0.0757;-0.9382;
1263.0000;0.0757;-0.9294;
1263.3000;0.0724;-0.9427;
1263.6000;0.0749;-0.9272;
1263.9000;0.0814;-0.9028;
1264.2000;0.0765;-0.9183;
1264.5000;0.0790;-0.9095;
1264.8000;0.0773;-0.9161;
1265.1000;0.0773;-0.9183;
1265.4000;0.0757;-0.9161;
1265.7000;0.0635;-0.9537;
1266.0000;0.0822;-0.9117;
1266.3000;0.0757;-0.9360;
1266.6000;0.0749;-0.9382;
1266.9000;0.0749;-0.9382;
1267.2000;0.0749;-0.9427;
1267.5000;0.0765;-0.9449;
1267.8000;0.0773;-0.9404;
1268.1000;0.0781;-0.9294;
1268.4000;0.0741;-0.9360;
1268.7000;0.0724;-0.9449;
1269.0000;0.0757;-0.9382;
1269.3000;0.0757;-0.9404;
1269.6000;0.0749;-0.9382;
1269.9000;0.0708;-0.9537;
1270.2000;0.0806;-0.9294;
1270.5000;0.0773;-0.9382;
1270.8000;0.0741;-0.9493;
1271.1000;0.0757;-0.9427;
1271.4000;0.0765;-0.9471;
1271.7000;0.0814;-0.9316;
1272.0000;0.0757;-0.9471;
1272.3000;0.0741;-0.9493;
1272.6000;0.0741;-0.9559;
1272.9000;0.0757;-0.9537;
1273.2000;0.0741;-0.9604;
1273.5000;0.0708;-0.9537;
1273.8000;0.0757;-0.9338;
1274.1000;0.0773;-0.9250;
1274.4000;0.0724;-0.9316;
1274.7000;0.0757;-0.9294;
1275.0000;0.0741;-0.9360;
1275.3000;0.0765;-0.9272;
1275.6000;0.0741;-0.9360;
1275.9000;0.0765;-0.9360;
1276.2000;0.0781;-0.9294;
1276.5000;0.0765;-0.9382;
1276.8000;0.0838;-0.9272;
1277.1000;0.0781;-0.9404;
1277.4000;0.0741;-0.9537;
1277.7000;0.0781;-0.9493;
1278.0000;0.0708;-0.9803;
1278.3000;0.0773;-0.9604;
1278.6000;0.0749;-0.9604;
1278.9000;0.0741;-0.9471;
1279.2000;0.0773;-0.9471;
1279.5000;0.0749;-0.9581;
1279.8000;0.0733;-0.9537;
1280.1000;0.0749;-0.9493;
1280.4000;0.0749;-0.9537;
1280.7000;0.0733;-0.9493;
1281.0000;0.0733;-0.9537;
1281.3000;0.0757;-0.9404;
1281.6000;0.0757;-0.9449;
1281.9000;0.0741;-0.9404;
1282.2000;0.0741;-0.9427;
1282.5000;0.0749;-0.9404;
1282.8000;0.0765;-0.9382;
1283.1000;0.0749;-0.9493;
1283.4000;0.0741;-0.9360;
1283.7000;0.0757;-0.9338;
1284.0000;0.0716;-0.9427;
1284.3000;0.0765;-0.9250;
1284.6000;0.0757;-0.9360;
1284.9000;0.0773;-0.9382;
1285.2000;0.0790;-0.9382;
1285.5000;0.0741;-0.9427;
1285.8000;0.0741;-0.9360;
1286.1000;0.0765;-0.9316;
1286.4000;0.0757;-0.9338;
1286.7000;0.0741;-0.9427;
1287.0000;0.0741;-0.9404;
1287.3000;0.0733;-0.9338;
1287.6000;0.0741;-0.9382;
1287.9000;0.0781;-0.9227;
1288.2000;0.0749;-0.9316;
1288.5000;0.0749;-0.9316;
1288.8000;0.0773;-0.9272;
1289.1000;0.0749;-0.9360;
1289.4000;0.0765;-0.9338;
1289.7000;0.0765;-0.9338;
1290.0000;0.0757;-0.9338;
1290.3000;0.0765;-0.9338;
1290.6000;0.0773;-0.9294;
1290.9000;0.0741;-0.9294;
1291.2000;0.0765;-0.9227;
1291.5000;0.0838;-0.9139;
1291.8000;0.0757;-0.9427;
1292.1000;0.0733;-0.9427;
1292.4000;0.0749;-0.9360;
1292.7000;0.0708;-0.9515;
1293.0000;0.0757;-0.9493;
1293.3000;0.0749;-0.9493;
1293.6000;0.0733;-0.9515;
1293.9000;0.0781;-0.9404;
1294.2000;0.0741;-0.9493;
1294.5000;0.0749;-0.9471;
1294.8000;0.0757;-0.9427;
1295.1000;0.0733;-0.9515;
1295.4000;0.0749;-0.9493;
1295.7000;0.0757;-0.9471;
1296.0000;0.0716;-0.9537;
1296.3000;0.0741;-0.9471;
1296.6000;0.0684;-0.9581;
1296.9000;0.0765;-0.9382;
1297.2000;0.0773;-0.9316;
1297.5000;0.0741;-0.9338;
1297.8000;0.0757;-0.9360;
1298.1000;0.0741;-0.9427;
1298.4000;0.0724;-0.9537;
1298.7000;0.0724;-0.9581;
1299.0000;0.0724;-0.9427;
1299.3000;0.0749;-0.9382;
1299.6000;0.0716;-0.9449;
1299.9000;0.0749;-0.9360;
1300.2000;0.0733;-0.9338;
1300.5000;0.0749;-0.9382;
1300.8000;0.0765;-0.9316;
1301.1000;0.0765;-0.9360;
1301.4000;0.0741;-0.9427;
1301.7000;0.0790;-0.9250;
1302.0000;0.0790;-0.9227;
1302.3000;0.0749;-0.9360;
1302.6000;0.0749;-0.9404;
1302.9000;0.0757;-0.9427;
1303.2000;0.0741;-0.9537;
1303.5000;0.0741;-0.9626;
1303.8000;0.0749;-0.9581;
1304.1000;0.0741;-0.9626;
1304.4000;0.0757;-0.9515;
1304.7000;0.0765;-0.9471;
1305.0000;0.0781;-0.9404;
1305.3000;0.0749;-0.9427;
1305.6000;0.0757;-0.9471;
1305.9000;0.0790;-0.9316;
1306.2000;0.0749;-0.9449;
1306.5000;0.0757;-0.9427;
1306.8000;0.0749;-0.9471;
1307.1000;0.0781;-0.9360;
1307.4000;0.0781;-0.9360;
1307.7000;0.0757;-0.9294;
1308.0000;0.0773;-0.9250;
1308.3000;0.0765;-0.9294;
1308.6000;0.0716;-0.9449;
1308.9000;0.0651;-0.9670;
1309.2000;0.0765;-0.9515;
1309.5000;0.0765;-0.9604;
1309.8000;0.0765;-0.9736;
1310.1000;0.0676;-0.9980;
1310.4000;0.0741;-0.9714;
1310.7000;0.0757;-0.9670;
1311.0000;0.0741;-0.9604;
1311.3000;0.0643;-0.9847;
1311.6000;0.0741;-0.9648;
1311.9000;0.0765;-0.9559;
1312.2000;0.0586;-0.9958;
1312.5000;0.0724;-0.9581;
1312.8000;0.0741;-0.9427;
1313.1000;0.0773;-0.9294;
1313.4000;0.0757;-0.9427;
1313.7000;0.0757;-0.9559;
1314.0000;0.0741;-0.9626;
1314.3000;0.0749;-0.9626;
1314.6000;0.0757;-0.9604;
1314.9000;0.0806;-0.9471;
1315.2000;0.0757;-0.9626;
1315.5000;0.0749;-0.9692;
1315.8000;0.0765;-0.9670;
1316.1000;0.0765;-0.9670;
1316.4000;0.0757;-0.9604;
1316.7000;0.0741;-0.9626;
1317.0000;0.0741;-0.9648;
1317.3000;0.0757;-0.9648;
1317.6000;0.0765;-0.9670;
1317.9000;0.0676;-0.9847;
1318.2000;0.0741;-0.9648;
1318.5000;0.0741;-0.9581;
1318.8000;0.0765;-0.9515;
1319.1000;0.0749;-0.9559;
1319.4000;0.0757;-0.9471;
1319.7000;0.0757;-0.9493;
1320.0000;0.0749;-0.9537;
1320.3000;0.0749;-0.9559;
1320.6000;0.0757;-0.9581;
1320.9000;0.0773;-0.9537;
1321.2000;0.0757;-0.9604;
1321.5000;0.0749;-0.9537;
1321.8000;0.0741;-0.9515;
1322.1000;0.0765;-0.9515;
1322.4000;0.0757;-0.9559;
1322.7000;0.0904;-0.9073;
1323.0000;0.0814;-0.9272;
1323.3000;0.0790;-0.9294;
1323.6000;0.0716;-0.9493;
1323.9000;0.0651;-0.9714;
1324.2000;0.0733;-0.9604;
1324.5000;0.0749;-0.9559;
1324.8000;0.0667;-0.9714;
1325.1000;0.0749;-0.9471;
1325.4000;0.0757;-0.9471;
1325.7000;0.0741;-0.9404;
1326.0000;0.0741;-0.9471;
1326.3000;0.0749;-0.9338;
1326.6000;0.0749;-0.9404;
1326.9000;0.0765;-0.9382;
1327.2000;0.0765;-0.9360;
1327.5000;0.0757;-0.9382;
1327.8000;0.0724;-0.9493;
1328.1000;0.0733;-0.9581;
1328.4000;0.0765;-0.9471;
1328.7000;0.0749;-0.9382;
1329.0000;0.0773;-0.9250;
1329.3000;0.0741;-0.9338;
1329.6000;0.0692;-0.9449;
1329.9000;0.0749;-0.9338;
1330.2000;0.0749;-0.9250;
1330.5000;0.0765;-0.9227;
1330.8000;0.0741;-0.9205;
1331.1000;0.0863;-0.8940;
1331.4000;0.0627;-0.9537;
1331.7000;0.0627;-0.9581;
1332.0000;0.0724;-0.9294;
1332.3000;0.0863;-0.9006;
1332.6000;0.0757;-0.9272;
1332.9000;0.0749;-0.9183;
1333.2000;0.0741;-0.9294;
1333.5000;0.0724;-0.9250;
1333.8000;0.0773;-0.9095;
1334.1000;0.0700;-0.9338;
1334.4000;0.0847;-0.9073;
1334.7000;0.0733;-0.9382;
1335.0000;0.0765;-0.9338;
1335.3000;0.0700;-0.9471;
1335.6000;0.0765;-0.9360;
1335.9000;0.0741;-0.9382;
1336.2000;0.0838;-0.9205;
1336.5000;0.0716;-0.9515;
1336.8000;0.0781;-0.9360;
1337.1000;0.0757;-0.9493;
1337.4000;0.0806;-0.9404;
1337.7000;0.0749;-0.9604;
1338.0000;0.0667;-0.9736;
1338.3000;0.0765;-0.9493;
1338.6000;0.0749;-0.9427;
1338.9000;0.0741;-0.9404;
1339.2000;0.0749;-0.9360;
1339.5000;0.0765;-0.9360;
1339.8000;0.0741;-0.9471;
1340.1000;0.0847;-0.9294;
1340.4000;0.0757;-0.9449;
1340.7000;0.0757;-0.9382;
1341.0000;0.0594;-0.9692;
1341.3000;0.0741;-0.9360;
1341.6000;0.0741;-0.9449;
1341.9000;0.0765;-0.9427;
1342.2000;0.0749;-0.9471;
1342.5000;0.0912;-0.9050;
1342.8000;0.0765;-0.9449;
1343.1000;0.0724;-0.9559;
1343.4000;0.0879;-0.9161;
1343.7000;0.0765;-0.9382;
1344.0000;0.0724;-0.9493;
1344.3000;0.0716;-0.9537;
1344.6000;0.0765;-0.9449;
1344.9000;0.0757;-0.9338;
1345.2000;0.0749;-0.9382;
1345.5000;0.0749;-0.9471;
1345.8000;0.0757;-0.9427;
1346.1000;0.0773;-0.9338;
1346.4000;0.0716;-0.9471;
1346.7000;0.0830;-0.9250;
1347.0000;0.0733;-0.9581;
1347.3000;0.0724;-0.9604;
1347.6000;0.0798;-0.9404;
1347.9000;0.0741;-0.9449;
1348.2000;0.0724;-0.9493;
1348.5000;0.0757;-0.9382;
1348.8000;0.0798;-0.9272;
1349.1000;0.0741;-0.9360;
1349.4000;0.0749;-0.9449;
1349.7000;0.0741;-0.9404;
1350.0000;0.0749;-0.9360;
1350.3000;0.0814;-0.9250;
1350.6000;0.0692;-0.9515;
1350.9000;0.0749;-0.9404;
1351.2000;0.0773;-0.9449;
1351.5000;0.0757;-0.9493;
1351.8000;0.0773;-0.9471;
1352.1000;0.0773;-0.9382;
1352.4000;0.0749;-0.9382;
1352.7000;0.0749;-0.9382;
1353.0000;0.0806;-0.9360;
1353.3000;0.0757;-0.9537;
1353.6000;0.0757;-0.9581;
1353.9000;0.0749;-0.9692;
1354.2000;0.0741;-0.9692;
1354.5000;0.0749;-0.9670;
1354.8000;0.0741;-0.9692;
1355.1000;0.0765;-0.9692;
1355.4000;0.0814;-0.9581;
1355.7000;0.0773;-0.9648;
1356.0000;0.0749;-0.9648;
1356.3000;0.0708;-0.9670;
1356.6000;0.0838;-0.9272;
1356.9000;0.0773;-0.9316;
1357.2000;0.0741;-0.9360;
1357.5000;0.0716;-0.9338;
1357.8000;0.0733;-0.9360;
1358.1000;0.0757;-0.9250;
1358.4000;0.0676;-0.9581;
1358.7000;0.0733;-0.9382;
1359.0000;0.0741;-0.9427;
1359.3000;0.0749;-0.9382;
1359.6000;0.0733;-0.9449;
1359.9000;0.0741;-0.9449;
1360.2000;0.0790;-0.9316;
1360.5000;0.0781;-0.9316;
1360.8000;0.0733;-0.9382;
1361.1000;0.0651;-0.9537;
1361.4000;0.0749;-0.9227;
1361.7000;0.0741;-0.9250;
1362.0000;0.0773;-0.9227;
1362.3000;0.0773;-0.9183;
1362.6000;0.0733;-0.9294;
1362.9000;0.0741;-0.9250;
1363.2000;0.0700;-0.9272;
1363.5000;0.0749;-0.9117;
1363.8000;0.0765;-0.9095;
1364.1000;0.0765;-0.9117;
1364.4000;0.0749;-0.9183;
1364.7000;0.0847;-0.8962;
1365.0000;0.0773;-0.9073;
1365.3000;0.0741;-0.9117;
1365.6000;0.0781;-0.8984;
1365.9000;0.0781;-0.8984;
1366.2000;0.0765;-0.9117;
1366.5000;0.0692;-0.9205;
1366.8000;0.0741;-0.9139;
1367.1000;0.0724;-0.9183;
1367.4000;0.0749;-0.9139;
1367.7000;0.0700;-0.9338;
1368.0000;0.0716;-0.9360;
1368.3000;0.0716;-0.9338;
1368.6000;0.0724;-0.9250;
1368.9000;0.0684;-0.9338;
1369.2000;0.0757;-0.9139;
1369.5000;0.0781;-0.9028;
1369.8000;0.0749;-0.9139;
1370.1000;0.0724;-0.9250;
1370.4000;0.0749;-0.9205;
1370.7000;0.0741;-0.9227;
1371.0000;0.0700;-0.9404;
1371.3000;0.0724;-0.9360;
1371.6000;0.0773;-0.9227;
1371.9000;0.0749;-0.9272;
1372.2000;0.0773;-0.9250;
1372.5000;0.0708;-0.9338;
1372.8000;0.0724;-0.9316;
1373.1000;0.0749;-0.9117;
1373.4000;0.0708;-0.9250;
1373.7000;0.0724;-0.9205;
1374.0000;0.0757;-0.9095;
1374.3000;0.0749;-0.9073;
1374.6000;0.0757;-0.9028;
1374.9000;0.0749;-0.8962;
1375.2000;0.0749;-0.8962;
1375.5000;0.0757;-0.8984;
1375.8000;0.0757;-0.9095;
1376.1000;0.0749;-0.9095;
1376.4000;0.0741;-0.9117;
1376.7000;0.0847;-0.8785;
1377.0000;0.0773;-0.9028;
1377.3000;0.0757;-0.9117;
1377.6000;0.0757;-0.9161;
1377.9000;0.0781;-0.9139;
1378.2000;0.0757;-0.9183;
1378.5000;0.0733;-0.9205;
1378.8000;0.0741;-0.9183;
1379.1000;0.0757;-0.9205;
1379.4000;0.0749;-0.9161;
1379.7000;0.0765;-0.9183;
1380.0000;0.0749;-0.9205;
1380.3000;0.0757;-0.9227;
1380.6000;0.0773;-0.9161;
1380.9000;0.0757;-0.9205;
1381.2000;0.0749;-0.9250;
1381.5000;0.0733;-0.9250;
1381.8000;0.0773;-0.9161;
1382.1000;0.0757;-0.9161;
1382.4000;0.0651;-0.9449;
1382.7000;0.0635;-0.9404;
1383.0000;0.0749;-0.9139;
1383.3000;0.0757;-0.9139;
1383.6000;0.0765;-0.9161;
1383.9000;0.0757;-0.9161;
1384.2000;0.0749;-0.9139;
1384.5000;0.0757;-0.9161;
1384.8000;0.0700;-0.9382;
1385.1000;0.0765;-0.9205;
1385.4000;0.0741;-0.9205;
1385.7000;0.0765;-0.9095;
1386.0000;0.0749;-0.9250;
1386.3000;0.0765;-0.9205;
1386.6000;0.0724;-0.9294;
1386.9000;0.0724;-0.9183;
1387.2000;0.0765;-0.9095;
1387.5000;0.0749;-0.9117;
1387.8000;0.0684;-0.9272;
1388.1000;0.0773;-0.9250;
1388.4000;0.0781;-0.9250;
1388.7000;0.0814;-0.9139;
1389.0000;0.0814;-0.9028;
1389.3000;0.0749;-0.9161;
1389.6000;0.0757;-0.9028;
1389.9000;0.0749;-0.9028;
1390.2000;0.0749;-0.9006;
1390.5000;0.0757;-0.9095;
1390.8000;0.0684;-0.9272;
1391.1000;0.0765;-0.9073;
1391.4000;0.0757;-0.9117;
1391.7000;0.0741;-0.9205;
1392.0000;0.0765;-0.9161;
1392.3000;0.0871;-0.8896;
1392.6000;0.0676;-0.9294;
1392.9000;0.0765;-0.9073;
1393.2000;0.0757;-0.9050;
1393.5000;0.0692;-0.9139;
1393.8000;0.0749;-0.9028;
1394.1000;0.0757;-0.8940;
1394.4000;0.0790;-0.8896;
1394.7000;0.0708;-0.9050;
1395.0000;0.0733;-0.9028;
1395.3000;0.0733;-0.9073;
1395.6000;0.0765;-0.9050;
1395.9000;0.0847;-0.8896;
1396.2000;0.0749;-0.9006;
1396.5000;0.0790;-0.8940;
1396.8000;0.0806;-0.8785;
1397.1000;0.0757;-0.8918;
1397.4000;0.0692;-0.9139;
1397.7000;0.0765;-0.8984;
1398.0000;0.0822;-0.8873;
1398.3000;0.0757;-0.9006;
1398.6000;0.0749;-0.9095;
1398.9000;0.0765;-0.9095;
1399.2000;0.0765;-0.9161;
1399.5000;0.0757;-0.9183;
1399.8000;0.0757;-0.9139;
