time/ms;Fluo/V;P700 deltaI/I x10³;
-199.8000;0.0798;-0.8187;
-199.5000;0.0724;-0.8409;
-199.2000;0.0765;-0.8364;
-198.9000;0.0757;-0.8364;
-198.6000;0.0749;-0.8364;
-198.3000;0.0741;-0.8431;
-198.0000;0.0773;-0.8342;
-197.7000;0.0708;-0.8519;
-197.4000;0.0838;-0.8232;
-197.1000;0.0749;-0.8519;
-196.8000;0.0749;-0.8541;
-196.5000;0.0716;-0.8541;
-196.2000;0.0733;-0.8541;
-195.9000;0.0757;-0.8453;
-195.6000;0.0684;-0.8564;
-195.3000;0.0741;-0.8431;
-195.0000;0.0757;-0.8431;
-194.7000;0.0741;-0.8409;
-194.4000;0.0716;-0.8497;
-194.1000;0.0733;-0.8453;
-193.8000;0.0749;-0.8364;
-193.5000;0.0741;-0.8387;
-193.2000;0.0741;-0.8342;
-192.9000;0.0773;-0.8254;
-192.6000;0.0667;-0.8453;
-192.3000;0.0757;-0.8298;
-192.0000;0.0741;-0.8342;
-191.7000;0.0733;-0.8320;
-191.4000;0.0741;-0.8254;
-191.1000;0.0733;-0.8298;
-190.8000;0.0757;-0.8254;
-190.5000;0.0798;-0.8165;
-190.2000;0.0716;-0.8364;
-189.9000;0.0700;-0.8431;
-189.6000;0.0741;-0.8342;
-189.3000;0.0692;-0.8431;
-189.0000;0.0741;-0.8342;
-188.7000;0.0724;-0.8342;
-188.4000;0.0781;-0.8254;
-188.1000;0.0757;-0.8387;
-187.8000;0.0700;-0.8519;
-187.5000;0.0749;-0.8387;
-187.2000;0.0749;-0.8497;
-186.9000;0.0757;-0.8431;
-186.6000;0.0733;-0.8475;
-186.3000;0.0838;-0.8276;
-186.0000;0.0806;-0.8320;
-185.7000;0.0765;-0.8298;
-185.4000;0.0724;-0.8298;
-185.1000;0.0724;-0.8342;
-184.8000;0.0700;-0.8387;
-184.5000;0.0733;-0.8276;
-184.2000;0.0733;-0.8409;
-183.9000;0.0749;-0.8475;
-183.6000;0.0741;-0.8431;
-183.3000;0.0733;-0.8364;
-183.0000;0.0749;-0.8298;
-182.7000;0.0741;-0.8431;
-182.4000;0.0741;-0.8431;
-182.1000;0.0741;-0.8364;
-181.8000;0.0765;-0.8364;
-181.5000;0.0741;-0.8409;
-181.2000;0.0741;-0.8453;
-180.9000;0.0741;-0.8342;
-180.6000;0.0749;-0.8254;
-180.3000;0.0724;-0.8364;
-180.0000;0.0733;-0.8409;
-179.7000;0.0741;-0.8342;
-179.4000;0.0741;-0.8320;
-179.1000;0.0781;-0.8210;
-178.8000;0.0765;-0.8320;
-178.5000;0.0749;-0.8320;
-178.2000;0.0749;-0.8364;
-177.9000;0.0741;-0.8276;
-177.6000;0.0765;-0.8232;
-177.3000;0.0765;-0.8298;
-177.0000;0.0773;-0.8320;
-176.7000;0.0749;-0.8342;
-176.4000;0.0741;-0.8320;
-176.1000;0.0749;-0.8342;
-175.8000;0.0749;-0.8387;
-175.5000;0.0733;-0.8431;
-175.2000;0.0741;-0.8431;
-174.9000;0.0749;-0.8387;
-174.6000;0.0749;-0.8320;
-174.3000;0.0757;-0.8298;
-174.0000;0.0773;-0.8387;
-173.7000;0.0757;-0.8431;
-173.4000;0.0749;-0.8409;
-173.1000;0.0822;-0.8342;
-172.8000;0.0765;-0.8453;
-172.5000;0.0765;-0.8475;
-172.2000;0.0733;-0.8608;
-171.9000;0.0733;-0.8608;
-171.6000;0.0765;-0.8453;
-171.3000;0.0741;-0.8541;
-171.0000;0.0692;-0.8674;
-170.7000;0.0741;-0.8541;
-170.4000;0.0716;-0.8564;
-170.1000;0.0757;-0.8475;
-169.8000;0.0733;-0.8475;
-169.5000;0.0749;-0.8342;
-169.2000;0.0724;-0.8409;
-168.9000;0.0798;-0.8232;
-168.6000;0.0733;-0.8431;
-168.3000;0.0741;-0.8387;
-168.0000;0.0741;-0.8409;
-167.7000;0.0741;-0.8431;
-167.4000;0.0765;-0.8387;
-167.1000;0.0724;-0.8431;
-166.8000;0.0733;-0.8320;
-166.5000;0.0724;-0.8364;
-166.2000;0.0847;-0.8077;
-165.9000;0.0716;-0.8409;
-165.6000;0.0749;-0.8409;
-165.3000;0.0733;-0.8497;
-165.0000;0.0659;-0.8674;
-164.7000;0.0781;-0.8387;
-164.4000;0.0781;-0.8342;
-164.1000;0.0724;-0.8409;
-163.8000;0.0749;-0.8364;
-163.5000;0.0741;-0.8453;
-163.2000;0.0667;-0.8586;
-162.9000;0.0749;-0.8387;
-162.6000;0.0741;-0.8431;
-162.3000;0.0749;-0.8431;
-162.0000;0.0749;-0.8431;
-161.7000;0.0741;-0.8497;
-161.4000;0.0724;-0.8564;
-161.1000;0.0724;-0.8519;
-160.8000;0.0741;-0.8475;
-160.5000;0.0790;-0.8364;
-160.2000;0.0749;-0.8431;
-159.9000;0.0741;-0.8342;
-159.6000;0.0749;-0.8298;
-159.3000;0.0741;-0.8298;
-159.0000;0.0765;-0.8254;
-158.7000;0.0757;-0.8276;
-158.4000;0.0757;-0.8232;
-158.1000;0.0733;-0.8298;
-157.8000;0.0798;-0.8210;
-157.5000;0.0741;-0.8409;
-157.2000;0.0741;-0.8431;
-156.9000;0.0741;-0.8453;
-156.6000;0.0733;-0.8541;
-156.3000;0.0749;-0.8608;
-156.0000;0.0790;-0.8497;
-155.7000;0.0741;-0.8586;
-155.4000;0.0716;-0.8608;
-155.1000;0.0684;-0.8608;
-154.8000;0.0733;-0.8564;
-154.5000;0.0749;-0.8475;
-154.2000;0.0773;-0.8453;
-153.9000;0.0741;-0.8541;
-153.6000;0.0733;-0.8608;
-153.3000;0.0757;-0.8475;
-153.0000;0.0749;-0.8564;
-152.7000;0.0741;-0.8497;
-152.4000;0.0749;-0.8453;
-152.1000;0.0757;-0.8409;
-151.8000;0.0790;-0.8342;
-151.5000;0.0749;-0.8453;
-151.2000;0.0733;-0.8519;
-150.9000;0.0749;-0.8453;
-150.6000;0.0806;-0.8320;
-150.3000;0.0741;-0.8409;
-150.0000;0.0733;-0.8497;
-149.7000;0.0741;-0.8453;
-149.4000;0.0749;-0.8453;
-149.1000;0.0749;-0.8342;
-148.8000;0.0749;-0.8475;
-148.5000;0.0733;-0.8541;
-148.2000;0.0741;-0.8519;
-147.9000;0.0741;-0.8564;
-147.6000;0.0773;-0.8519;
-147.3000;0.0716;-0.8652;
-147.0000;0.0790;-0.8475;
-146.7000;0.0773;-0.8541;
-146.4000;0.0749;-0.8519;
-146.1000;0.0708;-0.8453;
-145.8000;0.0716;-0.8453;
-145.5000;0.0806;-0.8210;
-145.2000;0.0733;-0.8387;
-144.9000;0.0724;-0.8409;
-144.6000;0.0855;-0.8121;
-144.3000;0.0749;-0.8364;
-144.0000;0.0757;-0.8364;
-143.7000;0.0741;-0.8364;
-143.4000;0.0741;-0.8320;
-143.1000;0.0757;-0.8320;
-142.8000;0.0741;-0.8364;
-142.5000;0.0749;-0.8342;
-142.2000;0.0749;-0.8387;
-141.9000;0.0724;-0.8364;
-141.6000;0.0733;-0.8298;
-141.3000;0.0741;-0.8276;
-141.0000;0.0749;-0.8210;
-140.7000;0.0700;-0.8232;
-140.4000;0.0757;-0.8077;
-140.1000;0.0708;-0.8232;
-139.8000;0.0798;-0.7966;
-139.5000;0.0667;-0.8364;
-139.2000;0.0798;-0.8055;
-138.9000;0.0741;-0.8143;
-138.6000;0.0749;-0.8165;
-138.3000;0.0798;-0.8055;
-138.0000;0.0724;-0.8232;
-137.7000;0.0741;-0.8254;
-137.4000;0.0741;-0.8210;
-137.1000;0.0863;-0.7988;
-136.8000;0.0871;-0.8077;
-136.5000;0.0773;-0.8210;
-136.2000;0.0700;-0.8453;
-135.9000;0.0724;-0.8320;
-135.6000;0.0781;-0.8165;
-135.3000;0.0830;-0.8077;
-135.0000;0.0733;-0.8320;
-134.7000;0.0765;-0.8342;
-134.4000;0.0822;-0.8143;
-134.1000;0.0733;-0.8298;
-133.8000;0.0741;-0.8298;
-133.5000;0.0733;-0.8320;
-133.2000;0.0757;-0.8254;
-132.9000;0.0708;-0.8320;
-132.6000;0.0765;-0.8165;
-132.3000;0.0741;-0.8276;
-132.0000;0.0724;-0.8409;
-131.7000;0.0741;-0.8387;
-131.4000;0.0781;-0.8342;
-131.1000;0.0765;-0.8431;
-130.8000;0.0798;-0.8387;
-130.5000;0.0724;-0.8541;
-130.2000;0.0733;-0.8431;
-129.9000;0.0733;-0.8364;
-129.6000;0.0700;-0.8387;
-129.3000;0.0733;-0.8409;
-129.0000;0.0733;-0.8475;
-128.7000;0.0676;-0.8541;
-128.4000;0.0724;-0.8497;
-128.1000;0.0708;-0.8453;
-127.8000;0.0765;-0.8364;
-127.5000;0.0757;-0.8364;
-127.2000;0.0749;-0.8298;
-126.9000;0.0741;-0.8409;
-126.6000;0.0716;-0.8453;
-126.3000;0.0765;-0.8364;
-126.0000;0.0757;-0.8431;
-125.7000;0.0757;-0.8431;
-125.4000;0.0765;-0.8409;
-125.1000;0.0708;-0.8431;
-124.8000;0.0741;-0.8320;
-124.5000;0.0733;-0.8298;
-124.2000;0.0733;-0.8298;
-123.9000;0.0733;-0.8187;
-123.6000;0.0733;-0.8121;
-123.3000;0.0749;-0.8099;
-123.0000;0.0741;-0.8165;
-122.7000;0.0716;-0.8254;
-122.4000;0.0741;-0.8187;
-122.1000;0.0765;-0.8099;
-121.8000;0.0724;-0.8232;
-121.5000;0.0733;-0.8276;
-121.2000;0.0676;-0.8387;
-120.9000;0.0733;-0.8320;
-120.6000;0.0741;-0.8298;
-120.3000;0.0741;-0.8342;
-120.0000;0.0749;-0.8364;
-119.7000;0.0635;-0.8652;
-119.4000;0.0700;-0.8564;
-119.1000;0.0724;-0.8519;
-118.8000;0.0741;-0.8541;
-118.5000;0.0773;-0.8387;
-118.2000;0.0716;-0.8453;
-117.9000;0.0724;-0.8431;
-117.6000;0.0741;-0.8409;
-117.3000;0.0749;-0.8431;
-117.0000;0.0741;-0.8409;
-116.7000;0.0741;-0.8453;
-116.4000;0.0749;-0.8431;
-116.1000;0.0684;-0.8608;
-115.8000;0.0733;-0.8364;
-115.5000;0.0733;-0.8342;
-115.2000;0.0733;-0.8254;
-114.9000;0.0749;-0.8165;
-114.6000;0.0781;-0.8143;
-114.3000;0.0765;-0.8232;
-114.0000;0.0741;-0.8431;
-113.7000;0.0741;-0.8409;
-113.4000;0.0741;-0.8387;
-113.1000;0.0741;-0.8431;
-112.8000;0.0724;-0.8497;
-112.5000;0.0708;-0.8541;
-112.2000;0.0765;-0.8431;
-111.9000;0.0814;-0.8276;
-111.6000;0.0659;-0.8652;
-111.3000;0.0773;-0.8387;
-111.0000;0.0757;-0.8497;
-110.7000;0.0733;-0.8519;
-110.4000;0.0700;-0.8652;
-110.1000;0.0773;-0.8475;
-109.8000;0.0757;-0.8409;
-109.5000;0.0700;-0.8475;
-109.2000;0.0798;-0.8254;
-108.9000;0.0822;-0.8254;
-108.6000;0.0765;-0.8364;
-108.3000;0.0733;-0.8519;
-108.0000;0.0749;-0.8475;
-107.7000;0.0773;-0.8342;
-107.4000;0.0724;-0.8431;
-107.1000;0.0765;-0.8320;
-106.8000;0.0716;-0.8519;
-106.5000;0.0741;-0.8586;
-106.2000;0.0822;-0.8409;
-105.9000;0.0749;-0.8564;
-105.6000;0.0765;-0.8497;
-105.3000;0.0716;-0.8541;
-105.0000;0.0838;-0.8254;
-104.7000;0.0692;-0.8586;
-104.4000;0.0757;-0.8254;
-104.1000;0.0749;-0.8232;
-103.8000;0.0733;-0.8298;
-103.5000;0.0765;-0.8364;
-103.2000;0.0749;-0.8409;
-102.9000;0.0749;-0.8497;
-102.6000;0.0741;-0.8564;
-102.3000;0.0741;-0.8541;
-102.0000;0.0667;-0.8652;
-101.7000;0.0749;-0.8475;
-101.4000;0.0741;-0.8409;
-101.1000;0.0741;-0.8431;
-100.8000;0.0765;-0.8342;
-100.5000;0.0814;-0.8210;
-100.2000;0.0708;-0.8453;
-99.9000;0.0781;-0.8342;
-99.6000;0.0895;-0.8077;
-99.3000;0.0741;-0.8409;
-99.0000;0.0733;-0.8409;
-98.7000;0.0741;-0.8409;
-98.4000;0.0733;-0.8387;
-98.1000;0.0733;-0.8387;
-97.8000;0.0749;-0.8431;
-97.5000;0.0765;-0.8364;
-97.2000;0.0594;-0.8741;
-96.9000;0.0733;-0.8453;
-96.6000;0.0757;-0.8387;
-96.3000;0.0855;-0.8187;
-96.0000;0.0773;-0.8298;
-95.7000;0.0749;-0.8320;
-95.4000;0.0757;-0.8210;
-95.1000;0.0708;-0.8409;
-94.8000;0.0692;-0.8453;
-94.5000;0.0741;-0.8453;
-94.2000;0.0847;-0.8232;
-93.9000;0.0741;-0.8497;
-93.6000;0.0651;-0.8696;
-93.3000;0.0724;-0.8409;
-93.0000;0.0733;-0.8364;
-92.7000;0.0692;-0.8475;
-92.4000;0.0757;-0.8298;
-92.1000;0.0798;-0.8342;
-91.8000;0.0830;-0.8276;
-91.5000;0.0716;-0.8519;
-91.2000;0.0741;-0.8497;
-90.9000;0.0659;-0.8741;
-90.6000;0.0773;-0.8453;
-90.3000;0.0757;-0.8586;
-90.0000;0.0749;-0.8586;
-89.7000;0.0757;-0.8564;
-89.4000;0.0749;-0.8519;
-89.1000;0.0757;-0.8497;
-88.8000;0.0708;-0.8519;
-88.5000;0.0765;-0.8342;
-88.2000;0.0757;-0.8298;
-87.9000;0.0741;-0.8342;
-87.6000;0.0741;-0.8276;
-87.3000;0.0765;-0.8210;
-87.0000;0.0749;-0.8254;
-86.7000;0.0749;-0.8232;
-86.4000;0.0651;-0.8409;
-86.1000;0.0724;-0.8232;
-85.8000;0.0741;-0.8210;
-85.5000;0.0757;-0.8254;
-85.2000;0.0757;-0.8320;
-84.9000;0.0724;-0.8409;
-84.6000;0.0708;-0.8409;
-84.3000;0.0733;-0.8342;
-84.0000;0.0814;-0.8254;
-83.7000;0.0724;-0.8475;
-83.4000;0.0749;-0.8409;
-83.1000;0.0741;-0.8475;
-82.8000;0.0733;-0.8409;
-82.5000;0.0708;-0.8409;
-82.2000;0.0757;-0.8409;
-81.9000;0.0773;-0.8387;
-81.6000;0.0741;-0.8475;
-81.3000;0.0733;-0.8497;
-81.0000;0.0741;-0.8453;
-80.7000;0.0741;-0.8320;
-80.4000;0.0765;-0.8298;
-80.1000;0.0765;-0.8298;
-79.8000;0.0667;-0.8564;
-79.5000;0.0749;-0.8409;
-79.2000;0.0757;-0.8409;
-78.9000;0.0733;-0.8431;
-78.6000;0.0602;-0.8696;
-78.3000;0.0716;-0.8475;
-78.0000;0.0798;-0.8320;
-77.7000;0.0708;-0.8541;
-77.4000;0.0765;-0.8453;
-77.1000;0.0716;-0.8586;
-76.8000;0.0749;-0.8475;
-76.5000;0.0684;-0.8785;
-76.2000;0.0716;-0.8696;
-75.9000;0.0733;-0.8696;
-75.6000;0.0847;-0.8364;
-75.3000;0.0757;-0.8652;
-75.0000;0.0773;-0.8564;
-74.7000;0.0765;-0.8586;
-74.4000;0.0651;-0.8807;
-74.1000;0.0692;-0.8741;
-73.8000;0.0733;-0.8652;
-73.5000;0.0724;-0.8608;
-73.2000;0.0741;-0.8497;
-72.9000;0.0757;-0.8453;
-72.6000;0.0741;-0.8497;
-72.3000;0.0676;-0.8652;
-72.0000;0.0733;-0.8475;
-71.7000;0.0806;-0.8409;
-71.4000;0.0749;-0.8541;
-71.1000;0.0684;-0.8586;
-70.8000;0.0684;-0.8586;
-70.5000;0.0741;-0.8541;
-70.2000;0.0757;-0.8519;
-69.9000;0.0749;-0.8497;
-69.6000;0.0741;-0.8409;
-69.3000;0.0733;-0.8298;
-69.0000;0.0765;-0.8254;
-68.7000;0.0724;-0.8519;
-68.4000;0.0741;-0.8475;
-68.1000;0.0659;-0.8674;
-67.8000;0.0741;-0.8453;
-67.5000;0.0765;-0.8409;
-67.2000;0.0741;-0.8453;
-66.9000;0.0757;-0.8475;
-66.6000;0.0741;-0.8497;
-66.3000;0.0757;-0.8453;
-66.0000;0.0733;-0.8564;
-65.7000;0.0741;-0.8475;
-65.4000;0.0765;-0.8364;
-65.1000;0.0757;-0.8342;
-64.8000;0.0741;-0.8409;
-64.5000;0.0765;-0.8387;
-64.2000;0.0741;-0.8475;
-63.9000;0.0733;-0.8475;
-63.6000;0.0733;-0.8564;
-63.3000;0.0741;-0.8497;
-63.0000;0.0716;-0.8564;
-62.7000;0.0749;-0.8541;
-62.4000;0.0765;-0.8475;
-62.1000;0.0749;-0.8519;
-61.8000;0.0741;-0.8564;
-61.5000;0.0741;-0.8519;
-61.2000;0.0765;-0.8453;
-60.9000;0.0724;-0.8586;
-60.6000;0.0716;-0.8541;
-60.3000;0.0724;-0.8453;
-60.0000;0.0765;-0.8298;
-59.7000;0.0741;-0.8276;
-59.4000;0.0733;-0.8276;
-59.1000;0.0806;-0.8077;
-58.8000;0.0716;-0.8276;
-58.5000;0.0749;-0.8187;
-58.2000;0.0708;-0.8342;
-57.9000;0.0749;-0.8165;
-57.6000;0.0733;-0.8210;
-57.3000;0.0733;-0.8210;
-57.0000;0.0676;-0.8342;
-56.7000;0.0757;-0.8165;
-56.4000;0.0724;-0.8187;
-56.1000;0.0757;-0.8143;
-55.8000;0.0733;-0.8210;
-55.5000;0.0749;-0.8254;
-55.2000;0.0765;-0.8254;
-54.9000;0.0814;-0.8210;
-54.6000;0.0724;-0.8342;
-54.3000;0.0724;-0.8387;
-54.0000;0.0733;-0.8431;
-53.7000;0.0765;-0.8342;
-53.4000;0.0724;-0.8364;
-53.1000;0.0741;-0.8276;
-52.8000;0.0749;-0.8342;
-52.5000;0.0749;-0.8254;
-52.2000;0.0757;-0.8254;
-51.9000;0.0749;-0.8298;
-51.6000;0.0765;-0.8298;
-51.3000;0.0741;-0.8298;
-51.0000;0.0765;-0.8210;
-50.7000;0.0700;-0.8387;
-50.4000;0.0765;-0.8298;
-50.1000;0.0749;-0.8320;
-49.8000;0.0741;-0.8364;
-49.5000;0.0676;-0.8519;
-49.2000;0.0757;-0.8519;
-48.9000;0.0757;-0.8519;
-48.6000;0.0830;-0.8342;
-48.3000;0.0757;-0.8564;
-48.0000;0.0724;-0.8630;
-47.7000;0.0676;-0.8807;
-47.4000;0.0773;-0.8475;
-47.1000;0.0749;-0.8497;
-46.8000;0.0700;-0.8674;
-46.5000;0.0733;-0.8630;
-46.2000;0.0749;-0.8431;
-45.9000;0.0749;-0.8342;
-45.6000;0.0724;-0.8364;
-45.3000;0.0757;-0.8298;
-45.0000;0.0765;-0.8298;
-44.7000;0.0708;-0.8453;
-44.4000;0.0724;-0.8453;
-44.1000;0.0724;-0.8497;
-43.8000;0.0676;-0.8608;
-43.5000;0.0765;-0.8409;
-43.2000;0.0757;-0.8453;
-42.9000;0.0749;-0.8497;
-42.6000;0.0724;-0.8497;
-42.3000;0.0733;-0.8564;
-42.0000;0.0708;-0.8497;
-41.7000;0.0765;-0.8387;
-41.4000;0.0741;-0.8387;
-41.1000;0.0724;-0.8387;
-40.8000;0.0749;-0.8298;
-40.5000;0.0716;-0.8364;
-40.2000;0.0716;-0.8364;
-39.9000;0.0773;-0.8232;
-39.6000;0.0724;-0.8232;
-39.3000;0.0757;-0.8143;
-39.0000;0.0724;-0.8298;
-38.7000;0.0741;-0.8276;
-38.4000;0.0724;-0.8387;
-38.1000;0.0635;-0.8586;
-37.8000;0.0790;-0.8276;
-37.5000;0.0765;-0.8342;
-37.2000;0.0765;-0.8364;
-36.9000;0.0757;-0.8364;
-36.6000;0.0733;-0.8342;
-36.3000;0.0741;-0.8254;
-36.0000;0.0741;-0.8276;
-35.7000;0.0708;-0.8409;
-35.4000;0.0733;-0.8431;
-35.1000;0.0749;-0.8409;
-34.8000;0.0716;-0.8431;
-34.5000;0.0757;-0.8298;
-34.2000;0.0716;-0.8342;
-33.9000;0.0733;-0.8364;
-33.6000;0.0773;-0.8254;
-33.3000;0.0757;-0.8254;
-33.0000;0.0741;-0.8254;
-32.7000;0.0822;-0.8099;
-32.4000;0.0749;-0.8276;
-32.1000;0.0733;-0.8342;
-31.8000;0.0733;-0.8387;
-31.5000;0.0741;-0.8475;
-31.2000;0.0749;-0.8409;
-30.9000;0.0749;-0.8364;
-30.6000;0.0741;-0.8431;
-30.3000;0.0733;-0.8364;
-30.0000;0.0765;-0.8276;
-29.7000;0.0741;-0.8276;
-29.4000;0.0733;-0.8210;
-29.1000;0.0733;-0.8276;
-28.8000;0.0635;-0.8608;
-28.5000;0.0749;-0.8342;
-28.2000;0.0741;-0.8342;
-27.9000;0.0659;-0.8564;
-27.6000;0.0741;-0.8387;
-27.3000;0.0757;-0.8320;
-27.0000;0.0741;-0.8254;
-26.7000;0.0814;-0.8077;
-26.4000;0.0733;-0.8276;
-26.1000;0.0724;-0.8187;
-25.8000;0.0724;-0.8121;
-25.5000;0.0749;-0.8121;
-25.2000;0.0700;-0.8254;
-24.9000;0.0733;-0.8276;
-24.6000;0.0733;-0.8254;
-24.3000;0.0757;-0.8276;
-24.0000;0.0765;-0.8232;
-23.7000;0.0724;-0.8298;
-23.4000;0.0741;-0.8210;
-23.1000;0.0749;-0.8298;
-22.8000;0.0765;-0.8232;
-22.5000;0.0741;-0.8409;
-22.2000;0.0798;-0.8298;
-21.9000;0.0765;-0.8364;
-21.6000;0.0741;-0.8431;
-21.3000;0.0741;-0.8409;
-21.0000;0.0676;-0.8519;
-20.7000;0.0757;-0.8232;
-20.4000;0.0741;-0.8298;
-20.1000;0.0700;-0.8387;
-19.8000;0.0708;-0.8387;
-19.5000;0.0757;-0.8342;
-19.2000;0.0724;-0.8387;
-18.9000;0.0733;-0.8387;
-18.6000;0.0716;-0.8387;
-18.3000;0.0733;-0.8320;
-18.0000;0.0741;-0.8320;
-17.7000;0.0790;-0.8254;
-17.4000;0.0733;-0.8387;
-17.1000;0.0741;-0.8409;
-16.8000;0.0741;-0.8364;
-16.5000;0.0700;-0.8431;
-16.2000;0.0806;-0.8099;
-15.9000;0.0781;-0.8276;
-15.6000;0.0757;-0.8254;
-15.3000;0.0765;-0.8232;
-15.0000;0.0741;-0.8298;
-14.7000;0.0749;-0.8254;
-14.4000;0.0724;-0.8298;
-14.1000;0.0863;-0.8010;
-13.8000;0.0700;-0.8387;
-13.5000;0.0814;-0.8143;
-13.2000;0.0757;-0.8298;
-12.9000;0.0733;-0.8409;
-12.6000;0.0806;-0.8232;
-12.3000;0.0741;-0.8364;
-12.0000;0.0716;-0.8364;
-11.7000;0.0724;-0.8342;
-11.4000;0.0757;-0.8187;
-11.1000;0.0773;-0.8210;
-10.8000;0.0749;-0.8187;
-10.5000;0.0749;-0.8165;
-10.2000;0.0700;-0.8298;
-9.9000;0.0724;-0.8210;
-9.6000;0.0741;-0.8254;
-9.3000;0.0741;-0.8210;
-9.0000;0.0733;-0.8298;
-8.7000;0.0757;-0.8232;
-8.4000;0.0733;-0.8298;
-8.1000;0.0765;-0.8320;
-7.8000;0.0733;-0.8364;
-7.5000;0.0765;-0.8298;
-7.2000;0.0749;-0.8453;
-6.9000;0.0773;-0.8364;
-6.6000;0.0765;-0.8298;
-6.3000;0.0708;-0.8320;
-6.0000;0.0733;-0.8342;
-5.7000;0.0773;-0.8254;
-5.4000;0.0733;-0.8342;
-5.1000;0.0765;-0.8320;
-4.8000;0.0692;-0.8475;
-4.5000;0.0724;-0.8320;
-4.2000;0.0733;-0.8320;
-3.9000;0.0741;-0.8342;
-3.6000;0.0708;-0.8409;
-3.3000;0.0781;-0.8254;
-3.0000;0.0749;-0.8298;
-2.7000;0.0724;-0.8320;
-2.4000;0.0684;-0.8431;
-2.1000;0.0724;-0.8254;
-1.8000;0.0749;-0.8187;
-1.5000;0.0716;-0.8276;
-1.2000;0.0749;-0.8210;
-0.9000;0.0773;-0.8276;
-0.6000;0.0757;-0.8276;
-0.3000;0.0757;-0.8364;
0.0000;0.0757;-0.8364;
0.3000;0.0716;-0.8851;
0.6000;0.0749;-0.8696;
0.9000;0.0790;-0.8541;
1.2000;0.0773;-0.8519;
1.5000;0.0781;-0.8387;
1.8000;0.0855;-0.8099;
2.1000;0.0790;-0.8143;
2.4000;0.0814;-0.7988;
2.7000;0.0830;-0.7833;
3.0000;0.0863;-0.7701;
3.3000;0.0847;-0.7656;
3.6000;0.0855;-0.7612;
3.9000;0.0798;-0.7656;
4.2000;0.0814;-0.7612;
4.5000;0.0879;-0.7479;
4.8000;0.0879;-0.7435;
5.1000;0.0855;-0.7501;
5.4000;0.0855;-0.7369;
5.7000;0.0822;-0.7479;
6.0000;0.0814;-0.7524;
6.3000;0.0838;-0.7435;
6.6000;0.0847;-0.7413;
6.9000;0.0863;-0.7347;
7.2000;0.0855;-0.7302;
7.5000;0.0855;-0.7302;
7.8000;0.0871;-0.7258;
8.1000;0.0855;-0.7347;
8.4000;0.0871;-0.7347;
8.7000;0.0904;-0.7170;
9.0000;0.0814;-0.7324;
9.3000;0.0887;-0.7147;
9.6000;0.0855;-0.7147;
9.9000;0.0928;-0.7037;
10.2000;0.0871;-0.7236;
10.5000;0.0838;-0.7302;
10.8000;0.0847;-0.7369;
11.1000;0.0871;-0.7391;
11.4000;0.0847;-0.7479;
11.7000;0.0895;-0.7369;
12.0000;0.0855;-0.7435;
12.3000;0.0863;-0.7391;
12.6000;0.0838;-0.7479;
12.9000;0.0847;-0.7501;
13.2000;0.0879;-0.7391;
13.5000;0.0887;-0.7347;
13.8000;0.0871;-0.7369;
14.1000;0.0887;-0.7324;
14.4000;0.0944;-0.7192;
14.7000;0.0830;-0.7479;
15.0000;0.0904;-0.7280;
15.3000;0.0863;-0.7369;
15.6000;0.0879;-0.7324;
15.9000;0.0928;-0.7192;
16.2000;0.0871;-0.7413;
16.5000;0.1009;-0.7059;
16.8000;0.0838;-0.7501;
17.1000;0.0952;-0.7280;
17.4000;0.0920;-0.7324;
17.7000;0.0814;-0.7479;
18.0000;0.0969;-0.7015;
18.3000;0.0855;-0.7324;
18.6000;0.0887;-0.7302;
18.9000;0.0773;-0.7501;
19.2000;0.0871;-0.7147;
19.5000;0.0781;-0.7413;
19.8000;0.0904;-0.7059;
20.1000;0.0847;-0.7236;
20.4000;0.0855;-0.7147;
20.7000;0.0847;-0.7125;
21.0000;0.0830;-0.7125;
21.3000;0.0863;-0.7059;
21.6000;0.0871;-0.7125;
21.9000;0.0871;-0.7103;
22.2000;0.0904;-0.6992;
22.5000;0.0863;-0.7103;
22.8000;0.0863;-0.7170;
23.1000;0.0830;-0.7258;
23.4000;0.0863;-0.7214;
23.7000;0.0887;-0.7103;
24.0000;0.0863;-0.7170;
24.3000;0.0863;-0.7170;
24.6000;0.0863;-0.7214;
24.9000;0.0830;-0.7258;
25.2000;0.0887;-0.7125;
25.5000;0.0863;-0.7236;
25.8000;0.0814;-0.7324;
26.1000;0.0871;-0.7214;
26.4000;0.0879;-0.7236;
26.7000;0.0871;-0.7302;
27.0000;0.0863;-0.7391;
27.3000;0.0904;-0.7347;
27.6000;0.0879;-0.7369;
27.9000;0.0863;-0.7413;
28.2000;0.0863;-0.7324;
28.5000;0.0887;-0.7236;
28.8000;0.0855;-0.7302;
29.1000;0.0847;-0.7214;
29.4000;0.0871;-0.7192;
29.7000;0.0855;-0.7258;
30.0000;0.0863;-0.7258;
30.3000;0.0847;-0.7280;
30.6000;0.0904;-0.7147;
30.9000;0.0871;-0.7236;
31.2000;0.0855;-0.7324;
31.5000;0.0887;-0.7324;
31.8000;0.0855;-0.7391;
32.1000;0.0887;-0.7280;
32.4000;0.0838;-0.7413;
32.7000;0.0847;-0.7391;
33.0000;0.0879;-0.7413;
33.3000;0.0887;-0.7413;
33.6000;0.0855;-0.7524;
33.9000;0.1026;-0.7147;
34.2000;0.0863;-0.7413;
34.5000;0.0920;-0.7369;
34.8000;0.0895;-0.7435;
35.1000;0.0781;-0.7723;
35.4000;0.0887;-0.7501;
35.7000;0.0887;-0.7524;
36.0000;0.0847;-0.7612;
36.3000;0.0895;-0.7457;
36.6000;0.0863;-0.7457;
36.9000;0.0871;-0.7413;
37.2000;0.0871;-0.7391;
37.5000;0.0871;-0.7435;
37.8000;0.0887;-0.7435;
38.1000;0.0855;-0.7524;
38.4000;0.0887;-0.7457;
38.7000;0.0855;-0.7546;
39.0000;0.0879;-0.7457;
39.3000;0.0879;-0.7457;
39.6000;0.0887;-0.7435;
39.9000;0.0928;-0.7324;
40.2000;0.0977;-0.7236;
40.5000;0.0765;-0.7701;
40.8000;0.0887;-0.7413;
41.1000;0.0912;-0.7324;
41.4000;0.1001;-0.7059;
41.7000;0.0920;-0.7258;
42.0000;0.0961;-0.7170;
42.3000;0.0895;-0.7369;
42.6000;0.0895;-0.7435;
42.9000;0.0895;-0.7391;
43.2000;0.0871;-0.7479;
43.5000;0.1009;-0.7103;
43.8000;0.0952;-0.7324;
44.1000;0.0879;-0.7501;
44.4000;0.0830;-0.7590;
44.7000;0.0847;-0.7435;
45.0000;0.0879;-0.7347;
45.3000;0.0895;-0.7258;
45.6000;0.0895;-0.7302;
45.9000;0.0847;-0.7391;
46.2000;0.0977;-0.7147;
46.5000;0.0879;-0.7369;
46.8000;0.0855;-0.7413;
47.1000;0.0879;-0.7347;
47.4000;0.0879;-0.7413;
47.7000;0.0904;-0.7302;
48.0000;0.0904;-0.7214;
48.3000;0.0871;-0.7347;
48.6000;0.0895;-0.7324;
48.9000;0.0871;-0.7391;
49.2000;0.0879;-0.7324;
49.5000;0.0895;-0.7347;
49.8000;0.0879;-0.7413;
50.1000;0.0904;-0.7369;
50.4000;0.0879;-0.7435;
50.7000;0.0855;-0.7479;
51.0000;0.0822;-0.7501;
51.3000;0.0863;-0.7347;
51.6000;0.0879;-0.7302;
51.9000;0.0871;-0.7413;
52.2000;0.0871;-0.7369;
52.5000;0.0855;-0.7413;
52.8000;0.0863;-0.7391;
53.1000;0.0863;-0.7435;
53.4000;0.0895;-0.7369;
53.7000;0.0863;-0.7347;
54.0000;0.0871;-0.7258;
54.3000;0.0806;-0.7435;
54.6000;0.0993;-0.6992;
54.9000;0.0879;-0.7258;
55.2000;0.0863;-0.7302;
55.5000;0.0904;-0.7258;
55.8000;0.0741;-0.7701;
56.1000;0.0912;-0.7324;
56.4000;0.0887;-0.7347;
56.7000;0.0920;-0.7302;
57.0000;0.0871;-0.7391;
57.3000;0.0879;-0.7501;
57.6000;0.0895;-0.7457;
57.9000;0.0895;-0.7413;
58.2000;0.0895;-0.7479;
58.5000;0.0961;-0.7324;
58.8000;0.0904;-0.7457;
59.1000;0.0961;-0.7214;
59.4000;0.0895;-0.7347;
59.7000;0.0904;-0.7302;
60.0000;0.0904;-0.7324;
60.3000;0.0863;-0.7479;
60.6000;0.0887;-0.7435;
60.9000;0.0904;-0.7435;
61.2000;0.0863;-0.7546;
61.5000;0.0904;-0.7435;
61.8000;0.0879;-0.7479;
62.1000;0.0879;-0.7524;
62.4000;0.0895;-0.7590;
62.7000;0.0871;-0.7656;
63.0000;0.0879;-0.7590;
63.3000;0.0952;-0.7435;
63.6000;0.0863;-0.7590;
63.9000;0.0822;-0.7612;
64.2000;0.0879;-0.7524;
64.5000;0.0830;-0.7590;
64.8000;0.0879;-0.7457;
65.1000;0.0871;-0.7391;
65.4000;0.0952;-0.7125;
65.7000;0.0863;-0.7413;
66.0000;0.0830;-0.7435;
66.3000;0.0887;-0.7280;
66.6000;0.0887;-0.7280;
66.9000;0.0887;-0.7347;
67.2000;0.0887;-0.7347;
67.5000;0.0895;-0.7324;
67.8000;0.0895;-0.7302;
68.1000;0.0855;-0.7369;
68.4000;0.0928;-0.7236;
68.7000;0.0773;-0.7612;
69.0000;0.0895;-0.7391;
69.3000;0.0806;-0.7590;
69.6000;0.0887;-0.7302;
69.9000;0.0928;-0.7236;
70.2000;0.0912;-0.7302;
70.5000;0.0871;-0.7302;
70.8000;0.0863;-0.7391;
71.1000;0.0871;-0.7413;
71.4000;0.0871;-0.7501;
71.7000;0.0871;-0.7501;
72.0000;0.0855;-0.7524;
72.3000;0.0887;-0.7501;
72.6000;0.0904;-0.7501;
72.9000;0.0993;-0.7302;
73.2000;0.0879;-0.7568;
73.5000;0.0895;-0.7590;
73.8000;0.0904;-0.7568;
74.1000;0.0838;-0.7723;
74.4000;0.0904;-0.7546;
74.7000;0.0887;-0.7612;
75.0000;0.0912;-0.7546;
75.3000;0.0895;-0.7501;
75.6000;0.0879;-0.7501;
75.9000;0.0928;-0.7413;
76.2000;0.0879;-0.7568;
76.5000;0.0879;-0.7546;
76.8000;0.0920;-0.7501;
77.1000;0.0895;-0.7479;
77.4000;0.0879;-0.7501;
77.7000;0.0928;-0.7347;
78.0000;0.0879;-0.7369;
78.3000;0.0895;-0.7258;
78.6000;0.0920;-0.7214;
78.9000;0.0879;-0.7302;
79.2000;0.0977;-0.7059;
79.5000;0.0847;-0.7347;
79.8000;0.0855;-0.7347;
80.1000;0.0895;-0.7192;
80.4000;0.0920;-0.7258;
80.7000;0.0855;-0.7457;
81.0000;0.0879;-0.7391;
81.3000;0.0879;-0.7501;
81.6000;0.0952;-0.7391;
81.9000;0.0895;-0.7546;
82.2000;0.0887;-0.7546;
82.5000;0.0879;-0.7457;
82.8000;0.0936;-0.7369;
83.1000;0.0887;-0.7546;
83.4000;0.0887;-0.7524;
83.7000;0.0895;-0.7524;
84.0000;0.0879;-0.7612;
84.3000;0.0895;-0.7590;
84.6000;0.0912;-0.7568;
84.9000;0.0887;-0.7656;
85.2000;0.0879;-0.7656;
85.5000;0.0879;-0.7568;
85.8000;0.0887;-0.7457;
86.1000;0.0895;-0.7324;
86.4000;0.0863;-0.7391;
86.7000;0.0830;-0.7457;
87.0000;0.0879;-0.7347;
87.3000;0.0871;-0.7347;
87.6000;0.0904;-0.7192;
87.9000;0.0879;-0.7192;
88.2000;0.0895;-0.7103;
88.5000;0.0895;-0.7081;
88.8000;0.0879;-0.7170;
89.1000;0.0879;-0.7170;
89.4000;0.0879;-0.7147;
89.7000;0.0863;-0.7280;
90.0000;0.0838;-0.7369;
90.3000;0.0895;-0.7302;
90.6000;0.0904;-0.7391;
90.9000;0.0871;-0.7501;
91.2000;0.0904;-0.7435;
91.5000;0.0887;-0.7369;
91.8000;0.0871;-0.7479;
92.1000;0.0944;-0.7280;
92.4000;0.0863;-0.7391;
92.7000;0.0904;-0.7347;
93.0000;0.0887;-0.7479;
93.3000;0.0895;-0.7501;
93.6000;0.0920;-0.7369;
93.9000;0.0879;-0.7435;
94.2000;0.0822;-0.7457;
94.5000;0.0887;-0.7347;
94.8000;0.0928;-0.7302;
95.1000;0.0871;-0.7413;
95.4000;0.0855;-0.7457;
95.7000;0.0871;-0.7457;
96.0000;0.0863;-0.7501;
96.3000;0.0879;-0.7479;
96.6000;0.0879;-0.7501;
96.9000;0.0887;-0.7479;
97.2000;0.0871;-0.7590;
97.5000;0.0871;-0.7546;
97.8000;0.0879;-0.7546;
98.1000;0.0887;-0.7524;
98.4000;0.0773;-0.7745;
98.7000;0.0904;-0.7413;
99.0000;0.0863;-0.7546;
99.3000;0.0912;-0.7457;
99.6000;0.0887;-0.7479;
99.9000;0.0879;-0.7501;
100.2000;0.0904;-0.7501;
100.5000;0.0863;-0.7590;
100.8000;0.0887;-0.7546;
101.1000;0.0895;-0.7479;
101.4000;0.0904;-0.7391;
101.7000;0.0871;-0.7501;
102.0000;0.0912;-0.7347;
102.3000;0.0871;-0.7391;
102.6000;0.0855;-0.7369;
102.9000;0.0879;-0.7302;
103.2000;0.0879;-0.7369;
103.5000;0.0961;-0.7214;
103.8000;0.0838;-0.7568;
104.1000;0.0895;-0.7457;
104.4000;0.0895;-0.7391;
104.7000;0.0887;-0.7501;
105.0000;0.0904;-0.7435;
105.3000;0.0887;-0.7479;
105.6000;0.1001;-0.7170;
105.9000;0.0871;-0.7479;
106.2000;0.0920;-0.7347;
106.5000;0.0952;-0.7236;
106.8000;0.0871;-0.7457;
107.1000;0.0847;-0.7634;
107.4000;0.0912;-0.7435;
107.7000;0.0863;-0.7546;
108.0000;0.0855;-0.7546;
108.3000;0.0871;-0.7435;
108.6000;0.0879;-0.7391;
108.9000;0.0887;-0.7324;
109.2000;0.0855;-0.7457;
109.5000;0.0887;-0.7435;
109.8000;0.0895;-0.7391;
110.1000;0.0863;-0.7457;
110.4000;0.0879;-0.7524;
110.7000;0.0790;-0.7767;
111.0000;0.0887;-0.7568;
111.3000;0.0904;-0.7568;
111.6000;0.0814;-0.7634;
111.9000;0.0895;-0.7413;
112.2000;0.0871;-0.7479;
112.5000;0.0904;-0.7413;
112.8000;0.0798;-0.7745;
113.1000;0.0887;-0.7479;
113.4000;0.0912;-0.7369;
113.7000;0.0871;-0.7457;
114.0000;0.0920;-0.7236;
114.3000;0.0863;-0.7435;
114.6000;0.0879;-0.7435;
114.9000;0.0961;-0.7214;
115.2000;0.0895;-0.7413;
115.5000;0.0904;-0.7391;
115.8000;0.0863;-0.7479;
116.1000;0.0879;-0.7413;
116.4000;0.0863;-0.7369;
116.7000;0.0912;-0.7280;
117.0000;0.0895;-0.7413;
117.3000;0.0887;-0.7324;
117.6000;0.0879;-0.7391;
117.9000;0.0798;-0.7612;
118.2000;0.0838;-0.7524;
118.5000;0.0904;-0.7435;
118.8000;0.0887;-0.7479;
119.1000;0.0895;-0.7457;
119.4000;0.0887;-0.7501;
119.7000;0.0993;-0.7258;
120.0000;0.0895;-0.7479;
120.3000;0.0895;-0.7369;
120.6000;0.0879;-0.7413;
120.9000;0.0847;-0.7546;
121.2000;0.0822;-0.7678;
121.5000;0.0871;-0.7524;
121.8000;0.0879;-0.7435;
122.1000;0.0887;-0.7435;
122.4000;0.0838;-0.7524;
122.7000;0.0912;-0.7280;
123.0000;0.0887;-0.7236;
123.3000;0.0879;-0.7302;
123.6000;0.0871;-0.7302;
123.9000;0.0912;-0.7280;
124.2000;0.0895;-0.7302;
124.5000;0.0879;-0.7369;
124.8000;0.0904;-0.7214;
125.1000;0.0887;-0.7214;
125.4000;0.0855;-0.7391;
125.7000;0.0871;-0.7435;
126.0000;0.0863;-0.7524;
126.3000;0.0904;-0.7435;
126.6000;0.0879;-0.7568;
126.9000;0.0863;-0.7634;
127.2000;0.0977;-0.7391;
127.5000;0.0920;-0.7501;
127.8000;0.0895;-0.7546;
128.1000;0.0895;-0.7546;
128.4000;0.0855;-0.7634;
128.7000;0.0855;-0.7546;
129.0000;0.0928;-0.7369;
129.3000;0.0928;-0.7258;
129.6000;0.0936;-0.7192;
129.9000;0.0895;-0.7214;
130.2000;0.0912;-0.7125;
130.5000;0.0879;-0.7192;
130.8000;0.0871;-0.7280;
131.1000;0.0895;-0.7236;
131.4000;0.0847;-0.7258;
131.7000;0.0847;-0.7192;
132.0000;0.0790;-0.7413;
132.3000;0.0879;-0.7302;
132.6000;0.0814;-0.7369;
132.9000;0.0920;-0.7081;
133.2000;0.0879;-0.7125;
133.5000;0.0741;-0.7391;
133.8000;0.0887;-0.7147;
134.1000;0.0936;-0.7081;
134.4000;0.0895;-0.7147;
134.7000;0.0887;-0.7192;
135.0000;0.0871;-0.7214;
135.3000;0.0993;-0.6926;
135.6000;0.0871;-0.7302;
135.9000;0.0855;-0.7302;
136.2000;0.0863;-0.7324;
136.5000;0.0773;-0.7634;
136.8000;0.0879;-0.7435;
137.1000;0.0871;-0.7435;
137.4000;0.0887;-0.7479;
137.7000;0.0879;-0.7479;
138.0000;0.0895;-0.7391;
138.3000;0.0904;-0.7302;
138.6000;0.0887;-0.7170;
138.9000;0.0887;-0.7236;
139.2000;0.0895;-0.7236;
139.5000;0.0879;-0.7324;
139.8000;0.0847;-0.7413;
140.1000;0.0904;-0.7258;
140.4000;0.0904;-0.7302;
140.7000;0.0895;-0.7347;
141.0000;0.0871;-0.7435;
141.3000;0.0830;-0.7479;
141.6000;0.0912;-0.7214;
141.9000;0.0879;-0.7258;
142.2000;0.0855;-0.7413;
142.5000;0.0887;-0.7258;
142.8000;0.0887;-0.7347;
143.1000;0.0879;-0.7391;
143.4000;0.0904;-0.7280;
143.7000;0.0871;-0.7391;
144.0000;0.0895;-0.7369;
144.3000;0.0912;-0.7413;
144.6000;0.0879;-0.7524;
144.9000;0.0895;-0.7501;
145.2000;0.0855;-0.7479;
145.5000;0.0920;-0.7324;
145.8000;0.0887;-0.7391;
146.1000;0.0887;-0.7324;
146.4000;0.0887;-0.7280;
146.7000;0.0887;-0.7280;
147.0000;0.0847;-0.7369;
147.3000;0.0879;-0.7347;
147.6000;0.0830;-0.7435;
147.9000;0.0895;-0.7302;
148.2000;0.0895;-0.7236;
148.5000;0.0879;-0.7258;
148.8000;0.0969;-0.7081;
149.1000;0.0887;-0.7302;
149.4000;0.0863;-0.7347;
149.7000;0.0904;-0.7347;
150.0000;0.0757;-0.7745;
150.3000;0.0895;-0.7435;
150.6000;0.0879;-0.7435;
150.9000;0.0952;-0.7280;
151.2000;0.0871;-0.7568;
151.5000;0.0928;-0.7501;
151.8000;0.0904;-0.7546;
152.1000;0.0920;-0.7524;
152.4000;0.0920;-0.7391;
152.7000;0.0920;-0.7435;
153.0000;0.0879;-0.7501;
153.3000;0.0912;-0.7413;
153.6000;0.0904;-0.7391;
153.9000;0.0904;-0.7391;
154.2000;0.0904;-0.7457;
154.5000;0.0879;-0.7457;
154.8000;0.0887;-0.7369;
155.1000;0.0887;-0.7457;
155.4000;0.0871;-0.7524;
155.7000;0.0863;-0.7524;
156.0000;0.0887;-0.7546;
156.3000;0.0814;-0.7811;
156.6000;0.0814;-0.7745;
156.9000;0.0912;-0.7501;
157.2000;0.0895;-0.7590;
157.5000;0.0895;-0.7568;
157.8000;0.0904;-0.7501;
158.1000;0.0879;-0.7524;
158.4000;0.0887;-0.7546;
158.7000;0.0855;-0.7568;
159.0000;0.0879;-0.7524;
159.3000;0.1001;-0.7236;
159.6000;0.0904;-0.7479;
159.9000;0.0879;-0.7546;
160.2000;0.0863;-0.7546;
160.5000;0.0871;-0.7501;
160.8000;0.0928;-0.7302;
161.1000;0.0895;-0.7413;
161.4000;0.0879;-0.7413;
161.7000;0.0977;-0.7103;
162.0000;0.0887;-0.7236;
162.3000;0.0887;-0.7347;
162.6000;0.0887;-0.7369;
162.9000;0.0912;-0.7347;
163.2000;0.0871;-0.7501;
163.5000;0.0887;-0.7457;
163.8000;0.0920;-0.7324;
164.1000;0.0863;-0.7457;
164.4000;0.0871;-0.7457;
164.7000;0.0871;-0.7369;
165.0000;0.0928;-0.7214;
165.3000;0.0863;-0.7302;
165.6000;0.0863;-0.7324;
165.9000;0.0928;-0.7192;
166.2000;0.0887;-0.7236;
166.5000;0.0895;-0.7236;
166.8000;0.0879;-0.7324;
167.1000;0.0887;-0.7258;
167.4000;0.0887;-0.7280;
167.7000;0.0904;-0.7280;
168.0000;0.0895;-0.7302;
168.3000;0.0871;-0.7324;
168.6000;0.0871;-0.7435;
168.9000;0.0912;-0.7457;
169.2000;0.0773;-0.7745;
169.5000;0.0928;-0.7435;
169.8000;0.0887;-0.7501;
170.1000;0.0871;-0.7435;
170.4000;0.0895;-0.7258;
170.7000;0.0879;-0.7280;
171.0000;0.0871;-0.7324;
171.3000;0.0895;-0.7369;
171.6000;0.0936;-0.7280;
171.9000;0.0887;-0.7413;
172.2000;0.0904;-0.7435;
172.5000;0.0904;-0.7413;
172.8000;0.0912;-0.7457;
173.1000;0.0887;-0.7413;
173.4000;0.0904;-0.7435;
173.7000;0.0936;-0.7280;
174.0000;0.1074;-0.6860;
174.3000;0.0912;-0.7236;
174.6000;0.0879;-0.7302;
174.9000;0.0895;-0.7280;
175.2000;0.0904;-0.7324;
175.5000;0.0887;-0.7391;
175.8000;0.0904;-0.7369;
176.1000;0.0871;-0.7479;
176.4000;0.0855;-0.7524;
176.7000;0.0879;-0.7435;
177.0000;0.0863;-0.7524;
177.3000;0.0920;-0.7457;
177.6000;0.0879;-0.7479;
177.9000;0.0904;-0.7413;
178.2000;0.0895;-0.7457;
178.5000;0.0952;-0.7324;
178.8000;0.0904;-0.7435;
179.1000;0.0887;-0.7413;
179.4000;0.0847;-0.7479;
179.7000;0.0895;-0.7391;
180.0000;0.0871;-0.7457;
180.3000;0.0920;-0.7347;
180.6000;0.0904;-0.7457;
180.9000;0.0920;-0.7479;
181.2000;0.0863;-0.7634;
181.5000;0.0847;-0.7590;
181.8000;0.0847;-0.7612;
182.1000;0.0863;-0.7634;
182.4000;0.0879;-0.7435;
182.7000;0.0977;-0.7170;
183.0000;0.0871;-0.7435;
183.3000;0.0871;-0.7457;
183.6000;0.1050;-0.7015;
183.9000;0.0904;-0.7280;
184.2000;0.0871;-0.7369;
184.5000;0.0895;-0.7347;
184.8000;0.0936;-0.7236;
185.1000;0.0904;-0.7347;
185.4000;0.0871;-0.7457;
185.7000;0.0895;-0.7413;
186.0000;0.0928;-0.7369;
186.3000;0.0936;-0.7369;
186.6000;0.0871;-0.7457;
186.9000;0.0920;-0.7324;
187.2000;0.0838;-0.7546;
187.5000;0.0904;-0.7347;
187.8000;0.0863;-0.7280;
188.1000;0.0887;-0.7147;
188.4000;0.0879;-0.7170;
188.7000;0.0912;-0.7081;
189.0000;0.0887;-0.7125;
189.3000;0.0936;-0.7059;
189.6000;0.0895;-0.7192;
189.9000;0.0879;-0.7302;
190.2000;0.0798;-0.7590;
190.5000;0.0871;-0.7457;
190.8000;0.0904;-0.7413;
191.1000;0.0887;-0.7457;
191.4000;0.0904;-0.7391;
191.7000;0.0887;-0.7413;
192.0000;0.0895;-0.7369;
192.3000;0.0871;-0.7435;
192.6000;0.0912;-0.7347;
192.9000;0.0912;-0.7324;
193.2000;0.0887;-0.7347;
193.5000;0.0912;-0.7280;
193.8000;0.0871;-0.7369;
194.1000;0.0887;-0.7236;
194.4000;0.0904;-0.7214;
194.7000;0.0871;-0.7347;
195.0000;0.0887;-0.7280;
195.3000;0.0879;-0.7280;
195.6000;0.0887;-0.7347;
195.9000;0.0895;-0.7302;
196.2000;0.0879;-0.7413;
196.5000;0.0895;-0.7391;
196.8000;0.0879;-0.7413;
197.1000;0.0895;-0.7391;
197.4000;0.0879;-0.7391;
197.7000;0.0904;-0.7236;
198.0000;0.0879;-0.7280;
198.3000;0.0912;-0.7214;
198.6000;0.0912;-0.7280;
198.9000;0.0904;-0.7347;
199.2000;0.0969;-0.7214;
199.5000;0.0887;-0.7479;
199.8000;0.0944;-0.7192;
200.1000;0.1001;-0.7059;
200.4000;0.0887;-0.7391;
200.7000;0.0912;-0.7369;
201.0000;0.0961;-0.7280;
201.3000;0.0830;-0.7656;
201.6000;0.0895;-0.7568;
201.9000;0.0912;-0.7546;
202.2000;0.0863;-0.7590;
202.5000;0.0895;-0.7546;
202.8000;0.0904;-0.7501;
203.1000;0.0912;-0.7479;
203.4000;0.0879;-0.7524;
203.7000;0.0887;-0.7435;
204.0000;0.0920;-0.7258;
204.3000;0.0887;-0.7347;
204.6000;0.0879;-0.7347;
204.9000;0.0928;-0.7236;
205.2000;0.0863;-0.7324;
205.5000;0.0895;-0.7369;
205.8000;0.0830;-0.7479;
206.1000;0.0863;-0.7369;
206.4000;0.0895;-0.7258;
206.7000;0.0871;-0.7280;
207.0000;0.0895;-0.7192;
207.3000;0.0969;-0.7037;
207.6000;0.0814;-0.7457;
207.9000;0.0904;-0.7302;
208.2000;0.0855;-0.7369;
208.5000;0.0879;-0.7280;
208.8000;0.0936;-0.7103;
209.1000;0.0904;-0.7214;
209.4000;0.0887;-0.7236;
209.7000;0.0952;-0.7059;
210.0000;0.0936;-0.7214;
210.3000;0.0904;-0.7258;
210.6000;0.0912;-0.7236;
210.9000;0.0920;-0.7192;
211.2000;0.0895;-0.7258;
211.5000;0.0871;-0.7369;
211.8000;0.0977;-0.7170;
212.1000;0.0879;-0.7391;
212.4000;0.0904;-0.7280;
212.7000;0.0855;-0.7369;
213.0000;0.0904;-0.7236;
213.3000;0.0895;-0.7236;
213.6000;0.0887;-0.7302;
213.9000;0.0871;-0.7369;
214.2000;0.0912;-0.7258;
214.5000;0.0904;-0.7302;
214.8000;0.0887;-0.7302;
215.1000;0.0806;-0.7479;
215.4000;0.0895;-0.7258;
215.7000;0.0871;-0.7236;
216.0000;0.0895;-0.7236;
216.3000;0.0912;-0.7236;
216.6000;0.0887;-0.7236;
216.9000;0.0887;-0.7236;
217.2000;0.0879;-0.7258;
217.5000;0.0895;-0.7236;
217.8000;0.0871;-0.7192;
218.1000;0.0895;-0.7214;
218.4000;0.0912;-0.7280;
218.7000;0.0863;-0.7457;
219.0000;0.0936;-0.7258;
219.3000;0.0912;-0.7258;
219.6000;0.0781;-0.7457;
219.9000;0.0961;-0.6926;
220.2000;0.0887;-0.7147;
220.5000;0.0749;-0.7501;
220.8000;0.0904;-0.7214;
221.1000;0.0887;-0.7324;
221.4000;0.0904;-0.7280;
221.7000;0.0871;-0.7214;
222.0000;0.0912;-0.7059;
222.3000;0.0887;-0.7059;
222.6000;0.0912;-0.7037;
222.9000;0.0855;-0.7192;
223.2000;0.0879;-0.7192;
223.5000;0.0887;-0.7214;
223.8000;0.0895;-0.7236;
224.1000;0.0887;-0.7214;
224.4000;0.0904;-0.7214;
224.7000;0.0863;-0.7413;
225.0000;0.0904;-0.7369;
225.3000;0.0895;-0.7347;
225.6000;0.0879;-0.7391;
225.9000;0.0855;-0.7391;
226.2000;0.0879;-0.7236;
226.5000;0.0879;-0.7214;
226.8000;0.0961;-0.6992;
227.1000;0.0887;-0.7170;
227.4000;0.0847;-0.7280;
227.7000;0.0887;-0.7280;
228.0000;0.0969;-0.7214;
228.3000;0.1009;-0.7125;
228.6000;0.0961;-0.7214;
228.9000;0.0887;-0.7413;
229.2000;0.0904;-0.7324;
229.5000;0.0879;-0.7324;
229.8000;0.0879;-0.7214;
230.1000;0.0952;-0.7059;
230.4000;0.0920;-0.7103;
230.7000;0.0871;-0.7236;
231.0000;0.0879;-0.7258;
231.3000;0.0895;-0.7236;
231.6000;0.0749;-0.7524;
231.9000;0.0895;-0.7324;
232.2000;0.0904;-0.7214;
232.5000;0.0879;-0.7324;
232.8000;0.0871;-0.7347;
233.1000;0.0822;-0.7413;
233.4000;0.0895;-0.7258;
233.7000;0.0912;-0.7280;
234.0000;0.0895;-0.7369;
234.3000;0.0895;-0.7413;
234.6000;0.0895;-0.7435;
234.9000;0.0887;-0.7435;
235.2000;0.0871;-0.7435;
235.5000;0.0887;-0.7391;
235.8000;0.0920;-0.7324;
236.1000;0.0887;-0.7391;
236.4000;0.0855;-0.7435;
236.7000;0.0895;-0.7324;
237.0000;0.0904;-0.7413;
237.3000;0.0895;-0.7369;
237.6000;0.0895;-0.7258;
237.9000;0.0904;-0.7214;
238.2000;0.0863;-0.7236;
238.5000;0.0879;-0.7147;
238.8000;0.0895;-0.7103;
239.1000;0.0895;-0.7170;
239.4000;0.0904;-0.7170;
239.7000;0.0887;-0.7125;
240.0000;0.0944;-0.7103;
240.3000;0.0855;-0.7347;
240.6000;0.0895;-0.7302;
240.9000;0.0895;-0.7347;
241.2000;0.0887;-0.7369;
241.5000;0.0806;-0.7524;
241.8000;0.0904;-0.7214;
242.1000;0.0904;-0.7170;
242.4000;0.0895;-0.7170;
242.7000;0.0879;-0.7258;
243.0000;0.0912;-0.7214;
243.3000;0.0904;-0.7236;
243.6000;0.0887;-0.7280;
243.9000;0.0887;-0.7236;
244.2000;0.0936;-0.7214;
244.5000;0.0936;-0.7302;
244.8000;0.0912;-0.7280;
245.1000;0.0887;-0.7369;
245.4000;0.0920;-0.7214;
245.7000;0.0879;-0.7280;
246.0000;0.0871;-0.7258;
246.3000;0.0879;-0.7192;
246.6000;0.0879;-0.7192;
246.9000;0.0904;-0.7236;
247.2000;0.0895;-0.7214;
247.5000;0.0879;-0.7236;
247.8000;0.0879;-0.7391;
248.1000;0.0871;-0.7435;
248.4000;0.0895;-0.7413;
248.7000;0.0887;-0.7435;
249.0000;0.0904;-0.7479;
249.3000;0.0895;-0.7479;
249.6000;0.0879;-0.7634;
249.9000;0.0887;-0.7524;
250.2000;0.0887;-0.7524;
250.5000;0.0879;-0.7612;
250.8000;0.0912;-0.7524;
251.1000;0.0887;-0.7546;
251.4000;0.0879;-0.7524;
251.7000;0.0895;-0.7568;
252.0000;0.0887;-0.7656;
252.3000;0.0895;-0.7590;
252.6000;0.0936;-0.7457;
252.9000;0.0920;-0.7457;
253.2000;0.0904;-0.7479;
253.5000;0.0838;-0.7590;
253.8000;0.0920;-0.7302;
254.1000;0.0887;-0.7391;
254.4000;0.0855;-0.7435;
254.7000;0.0895;-0.7369;
255.0000;0.0895;-0.7369;
255.3000;0.0798;-0.7546;
255.6000;0.0838;-0.7435;
255.9000;0.0904;-0.7280;
256.2000;0.0895;-0.7170;
256.5000;0.0887;-0.7147;
256.8000;0.0969;-0.6948;
257.1000;0.0879;-0.7236;
257.4000;0.0944;-0.7103;
257.7000;0.0822;-0.7369;
258.0000;0.0895;-0.7214;
258.3000;0.0928;-0.7170;
258.6000;0.0871;-0.7391;
258.9000;0.0855;-0.7479;
259.2000;0.0952;-0.7258;
259.5000;0.0871;-0.7501;
259.8000;0.0904;-0.7546;
260.1000;0.0887;-0.7612;
260.4000;0.0863;-0.7656;
260.7000;0.0887;-0.7612;
261.0000;0.0895;-0.7568;
261.3000;0.0936;-0.7302;
261.6000;0.0887;-0.7413;
261.9000;0.0871;-0.7479;
262.2000;0.0944;-0.7347;
262.5000;0.0920;-0.7391;
262.8000;0.0887;-0.7457;
263.1000;0.0863;-0.7524;
263.4000;0.0855;-0.7479;
263.7000;0.0863;-0.7479;
264.0000;0.0806;-0.7568;
264.3000;0.0895;-0.7391;
264.6000;0.0838;-0.7413;
264.9000;0.0928;-0.7236;
265.2000;0.0855;-0.7347;
265.5000;0.0871;-0.7347;
265.8000;0.0863;-0.7391;
266.1000;0.0912;-0.7236;
266.4000;0.0855;-0.7369;
266.7000;0.0879;-0.7302;
267.0000;0.0928;-0.7147;
267.3000;0.0879;-0.7258;
267.6000;0.0895;-0.7324;
267.9000;0.0871;-0.7347;
268.2000;0.0879;-0.7324;
268.5000;0.0879;-0.7391;
268.8000;0.0912;-0.7369;
269.1000;0.0904;-0.7369;
269.4000;0.0863;-0.7413;
269.7000;0.0879;-0.7302;
270.0000;0.0904;-0.7280;
270.3000;0.0847;-0.7391;
270.6000;0.0879;-0.7324;
270.9000;0.0879;-0.7435;
271.2000;0.1001;-0.7170;
271.5000;0.0895;-0.7457;
271.8000;0.0879;-0.7391;
272.1000;0.0912;-0.7347;
272.4000;0.0855;-0.7391;
272.7000;0.0920;-0.7280;
273.0000;0.0838;-0.7501;
273.3000;0.0887;-0.7435;
273.6000;0.0904;-0.7435;
273.9000;0.0887;-0.7524;
274.2000;0.0814;-0.7546;
274.5000;0.0904;-0.7347;
274.8000;0.1018;-0.7015;
275.1000;0.0879;-0.7324;
275.4000;0.0912;-0.7280;
275.7000;0.0855;-0.7435;
276.0000;0.0879;-0.7391;
276.3000;0.0904;-0.7347;
276.6000;0.0895;-0.7302;
276.9000;0.0879;-0.7324;
277.2000;0.0879;-0.7391;
277.5000;0.0887;-0.7347;
277.8000;0.0895;-0.7324;
278.1000;0.0887;-0.7435;
278.4000;0.0887;-0.7501;
278.7000;0.0895;-0.7479;
279.0000;0.0895;-0.7546;
279.3000;0.0895;-0.7678;
279.6000;0.0879;-0.7678;
279.9000;0.0895;-0.7656;
280.2000;0.0887;-0.7634;
280.5000;0.0912;-0.7568;
280.8000;0.0904;-0.7612;
281.1000;0.0887;-0.7656;
281.4000;0.0895;-0.7546;
281.7000;0.0952;-0.7413;
282.0000;0.0895;-0.7568;
282.3000;0.0961;-0.7435;
282.6000;0.0904;-0.7524;
282.9000;0.0830;-0.7678;
283.2000;0.0912;-0.7457;
283.5000;0.0879;-0.7612;
283.8000;0.0887;-0.7546;
284.1000;0.0904;-0.7501;
284.4000;0.0904;-0.7435;
284.7000;0.0895;-0.7501;
285.0000;0.0904;-0.7435;
285.3000;0.0781;-0.7634;
285.6000;0.0887;-0.7280;
285.9000;0.0879;-0.7258;
286.2000;0.0887;-0.7280;
286.5000;0.0944;-0.7147;
286.8000;0.0855;-0.7457;
287.1000;0.0887;-0.7302;
287.4000;0.0912;-0.7214;
287.7000;0.0928;-0.7147;
288.0000;0.0871;-0.7302;
288.3000;0.0928;-0.7236;
288.6000;0.0855;-0.7324;
288.9000;0.0912;-0.7103;
289.2000;0.0887;-0.7147;
289.5000;0.0855;-0.7214;
289.8000;0.0928;-0.7015;
290.1000;0.0969;-0.6992;
290.4000;0.0863;-0.7280;
290.7000;0.0887;-0.7192;
291.0000;0.0887;-0.7170;
291.3000;0.0887;-0.7258;
291.6000;0.0912;-0.7324;
291.9000;0.0944;-0.7258;
292.2000;0.0871;-0.7413;
292.5000;0.0895;-0.7369;
292.8000;0.0928;-0.7302;
293.1000;0.0895;-0.7369;
293.4000;0.0920;-0.7302;
293.7000;0.0879;-0.7347;
294.0000;0.0871;-0.7391;
294.3000;0.0904;-0.7347;
294.6000;0.0887;-0.7369;
294.9000;0.0961;-0.7170;
295.2000;0.0936;-0.7280;
295.5000;0.0895;-0.7302;
295.8000;0.0895;-0.7258;
296.1000;0.0912;-0.7302;
296.4000;0.0904;-0.7347;
296.7000;0.0904;-0.7435;
297.0000;0.0895;-0.7457;
297.3000;0.0830;-0.7590;
297.6000;0.0879;-0.7501;
297.9000;0.0936;-0.7413;
298.2000;0.0904;-0.7369;
298.5000;0.0912;-0.7324;
298.8000;0.0822;-0.7524;
299.1000;0.0895;-0.7369;
299.4000;0.0912;-0.7413;
299.7000;0.0887;-0.7479;
300.0000;0.0879;-0.7524;
300.3000;0.0904;-0.7568;
300.6000;0.0871;-0.7656;
300.9000;0.0895;-0.7501;
301.2000;0.0871;-0.7568;
301.5000;0.0895;-0.7391;
301.8000;0.0895;-0.7391;
302.1000;0.0920;-0.7324;
302.4000;0.0847;-0.7634;
302.7000;0.0887;-0.7501;
303.0000;0.0904;-0.7435;
303.3000;0.0887;-0.7479;
303.6000;0.0879;-0.7501;
303.9000;0.0904;-0.7568;
304.2000;0.0871;-0.7634;
304.5000;0.0928;-0.7457;
304.8000;0.0838;-0.7590;
305.1000;0.0928;-0.7435;
305.4000;0.0838;-0.7656;
305.7000;0.0879;-0.7568;
306.0000;0.0920;-0.7435;
306.3000;0.0879;-0.7546;
306.6000;0.0887;-0.7501;
306.9000;0.0879;-0.7479;
307.2000;0.0879;-0.7501;
307.5000;0.0863;-0.7546;
307.8000;0.0855;-0.7590;
308.1000;0.0912;-0.7413;
308.4000;0.0879;-0.7413;
308.7000;0.0904;-0.7391;
309.0000;0.0904;-0.7369;
309.3000;0.0928;-0.7324;
309.6000;0.0895;-0.7324;
309.9000;0.0879;-0.7369;
310.2000;0.0904;-0.7192;
310.5000;0.0887;-0.7192;
310.8000;0.0895;-0.7214;
311.1000;0.0871;-0.7258;
311.4000;0.0879;-0.7258;
311.7000;0.0993;-0.6948;
312.0000;0.0887;-0.7214;
312.3000;0.0871;-0.7347;
312.6000;0.0887;-0.7302;
312.9000;0.0863;-0.7413;
313.2000;0.0879;-0.7347;
313.5000;0.0912;-0.7347;
313.8000;0.0920;-0.7258;
314.1000;0.0887;-0.7413;
314.4000;0.0904;-0.7435;
314.7000;0.0871;-0.7524;
315.0000;0.0961;-0.7347;
315.3000;0.0895;-0.7413;
315.6000;0.0887;-0.7369;
315.9000;0.0895;-0.7324;
316.2000;0.0895;-0.7280;
316.5000;0.0895;-0.7302;
316.8000;0.0895;-0.7324;
317.1000;0.0904;-0.7391;
317.4000;0.0887;-0.7501;
317.7000;0.0912;-0.7435;
318.0000;0.0928;-0.7324;
318.3000;0.0887;-0.7391;
318.6000;0.0895;-0.7369;
318.9000;0.0895;-0.7302;
319.2000;0.0904;-0.7192;
319.5000;0.0887;-0.7170;
319.8000;0.0895;-0.7170;
320.1000;0.0920;-0.7103;
320.4000;0.0895;-0.7081;
320.7000;0.0895;-0.7103;
321.0000;0.0920;-0.7125;
321.3000;0.0993;-0.6904;
321.6000;0.0920;-0.7103;
321.9000;0.0904;-0.7192;
322.2000;0.0863;-0.7258;
322.5000;0.0879;-0.7125;
322.8000;0.0887;-0.7103;
323.1000;0.0952;-0.7015;
323.4000;0.0904;-0.7081;
323.7000;0.0944;-0.7015;
324.0000;0.0879;-0.7214;
324.3000;0.0871;-0.7236;
324.6000;0.0920;-0.7170;
324.9000;0.0879;-0.7147;
325.2000;0.0798;-0.7324;
325.5000;0.0895;-0.7125;
325.8000;0.0920;-0.7081;
326.1000;0.0838;-0.7302;
326.4000;0.0895;-0.7324;
326.7000;0.0855;-0.7479;
327.0000;0.0879;-0.7369;
327.3000;0.0904;-0.7214;
327.6000;0.0895;-0.7258;
327.9000;0.0993;-0.7037;
328.2000;0.0936;-0.7258;
328.5000;0.0904;-0.7280;
328.8000;0.0895;-0.7236;
329.1000;0.0879;-0.7302;
329.4000;0.0904;-0.7214;
329.7000;0.0871;-0.7280;
330.0000;0.0912;-0.7192;
330.3000;0.0871;-0.7214;
330.6000;0.0879;-0.7214;
330.9000;0.0879;-0.7192;
331.2000;0.0887;-0.7192;
331.5000;0.0887;-0.7236;
331.8000;0.0895;-0.7347;
332.1000;0.0904;-0.7391;
332.4000;0.0904;-0.7369;
332.7000;0.0887;-0.7435;
333.0000;0.0871;-0.7457;
333.3000;0.0887;-0.7435;
333.6000;0.0871;-0.7546;
333.9000;0.0895;-0.7546;
334.2000;0.0895;-0.7501;
334.5000;0.0879;-0.7546;
334.8000;0.0822;-0.7656;
335.1000;0.0895;-0.7435;
335.4000;0.0879;-0.7479;
335.7000;0.0806;-0.7634;
336.0000;0.0822;-0.7678;
336.3000;0.0887;-0.7590;
336.6000;0.0912;-0.7568;
336.9000;0.0765;-0.7833;
337.2000;0.0879;-0.7546;
337.5000;0.0961;-0.7369;
337.8000;0.0920;-0.7524;
338.1000;0.0952;-0.7546;
338.4000;0.0904;-0.7612;
338.7000;0.0887;-0.7634;
339.0000;0.0895;-0.7678;
339.3000;0.0895;-0.7656;
339.6000;0.0904;-0.7612;
339.9000;0.0879;-0.7590;
340.2000;0.0871;-0.7678;
340.5000;0.0887;-0.7701;
340.8000;0.0871;-0.7634;
341.1000;0.0895;-0.7568;
341.4000;0.0887;-0.7546;
341.7000;0.0928;-0.7347;
342.0000;0.0887;-0.7369;
342.3000;0.0887;-0.7347;
342.6000;0.0904;-0.7324;
342.9000;0.0879;-0.7457;
343.2000;0.0904;-0.7369;
343.5000;0.0904;-0.7435;
343.8000;0.0895;-0.7413;
344.1000;0.0936;-0.7324;
344.4000;0.0830;-0.7546;
344.7000;0.0879;-0.7413;
345.0000;0.0879;-0.7324;
345.3000;0.1009;-0.6992;
345.6000;0.0863;-0.7324;
345.9000;0.0904;-0.7280;
346.2000;0.0895;-0.7391;
346.5000;0.0904;-0.7302;
346.8000;0.0871;-0.7369;
347.1000;0.0887;-0.7369;
347.4000;0.0822;-0.7524;
347.7000;0.0806;-0.7501;
348.0000;0.0879;-0.7391;
348.3000;0.0879;-0.7391;
348.6000;0.0822;-0.7546;
348.9000;0.0879;-0.7413;
349.2000;0.0895;-0.7435;
349.5000;0.0871;-0.7435;
349.8000;0.0904;-0.7391;
350.1000;0.0887;-0.7457;
350.4000;0.0895;-0.7479;
350.7000;0.0928;-0.7324;
351.0000;0.0895;-0.7369;
351.3000;0.0895;-0.7324;
351.6000;0.0904;-0.7347;
351.9000;0.0887;-0.7413;
352.2000;0.0904;-0.7369;
352.5000;0.0895;-0.7501;
352.8000;0.0912;-0.7457;
353.1000;0.0879;-0.7501;
353.4000;0.0895;-0.7413;
353.7000;0.0879;-0.7524;
354.0000;0.0895;-0.7391;
354.3000;0.0895;-0.7435;
354.6000;0.0928;-0.7369;
354.9000;0.0904;-0.7413;
355.2000;0.0895;-0.7435;
355.5000;0.0871;-0.7501;
355.8000;0.0887;-0.7501;
356.1000;0.0887;-0.7479;
356.4000;0.0887;-0.7501;
356.7000;0.0863;-0.7612;
357.0000;0.0895;-0.7546;
357.3000;0.0887;-0.7590;
357.6000;0.0847;-0.7612;
357.9000;0.0806;-0.7678;
358.2000;0.0863;-0.7546;
358.5000;0.0798;-0.7745;
358.8000;0.0912;-0.7391;
359.1000;0.0895;-0.7413;
359.4000;0.0879;-0.7457;
359.7000;0.0838;-0.7457;
360.0000;0.0895;-0.7369;
360.3000;0.0904;-0.7369;
360.6000;0.0912;-0.7236;
360.9000;0.0920;-0.7258;
361.2000;0.0863;-0.7347;
361.5000;0.0887;-0.7324;
361.8000;0.0863;-0.7369;
362.1000;0.0887;-0.7324;
362.4000;0.0895;-0.7258;
362.7000;0.0904;-0.7347;
363.0000;0.0879;-0.7435;
363.3000;0.0871;-0.7391;
363.6000;0.0887;-0.7280;
363.9000;0.0871;-0.7435;
364.2000;0.0887;-0.7457;
364.5000;0.0904;-0.7479;
364.8000;0.0887;-0.7479;
365.1000;0.0952;-0.7302;
365.4000;0.0887;-0.7435;
365.7000;0.0912;-0.7369;
366.0000;0.0879;-0.7413;
366.3000;0.0871;-0.7501;
366.6000;0.0904;-0.7413;
366.9000;0.0822;-0.7612;
367.2000;0.0871;-0.7501;
367.5000;0.0887;-0.7524;
367.8000;0.0912;-0.7457;
368.1000;0.0879;-0.7435;
368.4000;0.0855;-0.7546;
368.7000;0.0847;-0.7590;
369.0000;0.0855;-0.7612;
369.3000;0.0847;-0.7678;
369.6000;0.0887;-0.7568;
369.9000;0.0871;-0.7546;
370.2000;0.0863;-0.7546;
370.5000;0.0822;-0.7701;
370.8000;0.0871;-0.7479;
371.1000;0.0887;-0.7501;
371.4000;0.0912;-0.7391;
371.7000;0.0887;-0.7391;
372.0000;0.0895;-0.7413;
372.3000;0.0879;-0.7546;
372.6000;0.0895;-0.7524;
372.9000;0.0790;-0.7745;
373.2000;0.0904;-0.7413;
373.5000;0.0879;-0.7369;
373.8000;0.0887;-0.7347;
374.1000;0.0952;-0.7280;
374.4000;0.0847;-0.7413;
374.7000;0.0871;-0.7302;
375.0000;0.0879;-0.7413;
375.3000;0.0928;-0.7236;
375.6000;0.0912;-0.7258;
375.9000;0.0904;-0.7302;
376.2000;0.0871;-0.7501;
376.5000;0.0879;-0.7457;
376.8000;0.0879;-0.7501;
377.1000;0.0887;-0.7391;
377.4000;0.0871;-0.7369;
377.7000;0.0904;-0.7280;
378.0000;0.0895;-0.7369;
378.3000;0.0879;-0.7413;
378.6000;0.0887;-0.7347;
378.9000;0.0838;-0.7479;
379.2000;0.0928;-0.7280;
379.5000;0.0904;-0.7347;
379.8000;0.0863;-0.7324;
380.1000;0.0879;-0.7258;
380.4000;0.0871;-0.7324;
380.7000;0.0814;-0.7524;
381.0000;0.0920;-0.7236;
381.3000;0.0879;-0.7347;
381.6000;0.0838;-0.7457;
381.9000;0.0838;-0.7413;
382.2000;0.0879;-0.7280;
382.5000;0.0879;-0.7324;
382.8000;0.0904;-0.7302;
383.1000;0.0904;-0.7347;
383.4000;0.0904;-0.7347;
383.7000;0.0936;-0.7324;
384.0000;0.0871;-0.7457;
384.3000;0.0895;-0.7391;
384.6000;0.0895;-0.7280;
384.9000;0.0822;-0.7501;
385.2000;0.0895;-0.7413;
385.5000;0.0920;-0.7324;
385.8000;0.0871;-0.7413;
386.1000;0.0822;-0.7457;
386.4000;0.0912;-0.7214;
386.7000;0.0879;-0.7236;
387.0000;0.0871;-0.7192;
387.3000;0.0887;-0.7236;
387.6000;0.0895;-0.7236;
387.9000;0.0904;-0.7324;
388.2000;0.0920;-0.7280;
388.5000;0.0912;-0.7236;
388.8000;0.0879;-0.7280;
389.1000;0.0887;-0.7324;
389.4000;0.0904;-0.7369;
389.7000;0.0895;-0.7369;
390.0000;0.0920;-0.7280;
390.3000;0.0904;-0.7280;
390.6000;0.0887;-0.7302;
390.9000;0.0912;-0.7214;
391.2000;0.0855;-0.7369;
391.5000;0.0895;-0.7258;
391.8000;0.0944;-0.6992;
392.1000;0.0895;-0.7103;
392.4000;0.0879;-0.7192;
392.7000;0.0814;-0.7302;
393.0000;0.0879;-0.7170;
393.3000;0.0887;-0.7170;
393.6000;0.0871;-0.7214;
393.9000;0.0895;-0.7170;
394.2000;0.0887;-0.7192;
394.5000;0.0847;-0.7324;
394.8000;0.0871;-0.7258;
395.1000;0.0895;-0.7170;
395.4000;0.0887;-0.7214;
395.7000;0.0928;-0.7192;
396.0000;0.0879;-0.7236;
396.3000;0.0879;-0.7258;
396.6000;0.0887;-0.7324;
396.9000;0.0781;-0.7634;
397.2000;0.0895;-0.7324;
397.5000;0.0855;-0.7435;
397.8000;0.0977;-0.7147;
398.1000;0.0814;-0.7501;
398.4000;0.0863;-0.7324;
398.7000;0.0904;-0.7192;
399.0000;0.0895;-0.7192;
399.3000;0.0879;-0.7302;
399.6000;0.0920;-0.7214;
399.9000;0.0871;-0.7302;
400.2000;0.0895;-0.7258;
400.5000;0.0879;-0.7324;
400.8000;0.0895;-0.7391;
401.1000;0.0887;-0.7391;
401.4000;0.0879;-0.7391;
401.7000;0.0879;-0.7413;
402.0000;0.0879;-0.7413;
402.3000;0.0904;-0.7347;
402.6000;0.0895;-0.7302;
402.9000;0.0895;-0.7302;
403.2000;0.0904;-0.7324;
403.5000;0.0912;-0.7324;
403.8000;0.0904;-0.7347;
404.1000;0.0887;-0.7347;
404.4000;0.0904;-0.7302;
404.7000;0.0871;-0.7324;
405.0000;0.0904;-0.7236;
405.3000;0.0904;-0.7147;
405.6000;0.0904;-0.7192;
405.9000;0.0904;-0.7147;
406.2000;0.0887;-0.7214;
406.5000;0.0773;-0.7435;
406.8000;0.0887;-0.7170;
407.1000;0.0879;-0.7170;
407.4000;0.0871;-0.7192;
407.7000;0.0871;-0.7170;
408.0000;0.0871;-0.7147;
408.3000;0.0920;-0.6992;
408.6000;0.0895;-0.7103;
408.9000;0.0887;-0.7170;
409.2000;0.0863;-0.7170;
409.5000;0.0879;-0.7081;
409.8000;0.0904;-0.7015;
410.1000;0.0904;-0.7059;
410.4000;0.0904;-0.7170;
410.7000;0.0912;-0.7236;
411.0000;0.0887;-0.7258;
411.3000;0.0871;-0.7302;
411.6000;0.0887;-0.7324;
411.9000;0.0887;-0.7280;
412.2000;0.0879;-0.7280;
412.5000;0.0879;-0.7192;
412.8000;0.0879;-0.7236;
413.1000;0.0895;-0.7214;
413.4000;0.0895;-0.7280;
413.7000;0.0912;-0.7258;
414.0000;0.0863;-0.7413;
414.3000;0.0920;-0.7280;
414.6000;0.0838;-0.7391;
414.9000;0.0961;-0.7081;
415.2000;0.0904;-0.7236;
415.5000;0.0887;-0.7280;
415.8000;0.0895;-0.7302;
416.1000;0.0985;-0.7170;
416.4000;0.0871;-0.7479;
416.7000;0.1001;-0.7170;
417.0000;0.0904;-0.7369;
417.3000;0.0855;-0.7347;
417.6000;0.0904;-0.7147;
417.9000;0.0895;-0.7236;
418.2000;0.0838;-0.7391;
418.5000;0.0895;-0.7280;
418.8000;0.0871;-0.7280;
419.1000;0.0863;-0.7214;
419.4000;0.0895;-0.7170;
419.7000;0.1058;-0.6815;
420.0000;0.0912;-0.7258;
420.3000;0.0985;-0.7147;
420.6000;0.0912;-0.7302;
420.9000;0.0871;-0.7369;
421.2000;0.0961;-0.7214;
421.5000;0.0895;-0.7391;
421.8000;0.0985;-0.7147;
422.1000;0.0887;-0.7347;
422.4000;0.0904;-0.7280;
422.7000;0.0904;-0.7302;
423.0000;0.0863;-0.7347;
423.3000;0.0871;-0.7214;
423.6000;0.0904;-0.7170;
423.9000;0.0912;-0.7258;
424.2000;0.0895;-0.7324;
424.5000;0.0887;-0.7369;
424.8000;0.0904;-0.7413;
425.1000;0.0944;-0.7214;
425.4000;0.0863;-0.7435;
425.7000;0.0887;-0.7435;
426.0000;0.0863;-0.7479;
426.3000;0.0887;-0.7347;
426.6000;0.0912;-0.7280;
426.9000;0.0879;-0.7302;
427.2000;0.0879;-0.7258;
427.5000;0.0871;-0.7280;
427.8000;0.0887;-0.7214;
428.1000;0.0895;-0.7258;
428.4000;0.0887;-0.7280;
428.7000;0.0904;-0.7236;
429.0000;0.0969;-0.7037;
429.3000;0.0895;-0.7258;
429.6000;0.0871;-0.7192;
429.9000;0.0887;-0.7258;
430.2000;0.0879;-0.7391;
430.5000;0.0895;-0.7324;
430.8000;0.0887;-0.7413;
431.1000;0.0871;-0.7524;
431.4000;0.0887;-0.7524;
431.7000;0.0912;-0.7369;
432.0000;0.0879;-0.7347;
432.3000;0.0895;-0.7280;
432.6000;0.0879;-0.7280;
432.9000;0.0904;-0.7214;
433.2000;0.0895;-0.7214;
433.5000;0.0887;-0.7258;
433.8000;0.0920;-0.7147;
434.1000;0.0928;-0.7170;
434.4000;0.0895;-0.7236;
434.7000;0.0871;-0.7324;
435.0000;0.0904;-0.7258;
435.3000;0.0863;-0.7280;
435.6000;0.0879;-0.7302;
435.9000;0.0879;-0.7324;
436.2000;0.0895;-0.7324;
436.5000;0.0879;-0.7369;
436.8000;0.0879;-0.7347;
437.1000;0.0904;-0.7302;
437.4000;0.0920;-0.7170;
437.7000;0.0895;-0.7170;
438.0000;0.0871;-0.7103;
438.3000;0.0879;-0.7125;
438.6000;0.0895;-0.7147;
438.9000;0.0895;-0.7214;
439.2000;0.0904;-0.7170;
439.5000;0.0912;-0.7103;
439.8000;0.0838;-0.7302;
440.1000;0.0871;-0.7170;
440.4000;0.0871;-0.7192;
440.7000;0.0879;-0.7147;
441.0000;0.0912;-0.7059;
441.3000;0.0887;-0.7081;
441.6000;0.0765;-0.7435;
441.9000;0.0863;-0.7214;
442.2000;0.0904;-0.7147;
442.5000;0.0895;-0.7214;
442.8000;0.0961;-0.7125;
443.1000;0.0912;-0.7258;
443.4000;0.0904;-0.7258;
443.7000;0.0895;-0.7236;
444.0000;0.0904;-0.7258;
444.3000;0.0895;-0.7302;
444.6000;0.0895;-0.7324;
444.9000;0.0773;-0.7612;
445.2000;0.0895;-0.7347;
445.5000;0.0920;-0.7391;
445.8000;0.0895;-0.7479;
446.1000;0.0912;-0.7369;
446.4000;0.0887;-0.7391;
446.7000;0.0904;-0.7258;
447.0000;0.0887;-0.7280;
447.3000;0.0773;-0.7612;
447.6000;0.0904;-0.7347;
447.9000;0.0887;-0.7391;
448.2000;0.0879;-0.7369;
448.5000;0.0895;-0.7324;
448.8000;0.0904;-0.7413;
449.1000;0.0895;-0.7457;
449.4000;0.0895;-0.7546;
449.7000;0.0895;-0.7501;
450.0000;0.0863;-0.7457;
450.3000;0.0887;-0.7413;
450.6000;0.0920;-0.7280;
450.9000;0.0871;-0.7391;
451.2000;0.0895;-0.7413;
451.5000;0.0944;-0.7280;
451.8000;0.0887;-0.7435;
452.1000;0.0855;-0.7501;
452.4000;0.0863;-0.7568;
452.7000;0.0879;-0.7479;
453.0000;0.0912;-0.7369;
453.3000;0.0847;-0.7590;
453.6000;0.0904;-0.7457;
453.9000;0.0904;-0.7324;
454.2000;0.0912;-0.7280;
454.5000;0.0887;-0.7435;
454.8000;0.0928;-0.7435;
455.1000;0.0887;-0.7568;
455.4000;0.0904;-0.7369;
455.7000;0.0871;-0.7369;
456.0000;0.0904;-0.7324;
456.3000;0.0855;-0.7479;
456.6000;0.0887;-0.7369;
456.9000;0.0904;-0.7280;
457.2000;0.0904;-0.7236;
457.5000;0.0887;-0.7280;
457.8000;0.0912;-0.7214;
458.1000;0.0887;-0.7236;
458.4000;0.0887;-0.7302;
458.7000;0.0871;-0.7302;
459.0000;0.0863;-0.7302;
459.3000;0.0895;-0.7280;
459.6000;0.0904;-0.7258;
459.9000;0.0879;-0.7324;
460.2000;0.0904;-0.7324;
460.5000;0.0920;-0.7302;
460.8000;0.0879;-0.7479;
461.1000;0.0895;-0.7524;
461.4000;0.0781;-0.7833;
461.7000;0.0863;-0.7479;
462.0000;0.0904;-0.7324;
462.3000;0.0798;-0.7612;
462.6000;0.0879;-0.7546;
462.9000;0.0895;-0.7413;
463.2000;0.0920;-0.7302;
463.5000;0.0765;-0.7479;
463.8000;0.0952;-0.6970;
464.1000;0.0928;-0.6992;
464.4000;0.0838;-0.7147;
464.7000;0.0912;-0.7059;
465.0000;0.0895;-0.7037;
465.3000;0.0920;-0.7103;
465.6000;0.0887;-0.7214;
465.9000;0.0895;-0.7214;
466.2000;0.0887;-0.7258;
466.5000;0.0879;-0.7369;
466.8000;0.0904;-0.7324;
467.1000;0.0887;-0.7369;
467.4000;0.0855;-0.7479;
467.7000;0.0879;-0.7413;
468.0000;0.0904;-0.7280;
468.3000;0.0895;-0.7324;
468.6000;0.0912;-0.7280;
468.9000;0.0904;-0.7258;
469.2000;0.0904;-0.7192;
469.5000;0.0895;-0.7258;
469.8000;0.0895;-0.7280;
470.1000;0.0887;-0.7258;
470.4000;0.0879;-0.7214;
470.7000;0.0895;-0.7192;
471.0000;0.0895;-0.7125;
471.3000;0.0887;-0.7147;
471.6000;0.0912;-0.7103;
471.9000;0.0895;-0.7214;
472.2000;0.0871;-0.7236;
472.5000;0.0887;-0.7214;
472.8000;0.0887;-0.7302;
473.1000;0.0887;-0.7457;
473.4000;0.0895;-0.7479;
473.7000;0.0904;-0.7369;
474.0000;0.0871;-0.7324;
474.3000;0.0912;-0.7280;
474.6000;0.0879;-0.7369;
474.9000;0.0895;-0.7236;
475.2000;0.0871;-0.7258;
475.5000;0.0871;-0.7391;
475.8000;0.0879;-0.7347;
476.1000;0.0847;-0.7413;
476.4000;0.0871;-0.7391;
476.7000;0.0904;-0.7347;
477.0000;0.0765;-0.7568;
477.3000;0.0863;-0.7347;
477.6000;0.0887;-0.7236;
477.9000;0.0887;-0.7280;
478.2000;0.0887;-0.7258;
478.5000;0.0904;-0.7214;
478.8000;0.0871;-0.7302;
479.1000;0.0879;-0.7413;
479.4000;0.0895;-0.7391;
479.7000;0.0895;-0.7369;
480.0000;0.0895;-0.7347;
480.3000;0.0895;-0.7236;
480.6000;0.0871;-0.7302;
480.9000;0.0879;-0.7324;
481.2000;0.0887;-0.7280;
481.5000;0.0871;-0.7347;
481.8000;0.0855;-0.7391;
482.1000;0.0887;-0.7369;
482.4000;0.0895;-0.7413;
482.7000;0.0904;-0.7413;
483.0000;0.0904;-0.7391;
483.3000;0.0887;-0.7457;
483.6000;0.0904;-0.7347;
483.9000;0.0969;-0.7170;
484.2000;0.0879;-0.7413;
484.5000;0.0920;-0.7324;
484.8000;0.0895;-0.7413;
485.1000;0.0895;-0.7457;
485.4000;0.0887;-0.7413;
485.7000;0.0887;-0.7413;
486.0000;0.0887;-0.7324;
486.3000;0.0895;-0.7236;
486.6000;0.0895;-0.7236;
486.9000;0.0887;-0.7214;
487.2000;0.0912;-0.7214;
487.5000;0.0879;-0.7324;
487.8000;0.0895;-0.7258;
488.1000;0.0928;-0.7324;
488.4000;0.0912;-0.7435;
488.7000;0.0912;-0.7391;
489.0000;0.0855;-0.7479;
489.3000;0.0887;-0.7413;
489.6000;0.0904;-0.7435;
489.9000;0.0961;-0.7324;
490.2000;0.0895;-0.7479;
490.5000;0.0879;-0.7413;
490.8000;0.0977;-0.7170;
491.1000;0.0887;-0.7413;
491.4000;0.0879;-0.7479;
491.7000;0.0781;-0.7590;
492.0000;0.0879;-0.7324;
492.3000;0.0895;-0.7258;
492.6000;0.0895;-0.7214;
492.9000;0.0765;-0.7501;
493.2000;0.0855;-0.7258;
493.5000;0.0895;-0.7236;
493.8000;0.0895;-0.7214;
494.1000;0.0887;-0.7302;
494.4000;0.0895;-0.7347;
494.7000;0.0904;-0.7369;
495.0000;0.0887;-0.7435;
495.3000;0.0944;-0.7302;
495.6000;0.0912;-0.7369;
495.9000;0.0895;-0.7302;
496.2000;0.0904;-0.7347;
496.5000;0.0879;-0.7347;
496.8000;0.0871;-0.7413;
497.1000;0.0887;-0.7369;
497.4000;0.0887;-0.7324;
497.7000;0.0863;-0.7413;
498.0000;0.0879;-0.7347;
498.3000;0.0879;-0.7347;
498.6000;0.0895;-0.7324;
498.9000;0.0912;-0.7302;
499.2000;0.0895;-0.7457;
499.5000;0.0895;-0.7391;
499.8000;0.0887;-0.7391;
500.1000;0.0895;-0.7324;
500.4000;0.0887;-0.7347;
500.7000;0.0969;-0.7192;
501.0000;0.0904;-0.7347;
501.3000;0.0920;-0.7302;
501.6000;0.0928;-0.7236;
501.9000;0.0879;-0.7324;
502.2000;0.0879;-0.7347;
502.5000;0.0920;-0.7214;
502.8000;0.0895;-0.7258;
503.1000;0.0749;-0.7634;
503.4000;0.0879;-0.7347;
503.7000;0.0871;-0.7347;
504.0000;0.0887;-0.7324;
504.3000;0.0887;-0.7324;
504.6000;0.0920;-0.7214;
504.9000;0.0838;-0.7435;
505.2000;0.0904;-0.7258;
505.5000;0.0879;-0.7236;
505.8000;0.0895;-0.7170;
506.1000;0.0904;-0.7147;
506.4000;0.0887;-0.7236;
506.7000;0.0879;-0.7369;
507.0000;0.0871;-0.7391;
507.3000;0.0871;-0.7391;
507.6000;0.0887;-0.7324;
507.9000;0.0822;-0.7479;
508.2000;0.0871;-0.7302;
508.5000;0.0879;-0.7258;
508.8000;0.0822;-0.7391;
509.1000;0.0879;-0.7324;
509.4000;0.0887;-0.7369;
509.7000;0.0887;-0.7391;
510.0000;0.0838;-0.7413;
510.3000;0.0838;-0.7391;
510.6000;0.0904;-0.7280;
510.9000;0.0895;-0.7280;
511.2000;0.0887;-0.7280;
511.5000;0.0879;-0.7258;
511.8000;0.0871;-0.7258;
512.1000;0.0838;-0.7324;
512.4000;0.0863;-0.7369;
512.7000;0.0895;-0.7302;
513.0000;0.0887;-0.7501;
513.3000;0.0920;-0.7435;
513.6000;0.0895;-0.7435;
513.9000;0.0969;-0.7302;
514.2000;0.0887;-0.7546;
514.5000;0.0879;-0.7546;
514.8000;0.0871;-0.7568;
515.1000;0.0904;-0.7501;
515.4000;0.0790;-0.7656;
515.7000;0.0944;-0.7324;
516.0000;0.0871;-0.7546;
516.3000;0.0936;-0.7347;
516.6000;0.0887;-0.7391;
516.9000;0.0904;-0.7347;
517.2000;0.0879;-0.7413;
517.5000;0.0904;-0.7324;
517.8000;0.0912;-0.7324;
518.1000;0.0993;-0.7125;
518.4000;0.0879;-0.7391;
518.7000;0.0887;-0.7347;
519.0000;0.0912;-0.7347;
519.3000;0.0912;-0.7347;
519.6000;0.0904;-0.7324;
519.9000;0.0879;-0.7457;
520.2000;0.0830;-0.7479;
520.5000;0.0879;-0.7435;
520.8000;0.0871;-0.7457;
521.1000;0.0879;-0.7435;
521.4000;0.0871;-0.7479;
521.7000;0.0952;-0.7324;
522.0000;0.0871;-0.7457;
522.3000;0.0904;-0.7324;
522.6000;0.0863;-0.7302;
522.9000;0.0871;-0.7280;
523.2000;0.0863;-0.7258;
523.5000;0.0822;-0.7391;
523.8000;0.0887;-0.7302;
524.1000;0.0904;-0.7280;
524.4000;0.0895;-0.7324;
524.7000;0.0904;-0.7369;
525.0000;0.0879;-0.7435;
525.3000;0.0895;-0.7324;
525.6000;0.0871;-0.7302;
525.9000;0.0912;-0.7192;
526.2000;0.0871;-0.7280;
526.5000;0.0887;-0.7236;
526.8000;0.0904;-0.7170;
527.1000;0.0920;-0.7147;
527.4000;0.0879;-0.7214;
527.7000;0.0928;-0.7081;
528.0000;0.0838;-0.7302;
528.3000;0.0871;-0.7236;
528.6000;0.0895;-0.7192;
528.9000;0.0863;-0.7236;
529.2000;0.0985;-0.6992;
529.5000;0.0879;-0.7280;
529.8000;0.0920;-0.7214;
530.1000;0.0863;-0.7280;
530.4000;0.0895;-0.7103;
530.7000;0.0847;-0.7236;
531.0000;0.0871;-0.7214;
531.3000;0.0871;-0.7324;
531.6000;0.0887;-0.7280;
531.9000;0.0928;-0.7214;
532.2000;0.0887;-0.7302;
532.5000;0.0887;-0.7391;
532.8000;0.0887;-0.7347;
533.1000;0.0879;-0.7457;
533.4000;0.0887;-0.7413;
533.7000;0.0814;-0.7524;
534.0000;0.0904;-0.7302;
534.3000;0.0904;-0.7324;
534.6000;0.0904;-0.7413;
534.9000;0.0887;-0.7435;
535.2000;0.0912;-0.7369;
535.5000;0.0887;-0.7413;
535.8000;0.0838;-0.7546;
536.1000;0.0863;-0.7435;
536.4000;0.0936;-0.7280;
536.7000;0.0855;-0.7457;
537.0000;0.0904;-0.7302;
537.3000;0.0961;-0.7170;
537.6000;0.0912;-0.7302;
537.9000;0.0904;-0.7435;
538.2000;0.0895;-0.7457;
538.5000;0.0887;-0.7413;
538.8000;0.0887;-0.7413;
539.1000;0.0838;-0.7413;
539.4000;0.0993;-0.7147;
539.7000;0.0936;-0.7302;
540.0000;0.0977;-0.7170;
540.3000;0.0879;-0.7369;
540.6000;0.0879;-0.7324;
540.9000;0.0863;-0.7413;
541.2000;0.0879;-0.7457;
541.5000;0.0871;-0.7501;
541.8000;0.0879;-0.7457;
542.1000;0.0879;-0.7391;
542.4000;0.0847;-0.7479;
542.7000;0.0887;-0.7435;
543.0000;0.0887;-0.7435;
543.3000;0.0904;-0.7369;
543.6000;0.0887;-0.7391;
543.9000;0.0895;-0.7302;
544.2000;0.0887;-0.7369;
544.5000;0.0961;-0.7170;
544.8000;0.0904;-0.7369;
545.1000;0.0847;-0.7457;
545.4000;0.0895;-0.7347;
545.7000;0.0757;-0.7678;
546.0000;0.0871;-0.7391;
546.3000;0.0879;-0.7391;
546.6000;0.0879;-0.7369;
546.9000;0.0879;-0.7347;
547.2000;0.0879;-0.7435;
547.5000;0.0822;-0.7634;
547.8000;0.0895;-0.7479;
548.1000;0.0871;-0.7524;
548.4000;0.0871;-0.7546;
548.7000;0.0838;-0.7546;
549.0000;0.0838;-0.7546;
549.3000;0.0887;-0.7479;
549.6000;0.0895;-0.7546;
549.9000;0.0904;-0.7524;
550.2000;0.0887;-0.7568;
550.5000;0.0879;-0.7568;
550.8000;0.0887;-0.7590;
551.1000;0.0879;-0.7612;
551.4000;0.0887;-0.7546;
551.7000;0.0887;-0.7612;
552.0000;0.0895;-0.7546;
552.3000;0.0895;-0.7524;
552.6000;0.0895;-0.7612;
552.9000;0.0871;-0.7612;
553.2000;0.0871;-0.7612;
553.5000;0.0887;-0.7501;
553.8000;0.0871;-0.7568;
554.1000;0.0838;-0.7612;
554.4000;0.0904;-0.7391;
554.7000;0.0895;-0.7479;
555.0000;0.0904;-0.7501;
555.3000;0.0822;-0.7767;
555.6000;0.0887;-0.7568;
555.9000;0.0904;-0.7501;
556.2000;0.0863;-0.7612;
556.5000;0.0830;-0.7723;
556.8000;0.1083;-0.7037;
557.1000;0.0895;-0.7546;
557.4000;0.0814;-0.7767;
557.7000;0.0773;-0.7922;
558.0000;0.0814;-0.7789;
558.3000;0.0871;-0.7612;
558.6000;0.0838;-0.7656;
558.9000;0.0904;-0.7501;
559.2000;0.0912;-0.7457;
559.5000;0.0895;-0.7501;
559.8000;0.0887;-0.7634;
560.1000;0.0871;-0.7678;
560.4000;0.0887;-0.7678;
560.7000;0.0895;-0.7701;
561.0000;0.0895;-0.7767;
561.3000;0.0928;-0.7656;
561.6000;0.0879;-0.7656;
561.9000;0.0871;-0.7678;
562.2000;0.0887;-0.7723;
562.5000;0.0904;-0.7656;
562.8000;0.0879;-0.7723;
563.1000;0.0912;-0.7590;
563.4000;0.0895;-0.7701;
563.7000;0.0895;-0.7634;
564.0000;0.0912;-0.7612;
564.3000;0.0879;-0.7656;
564.6000;0.0871;-0.7590;
564.9000;0.0904;-0.7568;
565.2000;0.0887;-0.7524;
565.5000;0.0912;-0.7413;
565.8000;0.0855;-0.7590;
566.1000;0.0887;-0.7546;
566.4000;0.0879;-0.7568;
566.7000;0.0887;-0.7501;
567.0000;0.0879;-0.7479;
567.3000;0.0895;-0.7524;
567.6000;0.0895;-0.7524;
567.9000;0.0895;-0.7479;
568.2000;0.0863;-0.7501;
568.5000;0.0887;-0.7391;
568.8000;0.0920;-0.7280;
569.1000;0.0871;-0.7501;
569.4000;0.0871;-0.7590;
569.7000;0.0822;-0.7678;
570.0000;0.0879;-0.7568;
570.3000;0.0871;-0.7568;
570.6000;0.0830;-0.7568;
570.9000;0.0920;-0.7280;
571.2000;0.0879;-0.7457;
571.5000;0.0879;-0.7413;
571.8000;0.0879;-0.7457;
572.1000;0.0920;-0.7391;
572.4000;0.0912;-0.7347;
572.7000;0.0895;-0.7413;
573.0000;0.0920;-0.7391;
573.3000;0.0887;-0.7369;
573.6000;0.0904;-0.7369;
573.9000;0.0912;-0.7391;
574.2000;0.0855;-0.7546;
574.5000;0.0887;-0.7501;
574.8000;0.0871;-0.7546;
575.1000;0.0871;-0.7524;
575.4000;0.0895;-0.7391;
575.7000;0.0887;-0.7501;
576.0000;0.0912;-0.7457;
576.3000;0.0895;-0.7501;
576.6000;0.0895;-0.7479;
576.9000;0.0895;-0.7435;
577.2000;0.1026;-0.7103;
577.5000;0.0847;-0.7524;
577.8000;0.0879;-0.7369;
578.1000;0.0863;-0.7435;
578.4000;0.0895;-0.7369;
578.7000;0.0912;-0.7457;
579.0000;0.0912;-0.7391;
579.3000;0.0806;-0.7656;
579.6000;0.0879;-0.7479;
579.9000;0.0863;-0.7479;
580.2000;0.0895;-0.7479;
580.5000;0.0928;-0.7369;
580.8000;0.0887;-0.7435;
581.1000;0.0887;-0.7457;
581.4000;0.0912;-0.7435;
581.7000;0.0806;-0.7634;
582.0000;0.0855;-0.7479;
582.3000;0.0895;-0.7302;
582.6000;0.0871;-0.7302;
582.9000;0.0830;-0.7435;
583.2000;0.0904;-0.7391;
583.5000;0.0871;-0.7457;
583.8000;0.0912;-0.7347;
584.1000;0.0855;-0.7479;
584.4000;0.0887;-0.7369;
584.7000;0.0879;-0.7391;
585.0000;0.0904;-0.7302;
585.3000;0.0920;-0.7258;
585.6000;0.0928;-0.7214;
585.9000;0.0912;-0.7192;
586.2000;0.0977;-0.7037;
586.5000;0.0887;-0.7280;
586.8000;0.0904;-0.7236;
587.1000;0.0895;-0.7236;
587.4000;0.0822;-0.7501;
587.7000;0.0879;-0.7302;
588.0000;0.0895;-0.7236;
588.3000;0.0904;-0.7236;
588.6000;0.0895;-0.7192;
588.9000;0.0912;-0.7170;
589.2000;0.0879;-0.7214;
589.5000;0.0855;-0.7302;
589.8000;0.0871;-0.7236;
590.1000;0.0985;-0.6926;
590.4000;0.0887;-0.7103;
590.7000;0.0912;-0.7059;
591.0000;0.0895;-0.7059;
591.3000;0.0887;-0.7059;
591.6000;0.0920;-0.6970;
591.9000;0.0879;-0.7081;
592.2000;0.0879;-0.7059;
592.5000;0.0830;-0.7170;
592.8000;0.0904;-0.6948;
593.1000;0.0879;-0.7015;
593.4000;0.0879;-0.7037;
593.7000;0.0806;-0.7147;
594.0000;0.0952;-0.6793;
594.3000;0.0887;-0.7015;
594.6000;0.0863;-0.7037;
594.9000;0.0887;-0.7059;
595.2000;0.0814;-0.7347;
595.5000;0.0912;-0.7125;
595.8000;0.0887;-0.7125;
596.1000;0.0912;-0.7015;
596.4000;0.0912;-0.7037;
596.7000;0.0863;-0.7192;
597.0000;0.0895;-0.7081;
597.3000;0.0912;-0.7037;
597.6000;0.0904;-0.6970;
597.9000;0.0904;-0.7015;
598.2000;0.0936;-0.6992;
598.5000;0.0977;-0.6860;
598.8000;0.0912;-0.7059;
599.1000;0.0895;-0.7059;
599.4000;0.0871;-0.7125;
599.7000;0.0904;-0.7037;
600.0000;0.0895;-0.7059;
600.3000;0.0936;-0.6992;
600.6000;0.0863;-0.7081;
600.9000;0.0855;-0.7258;
601.2000;0.0879;-0.7214;
601.5000;0.0871;-0.7369;
601.8000;0.0871;-0.7435;
602.1000;0.0961;-0.7324;
602.4000;0.0871;-0.7524;
602.7000;0.0887;-0.7524;
603.0000;0.0871;-0.7701;
603.3000;0.0838;-0.7855;
603.6000;0.0847;-0.7944;
603.9000;0.0847;-0.7988;
604.2000;0.0855;-0.8010;
604.5000;0.0863;-0.8010;
604.8000;0.0830;-0.8143;
605.1000;0.0822;-0.8187;
605.4000;0.0798;-0.8342;
605.7000;0.0781;-0.8431;
606.0000;0.0847;-0.8276;
606.3000;0.0936;-0.7944;
606.6000;0.0838;-0.8165;
606.9000;0.0806;-0.8254;
607.2000;0.0757;-0.8364;
607.5000;0.0830;-0.8342;
607.8000;0.0741;-0.8630;
608.1000;0.0781;-0.8519;
608.4000;0.0749;-0.8630;
608.7000;0.0822;-0.8453;
609.0000;0.0806;-0.8497;
609.3000;0.0781;-0.8519;
609.6000;0.0798;-0.8431;
609.9000;0.0928;-0.8187;
610.2000;0.0790;-0.8519;
610.5000;0.0798;-0.8541;
610.8000;0.0716;-0.8829;
611.1000;0.0822;-0.8586;
611.4000;0.0724;-0.8785;
611.7000;0.0790;-0.8630;
612.0000;0.0765;-0.8674;
612.3000;0.0806;-0.8608;
612.6000;0.0798;-0.8541;
612.9000;0.0741;-0.8674;
613.2000;0.0790;-0.8541;
613.5000;0.0781;-0.8475;
613.8000;0.0790;-0.8497;
614.1000;0.0798;-0.8453;
614.4000;0.0798;-0.8453;
614.7000;0.0757;-0.8519;
615.0000;0.0798;-0.8497;
615.3000;0.0847;-0.8431;
615.6000;0.0790;-0.8564;
615.9000;0.0806;-0.8475;
616.2000;0.0798;-0.8586;
616.5000;0.0798;-0.8652;
616.8000;0.0798;-0.8630;
617.1000;0.0643;-0.9028;
617.4000;0.0781;-0.8718;
617.7000;0.0765;-0.8696;
618.0000;0.0798;-0.8608;
618.3000;0.0814;-0.8519;
618.6000;0.0781;-0.8564;
618.9000;0.0773;-0.8564;
619.2000;0.0757;-0.8586;
619.5000;0.0790;-0.8497;
619.8000;0.0765;-0.8630;
620.1000;0.0773;-0.8608;
620.4000;0.0790;-0.8652;
620.7000;0.0773;-0.8696;
621.0000;0.0781;-0.8741;
621.3000;0.0749;-0.8741;
621.6000;0.0773;-0.8785;
621.9000;0.0790;-0.8741;
622.2000;0.0773;-0.8763;
622.5000;0.0765;-0.8718;
622.8000;0.0781;-0.8608;
623.1000;0.0790;-0.8453;
623.4000;0.0790;-0.8342;
623.7000;0.0765;-0.8453;
624.0000;0.0733;-0.8586;
624.3000;0.0814;-0.8320;
624.6000;0.0773;-0.8453;
624.9000;0.0765;-0.8453;
625.2000;0.0887;-0.8187;
625.5000;0.0773;-0.8564;
625.8000;0.0716;-0.8652;
626.1000;0.0741;-0.8608;
626.4000;0.0765;-0.8497;
626.7000;0.0790;-0.8431;
627.0000;0.0781;-0.8541;
627.3000;0.0814;-0.8320;
627.6000;0.0879;-0.8099;
627.9000;0.0790;-0.8232;
628.2000;0.0781;-0.8254;
628.5000;0.0773;-0.8298;
628.8000;0.0790;-0.8254;
629.1000;0.0773;-0.8320;
629.4000;0.0822;-0.8276;
629.7000;0.0871;-0.8165;
630.0000;0.0773;-0.8320;
630.3000;0.0749;-0.8387;
630.6000;0.0790;-0.8342;
630.9000;0.0781;-0.8409;
631.2000;0.0741;-0.8497;
631.5000;0.0724;-0.8519;
631.8000;0.0635;-0.8674;
632.1000;0.0757;-0.8342;
632.4000;0.0659;-0.8608;
632.7000;0.0822;-0.8210;
633.0000;0.0879;-0.8077;
633.3000;0.0749;-0.8320;
633.6000;0.0765;-0.8320;
633.9000;0.0741;-0.8387;
634.2000;0.0765;-0.8364;
634.5000;0.0773;-0.8409;
634.8000;0.0781;-0.8364;
635.1000;0.0765;-0.8387;
635.4000;0.0790;-0.8232;
635.7000;0.0781;-0.8254;
636.0000;0.0773;-0.8342;
636.3000;0.0773;-0.8276;
636.6000;0.0765;-0.8254;
636.9000;0.0757;-0.8276;
637.2000;0.0773;-0.8254;
637.5000;0.0749;-0.8298;
637.8000;0.0749;-0.8298;
638.1000;0.0749;-0.8364;
638.4000;0.0773;-0.8276;
638.7000;0.0749;-0.8342;
639.0000;0.0741;-0.8431;
639.3000;0.0757;-0.8387;
639.6000;0.0773;-0.8364;
639.9000;0.0724;-0.8475;
640.2000;0.0757;-0.8431;
640.5000;0.0765;-0.8475;
640.8000;0.0757;-0.8564;
641.1000;0.0781;-0.8497;
641.4000;0.0773;-0.8497;
641.7000;0.0765;-0.8497;
642.0000;0.0790;-0.8409;
642.3000;0.0741;-0.8519;
642.6000;0.0733;-0.8475;
642.9000;0.0749;-0.8475;
643.2000;0.0790;-0.8387;
643.5000;0.0765;-0.8387;
643.8000;0.0790;-0.8342;
644.1000;0.0733;-0.8541;
644.4000;0.0749;-0.8387;
644.7000;0.0781;-0.8298;
645.0000;0.0773;-0.8364;
645.3000;0.0700;-0.8541;
645.6000;0.0741;-0.8431;
645.9000;0.0781;-0.8409;
646.2000;0.0830;-0.8232;
646.5000;0.0749;-0.8409;
646.8000;0.0692;-0.8453;
647.1000;0.0741;-0.8320;
647.4000;0.0749;-0.8364;
647.7000;0.0708;-0.8586;
648.0000;0.0741;-0.8431;
648.3000;0.0773;-0.8387;
648.6000;0.0733;-0.8453;
648.9000;0.0765;-0.8387;
649.2000;0.0741;-0.8431;
649.5000;0.0733;-0.8475;
649.8000;0.0708;-0.8541;
650.1000;0.0765;-0.8431;
650.4000;0.0749;-0.8497;
650.7000;0.0733;-0.8586;
651.0000;0.0757;-0.8497;
651.3000;0.0749;-0.8586;
651.6000;0.0733;-0.8630;
651.9000;0.0741;-0.8541;
652.2000;0.0741;-0.8608;
652.5000;0.0741;-0.8608;
652.8000;0.0879;-0.8232;
653.1000;0.0716;-0.8652;
653.4000;0.0741;-0.8608;
653.7000;0.0684;-0.8807;
654.0000;0.0733;-0.8763;
654.3000;0.0741;-0.8829;
654.6000;0.0765;-0.8785;
654.9000;0.0749;-0.8785;
655.2000;0.0847;-0.8475;
655.5000;0.0741;-0.8652;
655.8000;0.0741;-0.8608;
656.1000;0.0847;-0.8342;
656.4000;0.0757;-0.8586;
656.7000;0.0724;-0.8674;
657.0000;0.0749;-0.8630;
657.3000;0.0749;-0.8586;
657.6000;0.0741;-0.8497;
657.9000;0.0749;-0.8497;
658.2000;0.0741;-0.8475;
658.5000;0.0757;-0.8387;
658.8000;0.0757;-0.8364;
659.1000;0.0733;-0.8409;
659.4000;0.0741;-0.8364;
659.7000;0.0749;-0.8342;
660.0000;0.0765;-0.8298;
660.3000;0.0724;-0.8431;
660.6000;0.0749;-0.8342;
660.9000;0.0741;-0.8387;
661.2000;0.0692;-0.8453;
661.5000;0.0749;-0.8342;
661.8000;0.0724;-0.8431;
662.1000;0.0733;-0.8387;
662.4000;0.0724;-0.8320;
662.7000;0.0741;-0.8298;
663.0000;0.0708;-0.8409;
663.3000;0.0733;-0.8431;
663.6000;0.0716;-0.8586;
663.9000;0.0741;-0.8497;
664.2000;0.0716;-0.8497;
664.5000;0.0749;-0.8453;
664.8000;0.0700;-0.8497;
665.1000;0.0749;-0.8364;
665.4000;0.0765;-0.8342;
665.7000;0.0773;-0.8342;
666.0000;0.0733;-0.8475;
666.3000;0.0708;-0.8519;
666.6000;0.0741;-0.8453;
666.9000;0.0749;-0.8409;
667.2000;0.0724;-0.8519;
667.5000;0.0749;-0.8475;
667.8000;0.0749;-0.8497;
668.1000;0.0724;-0.8497;
668.4000;0.0716;-0.8519;
668.7000;0.0724;-0.8564;
669.0000;0.0773;-0.8475;
669.3000;0.0733;-0.8608;
669.6000;0.0741;-0.8608;
669.9000;0.0749;-0.8608;
670.2000;0.0724;-0.8674;
670.5000;0.0741;-0.8564;
670.8000;0.0708;-0.8652;
671.1000;0.0733;-0.8630;
671.4000;0.0749;-0.8564;
671.7000;0.0749;-0.8674;
672.0000;0.0757;-0.8652;
672.3000;0.0806;-0.8453;
672.6000;0.0773;-0.8453;
672.9000;0.0733;-0.8453;
673.2000;0.0749;-0.8409;
673.5000;0.0741;-0.8453;
673.8000;0.0765;-0.8387;
674.1000;0.0700;-0.8519;
674.4000;0.0749;-0.8342;
674.7000;0.0724;-0.8431;
675.0000;0.0724;-0.8409;
675.3000;0.0733;-0.8342;
675.6000;0.0733;-0.8342;
675.9000;0.0749;-0.8431;
676.2000;0.0676;-0.8586;
676.5000;0.0724;-0.8519;
676.8000;0.0749;-0.8519;
677.1000;0.0749;-0.8431;
677.4000;0.0692;-0.8541;
677.7000;0.0749;-0.8409;
678.0000;0.0741;-0.8541;
678.3000;0.0741;-0.8541;
678.6000;0.0749;-0.8497;
678.9000;0.0724;-0.8342;
679.2000;0.0749;-0.8298;
679.5000;0.0749;-0.8320;
679.8000;0.0781;-0.8276;
680.1000;0.0757;-0.8342;
680.4000;0.0749;-0.8342;
680.7000;0.0733;-0.8431;
681.0000;0.0749;-0.8342;
681.3000;0.0749;-0.8320;
681.6000;0.0733;-0.8342;
681.9000;0.0757;-0.8387;
682.2000;0.0733;-0.8475;
682.5000;0.0733;-0.8453;
682.8000;0.0724;-0.8342;
683.1000;0.0765;-0.8298;
683.4000;0.0716;-0.8320;
683.7000;0.0749;-0.8232;
684.0000;0.0741;-0.8187;
684.3000;0.0741;-0.8210;
684.6000;0.0765;-0.8143;
684.9000;0.0749;-0.8187;
685.2000;0.0724;-0.8276;
685.5000;0.0724;-0.8342;
685.8000;0.0733;-0.8387;
686.1000;0.0700;-0.8475;
686.4000;0.0749;-0.8409;
686.7000;0.0741;-0.8320;
687.0000;0.0741;-0.8431;
687.3000;0.0741;-0.8453;
687.6000;0.0749;-0.8431;
687.9000;0.0733;-0.8475;
688.2000;0.0724;-0.8497;
688.5000;0.0667;-0.8630;
688.8000;0.0676;-0.8652;
689.1000;0.0757;-0.8364;
689.4000;0.0741;-0.8342;
689.7000;0.0724;-0.8409;
690.0000;0.0749;-0.8364;
690.3000;0.0716;-0.8409;
690.6000;0.0765;-0.8320;
690.9000;0.0749;-0.8298;
691.2000;0.0757;-0.8342;
691.5000;0.0749;-0.8387;
691.8000;0.0749;-0.8387;
692.1000;0.0724;-0.8519;
692.4000;0.0733;-0.8475;
692.7000;0.0724;-0.8608;
693.0000;0.0724;-0.8564;
693.3000;0.0806;-0.8342;
693.6000;0.0716;-0.8541;
693.9000;0.0724;-0.8475;
694.2000;0.0773;-0.8364;
694.5000;0.0684;-0.8630;
694.8000;0.0676;-0.8741;
695.1000;0.0749;-0.8564;
695.4000;0.0749;-0.8497;
695.7000;0.0724;-0.8541;
696.0000;0.0724;-0.8564;
696.3000;0.0724;-0.8652;
696.6000;0.0724;-0.8652;
696.9000;0.0741;-0.8674;
697.2000;0.0798;-0.8387;
697.5000;0.0708;-0.8608;
697.8000;0.0741;-0.8541;
698.1000;0.0741;-0.8497;
698.4000;0.0733;-0.8564;
698.7000;0.0733;-0.8519;
699.0000;0.0765;-0.8431;
699.3000;0.0749;-0.8497;
699.6000;0.0733;-0.8475;
699.9000;0.0773;-0.8497;
700.2000;0.0733;-0.8586;
700.5000;0.0749;-0.8586;
700.8000;0.0904;-0.8165;
701.1000;0.0733;-0.8541;
701.4000;0.0741;-0.8453;
701.7000;0.0749;-0.8431;
702.0000;0.0733;-0.8387;
702.3000;0.0724;-0.8409;
702.6000;0.0724;-0.8409;
702.9000;0.0741;-0.8364;
703.2000;0.0667;-0.8431;
703.5000;0.0733;-0.8254;
703.8000;0.0692;-0.8431;
704.1000;0.0749;-0.8342;
704.4000;0.0765;-0.8276;
704.7000;0.0724;-0.8320;
705.0000;0.0733;-0.8276;
705.3000;0.0733;-0.8387;
705.6000;0.0724;-0.8453;
705.9000;0.0716;-0.8453;
706.2000;0.0749;-0.8409;
706.5000;0.0741;-0.8431;
706.8000;0.0724;-0.8497;
707.1000;0.0733;-0.8519;
707.4000;0.0741;-0.8519;
707.7000;0.0724;-0.8564;
708.0000;0.0733;-0.8497;
708.3000;0.0749;-0.8431;
708.6000;0.0781;-0.8431;
708.9000;0.0741;-0.8586;
709.2000;0.0765;-0.8586;
709.5000;0.0749;-0.8652;
709.8000;0.0757;-0.8608;
710.1000;0.0741;-0.8630;
710.4000;0.0741;-0.8586;
710.7000;0.0741;-0.8519;
711.0000;0.0773;-0.8342;
711.3000;0.0724;-0.8453;
711.6000;0.0814;-0.8210;
711.9000;0.0733;-0.8387;
712.2000;0.0700;-0.8431;
712.5000;0.0749;-0.8453;
712.8000;0.0733;-0.8475;
713.1000;0.0773;-0.8342;
713.4000;0.0757;-0.8320;
713.7000;0.0724;-0.8387;
714.0000;0.0716;-0.8409;
714.3000;0.0749;-0.8364;
714.6000;0.0790;-0.8210;
714.9000;0.0749;-0.8276;
715.2000;0.0749;-0.8276;
715.5000;0.0741;-0.8320;
715.8000;0.0741;-0.8298;
716.1000;0.0741;-0.8298;
716.4000;0.0635;-0.8564;
716.7000;0.0733;-0.8276;
717.0000;0.0724;-0.8342;
717.3000;0.0814;-0.8099;
717.6000;0.0741;-0.8320;
717.9000;0.0716;-0.8342;
718.2000;0.0708;-0.8298;
718.5000;0.0692;-0.8409;
718.8000;0.0724;-0.8320;
719.1000;0.0749;-0.8298;
719.4000;0.0724;-0.8409;
719.7000;0.0708;-0.8519;
720.0000;0.0733;-0.8519;
720.3000;0.0733;-0.8519;
720.6000;0.0830;-0.8320;
720.9000;0.0733;-0.8519;
721.2000;0.0733;-0.8431;
721.5000;0.0700;-0.8387;
721.8000;0.0822;-0.8099;
722.1000;0.0733;-0.8254;
722.4000;0.0749;-0.8364;
722.7000;0.0700;-0.8497;
723.0000;0.0724;-0.8475;
723.3000;0.0838;-0.8254;
723.6000;0.0822;-0.8276;
723.9000;0.0822;-0.8342;
724.2000;0.0765;-0.8387;
724.5000;0.0716;-0.8541;
724.8000;0.0724;-0.8564;
725.1000;0.0749;-0.8475;
725.4000;0.0741;-0.8431;
725.7000;0.0765;-0.8453;
726.0000;0.0798;-0.8475;
726.3000;0.0790;-0.8497;
726.6000;0.0733;-0.8586;
726.9000;0.0749;-0.8541;
727.2000;0.0667;-0.8785;
727.5000;0.0749;-0.8630;
727.8000;0.0733;-0.8630;
728.1000;0.0741;-0.8608;
728.4000;0.0733;-0.8519;
728.7000;0.0749;-0.8431;
729.0000;0.0733;-0.8519;
729.3000;0.0708;-0.8608;
729.6000;0.0733;-0.8696;
729.9000;0.0733;-0.8718;
730.2000;0.0700;-0.8807;
730.5000;0.0716;-0.8718;
730.8000;0.0724;-0.8564;
731.1000;0.0733;-0.8541;
731.4000;0.0708;-0.8586;
731.7000;0.0733;-0.8652;
732.0000;0.0716;-0.8630;
732.3000;0.0724;-0.8652;
732.6000;0.0676;-0.8696;
732.9000;0.0676;-0.8630;
733.2000;0.0724;-0.8674;
733.5000;0.0724;-0.8586;
733.8000;0.0716;-0.8564;
734.1000;0.0733;-0.8497;
734.4000;0.0757;-0.8364;
734.7000;0.0798;-0.8232;
735.0000;0.0733;-0.8276;
735.3000;0.0757;-0.8165;
735.6000;0.0724;-0.8254;
735.9000;0.0741;-0.8187;
736.2000;0.0749;-0.8232;
736.5000;0.0716;-0.8342;
736.8000;0.0733;-0.8254;
737.1000;0.0733;-0.8276;
737.4000;0.0724;-0.8320;
737.7000;0.0741;-0.8254;
738.0000;0.0724;-0.8232;
738.3000;0.0757;-0.8210;
738.6000;0.0765;-0.8187;
738.9000;0.0749;-0.8187;
739.2000;0.0684;-0.8276;
739.5000;0.0749;-0.8143;
739.8000;0.0733;-0.8187;
740.1000;0.0781;-0.8055;
740.4000;0.0684;-0.8254;
740.7000;0.0741;-0.8055;
741.0000;0.0733;-0.8010;
741.3000;0.0635;-0.8298;
741.6000;0.0741;-0.8055;
741.9000;0.0741;-0.8055;
742.2000;0.0822;-0.7855;
742.5000;0.0724;-0.8165;
742.8000;0.0716;-0.8210;
743.1000;0.0708;-0.8276;
743.4000;0.0676;-0.8342;
743.7000;0.0700;-0.8254;
744.0000;0.0733;-0.8099;
744.3000;0.0724;-0.8165;
744.6000;0.0765;-0.8033;
744.9000;0.0741;-0.8099;
745.2000;0.0741;-0.8099;
745.5000;0.0733;-0.8099;
745.8000;0.0733;-0.8143;
746.1000;0.0741;-0.8165;
746.4000;0.0749;-0.8165;
746.7000;0.0724;-0.8276;
747.0000;0.0757;-0.8143;
747.3000;0.0733;-0.8232;
747.6000;0.0773;-0.8165;
747.9000;0.0676;-0.8409;
748.2000;0.0757;-0.8232;
748.5000;0.0757;-0.8276;
748.8000;0.0716;-0.8320;
749.1000;0.0733;-0.8165;
749.4000;0.0733;-0.8143;
749.7000;0.0659;-0.8320;
750.0000;0.0716;-0.8187;
750.3000;0.0708;-0.8165;
750.6000;0.0741;-0.8055;
750.9000;0.0741;-0.8033;
751.2000;0.0790;-0.7944;
751.5000;0.0716;-0.8099;
751.8000;0.0676;-0.8187;
752.1000;0.0733;-0.8121;
752.4000;0.0716;-0.8143;
752.7000;0.0765;-0.8010;
753.0000;0.0716;-0.8165;
753.3000;0.0716;-0.8143;
753.6000;0.0741;-0.8055;
753.9000;0.0757;-0.8010;
754.2000;0.0749;-0.8077;
754.5000;0.0733;-0.8187;
754.8000;0.0741;-0.8165;
755.1000;0.0749;-0.8165;
755.4000;0.0724;-0.8276;
755.7000;0.0765;-0.8210;
756.0000;0.0716;-0.8320;
756.3000;0.0700;-0.8364;
756.6000;0.0806;-0.8099;
756.9000;0.0716;-0.8342;
757.2000;0.0716;-0.8342;
757.5000;0.0724;-0.8387;
757.8000;0.0724;-0.8387;
758.1000;0.0741;-0.8364;
758.4000;0.0733;-0.8320;
758.7000;0.0741;-0.8342;
759.0000;0.0749;-0.8210;
759.3000;0.0716;-0.8320;
759.6000;0.0724;-0.8342;
759.9000;0.0757;-0.8298;
760.2000;0.0724;-0.8387;
760.5000;0.0724;-0.8254;
760.8000;0.0700;-0.8387;
761.1000;0.0733;-0.8320;
761.4000;0.0692;-0.8342;
761.7000;0.0765;-0.8210;
762.0000;0.0749;-0.8320;
762.3000;0.0806;-0.8165;
762.6000;0.0724;-0.8298;
762.9000;0.0733;-0.8254;
763.2000;0.0724;-0.8143;
763.5000;0.0773;-0.7966;
763.8000;0.0757;-0.7988;
764.1000;0.0594;-0.8409;
764.4000;0.0830;-0.7811;
764.7000;0.0716;-0.8099;
765.0000;0.0716;-0.8099;
765.3000;0.0765;-0.8055;
765.6000;0.0716;-0.8210;
765.9000;0.0733;-0.8143;
766.2000;0.0757;-0.8232;
766.5000;0.0741;-0.8210;
766.8000;0.0733;-0.8187;
767.1000;0.0765;-0.8165;
767.4000;0.0724;-0.8276;
767.7000;0.0733;-0.8254;
768.0000;0.0741;-0.8232;
768.3000;0.0741;-0.8232;
768.6000;0.0708;-0.8187;
768.9000;0.0749;-0.8077;
769.2000;0.0724;-0.8165;
769.5000;0.0733;-0.8165;
769.8000;0.0733;-0.8143;
770.1000;0.0765;-0.8033;
770.4000;0.0733;-0.8077;
770.7000;0.0692;-0.8187;
771.0000;0.0733;-0.8099;
771.3000;0.0741;-0.8055;
771.6000;0.0733;-0.8033;
771.9000;0.0757;-0.7966;
772.2000;0.0741;-0.8055;
772.5000;0.0708;-0.8165;
772.8000;0.0733;-0.8099;
773.1000;0.0741;-0.8010;
773.4000;0.0733;-0.8033;
773.7000;0.0733;-0.7988;
774.0000;0.0765;-0.7900;
774.3000;0.0749;-0.7922;
774.6000;0.0765;-0.7878;
774.9000;0.0733;-0.7988;
775.2000;0.0643;-0.8210;
775.5000;0.0741;-0.8033;
775.8000;0.0733;-0.8055;
776.1000;0.0741;-0.7988;
776.4000;0.0716;-0.8121;
776.7000;0.0716;-0.8121;
777.0000;0.0594;-0.8409;
777.3000;0.0749;-0.8055;
777.6000;0.0724;-0.8165;
777.9000;0.0757;-0.8010;
778.2000;0.0724;-0.8055;
778.5000;0.0724;-0.8099;
778.8000;0.0716;-0.8121;
779.1000;0.0716;-0.8121;
779.4000;0.0733;-0.8099;
779.7000;0.0757;-0.8099;
780.0000;0.0749;-0.8121;
780.3000;0.0708;-0.8210;
780.6000;0.0733;-0.8165;
780.9000;0.0724;-0.8165;
781.2000;0.0757;-0.8099;
781.5000;0.0847;-0.8010;
781.8000;0.0716;-0.8276;
782.1000;0.0798;-0.8187;
782.4000;0.0749;-0.8298;
782.7000;0.0724;-0.8276;
783.0000;0.0692;-0.8387;
783.3000;0.0724;-0.8298;
783.6000;0.0733;-0.8254;
783.9000;0.0773;-0.8165;
784.2000;0.0741;-0.8165;
784.5000;0.0741;-0.8121;
784.8000;0.0733;-0.8143;
785.1000;0.0806;-0.8033;
785.4000;0.0724;-0.8187;
785.7000;0.0716;-0.8165;
786.0000;0.0708;-0.8165;
786.3000;0.0716;-0.8165;
786.6000;0.0733;-0.8121;
786.9000;0.0724;-0.8099;
787.2000;0.0708;-0.8055;
787.5000;0.0733;-0.7988;
787.8000;0.0692;-0.8121;
788.1000;0.0724;-0.8143;
788.4000;0.0749;-0.8010;
788.7000;0.0749;-0.8055;
789.0000;0.0741;-0.8077;
789.3000;0.0692;-0.8298;
789.6000;0.0757;-0.8210;
789.9000;0.0716;-0.8342;
790.2000;0.0733;-0.8298;
790.5000;0.0708;-0.8409;
790.8000;0.0724;-0.8364;
791.1000;0.0741;-0.8298;
791.4000;0.0741;-0.8298;
791.7000;0.0733;-0.8320;
792.0000;0.0643;-0.8608;
792.3000;0.0733;-0.8364;
792.6000;0.0757;-0.8342;
792.9000;0.0765;-0.8276;
793.2000;0.0749;-0.8320;
793.5000;0.0733;-0.8409;
793.8000;0.0733;-0.8409;
794.1000;0.0741;-0.8387;
794.4000;0.0733;-0.8475;
794.7000;0.0724;-0.8497;
795.0000;0.0830;-0.8187;
795.3000;0.0733;-0.8364;
795.6000;0.0724;-0.8453;
795.9000;0.0716;-0.8564;
796.2000;0.0700;-0.8497;
796.5000;0.0724;-0.8409;
796.8000;0.0741;-0.8387;
797.1000;0.0749;-0.8364;
797.4000;0.0708;-0.8431;
797.7000;0.0733;-0.8387;
798.0000;0.0757;-0.8276;
798.3000;0.0749;-0.8254;
798.6000;0.0700;-0.8342;
798.9000;0.0733;-0.8320;
799.2000;0.0716;-0.8276;
799.5000;0.0716;-0.8165;
799.8000;0.0822;-0.7878;
800.1000;0.0733;-0.8165;
800.4000;0.0700;-0.8254;
800.7000;0.0692;-0.8276;
801.0000;0.0724;-0.8254;
801.3000;0.0716;-0.8254;
801.6000;0.0733;-0.8165;
801.9000;0.0733;-0.8165;
802.2000;0.0855;-0.7789;
802.5000;0.0741;-0.8143;
802.8000;0.0716;-0.8187;
803.1000;0.0765;-0.8077;
803.4000;0.0733;-0.8165;
803.7000;0.0741;-0.8165;
804.0000;0.0724;-0.8165;
804.3000;0.0757;-0.8143;
804.6000;0.0741;-0.8165;
804.9000;0.0733;-0.8099;
805.2000;0.0733;-0.8077;
805.5000;0.0724;-0.8010;
805.8000;0.0716;-0.8055;
806.1000;0.0733;-0.8033;
806.4000;0.0724;-0.8143;
806.7000;0.0724;-0.8298;
807.0000;0.0708;-0.8342;
807.3000;0.0733;-0.8320;
807.6000;0.0716;-0.8387;
807.9000;0.0708;-0.8342;
808.2000;0.0741;-0.8320;
808.5000;0.0749;-0.8276;
808.8000;0.0757;-0.8210;
809.1000;0.0724;-0.8099;
809.4000;0.0627;-0.8254;
809.7000;0.0741;-0.8077;
810.0000;0.0733;-0.8099;
810.3000;0.0733;-0.8165;
810.6000;0.0733;-0.8143;
810.9000;0.0741;-0.8187;
811.2000;0.0733;-0.8210;
811.5000;0.0733;-0.8121;
811.8000;0.0733;-0.8077;
812.1000;0.0716;-0.8165;
812.4000;0.0692;-0.8276;
812.7000;0.0716;-0.8210;
813.0000;0.0757;-0.8121;
813.3000;0.0724;-0.8187;
813.6000;0.0741;-0.8143;
813.9000;0.0724;-0.8143;
814.2000;0.0733;-0.8187;
814.5000;0.0773;-0.8210;
814.8000;0.0659;-0.8497;
815.1000;0.0749;-0.8187;
815.4000;0.0757;-0.8187;
815.7000;0.0741;-0.8187;
816.0000;0.0692;-0.8387;
816.3000;0.0757;-0.8342;
816.6000;0.0765;-0.8276;
816.9000;0.0716;-0.8342;
817.2000;0.0879;-0.7900;
817.5000;0.0749;-0.8254;
817.8000;0.0716;-0.8320;
818.1000;0.0757;-0.8320;
818.4000;0.0806;-0.8254;
818.7000;0.0733;-0.8409;
819.0000;0.0749;-0.8431;
819.3000;0.0765;-0.8298;
819.6000;0.0733;-0.8276;
819.9000;0.0773;-0.8077;
820.2000;0.0741;-0.8121;
820.5000;0.0724;-0.8165;
820.8000;0.0716;-0.8143;
821.1000;0.0749;-0.8077;
821.4000;0.0733;-0.8165;
821.7000;0.0741;-0.8210;
822.0000;0.0659;-0.8364;
822.3000;0.0733;-0.8232;
822.6000;0.0741;-0.8187;
822.9000;0.0724;-0.8187;
823.2000;0.0716;-0.8254;
823.5000;0.0741;-0.8232;
823.8000;0.0733;-0.8298;
824.1000;0.0733;-0.8254;
824.4000;0.0716;-0.8165;
824.7000;0.0741;-0.8055;
825.0000;0.0733;-0.8099;
825.3000;0.0724;-0.8121;
825.6000;0.0724;-0.8143;
825.9000;0.0741;-0.8143;
826.2000;0.0716;-0.8232;
826.5000;0.0724;-0.8298;
826.8000;0.0651;-0.8497;
827.1000;0.0724;-0.8276;
827.4000;0.0716;-0.8276;
827.7000;0.0733;-0.8187;
828.0000;0.0765;-0.8143;
828.3000;0.0708;-0.8276;
828.6000;0.0716;-0.8143;
828.9000;0.0724;-0.8099;
829.2000;0.0757;-0.8099;
829.5000;0.0741;-0.8121;
829.8000;0.0676;-0.8320;
830.1000;0.0733;-0.8210;
830.4000;0.0741;-0.8254;
830.7000;0.0724;-0.8342;
831.0000;0.0773;-0.8187;
831.3000;0.0757;-0.8232;
831.6000;0.0757;-0.8187;
831.9000;0.0700;-0.8210;
832.2000;0.0716;-0.8121;
832.5000;0.0724;-0.8033;
832.8000;0.0724;-0.8077;
833.1000;0.0773;-0.7922;
833.4000;0.0716;-0.8055;
833.7000;0.0708;-0.8165;
834.0000;0.0724;-0.8121;
834.3000;0.0855;-0.7789;
834.6000;0.0724;-0.8055;
834.9000;0.0724;-0.8099;
835.2000;0.0724;-0.8165;
835.5000;0.0765;-0.8099;
835.8000;0.0790;-0.8099;
836.1000;0.0627;-0.8453;
836.4000;0.0741;-0.8210;
836.7000;0.0627;-0.8497;
837.0000;0.0708;-0.8254;
837.3000;0.0724;-0.8232;
837.6000;0.0708;-0.8232;
837.9000;0.0741;-0.8143;
838.2000;0.0724;-0.8187;
838.5000;0.0716;-0.8210;
838.8000;0.0684;-0.8298;
839.1000;0.0749;-0.8077;
839.4000;0.0749;-0.8143;
839.7000;0.0684;-0.8342;
840.0000;0.0708;-0.8232;
840.3000;0.0716;-0.8165;
840.6000;0.0708;-0.8232;
840.9000;0.0716;-0.8210;
841.2000;0.0749;-0.8143;
841.5000;0.0741;-0.8232;
841.8000;0.0733;-0.8232;
842.1000;0.0757;-0.8187;
842.4000;0.0733;-0.8364;
842.7000;0.0716;-0.8387;
843.0000;0.0757;-0.8165;
843.3000;0.0757;-0.8099;
843.6000;0.0724;-0.8254;
843.9000;0.0733;-0.8232;
844.2000;0.0749;-0.8165;
844.5000;0.0724;-0.8187;
844.8000;0.0733;-0.8210;
845.1000;0.0716;-0.8165;
845.4000;0.0724;-0.8099;
845.7000;0.0724;-0.8165;
846.0000;0.0708;-0.8232;
846.3000;0.0757;-0.8187;
846.6000;0.0724;-0.8276;
846.9000;0.0667;-0.8431;
847.2000;0.0700;-0.8254;
847.5000;0.0724;-0.8210;
847.8000;0.0724;-0.8121;
848.1000;0.0749;-0.8099;
848.4000;0.0733;-0.8121;
848.7000;0.0708;-0.8077;
849.0000;0.0708;-0.8099;
849.3000;0.0733;-0.8143;
849.6000;0.0733;-0.8099;
849.9000;0.0692;-0.8342;
850.2000;0.0741;-0.8342;
850.5000;0.0708;-0.8453;
850.8000;0.0741;-0.8364;
851.1000;0.0643;-0.8608;
851.4000;0.0733;-0.8320;
851.7000;0.0611;-0.8564;
852.0000;0.0781;-0.8165;
852.3000;0.0733;-0.8210;
852.6000;0.0708;-0.8254;
852.9000;0.0879;-0.7855;
853.2000;0.0757;-0.8298;
853.5000;0.0773;-0.8254;
853.8000;0.0692;-0.8431;
854.1000;0.0765;-0.8254;
854.4000;0.0814;-0.8165;
854.7000;0.0749;-0.8254;
855.0000;0.0724;-0.8298;
855.3000;0.0741;-0.8232;
855.6000;0.0733;-0.8254;
855.9000;0.0749;-0.8276;
856.2000;0.0700;-0.8431;
856.5000;0.0716;-0.8387;
856.8000;0.0757;-0.8364;
857.1000;0.0749;-0.8342;
857.4000;0.0676;-0.8453;
857.7000;0.0757;-0.8210;
858.0000;0.0741;-0.8165;
858.3000;0.0733;-0.8210;
858.6000;0.0724;-0.8298;
858.9000;0.0733;-0.8364;
859.2000;0.0733;-0.8342;
859.5000;0.0741;-0.8298;
859.8000;0.0651;-0.8497;
860.1000;0.0741;-0.8254;
860.4000;0.0716;-0.8276;
860.7000;0.0741;-0.8232;
861.0000;0.0716;-0.8276;
861.3000;0.0716;-0.8210;
861.6000;0.0724;-0.8099;
861.9000;0.0741;-0.8099;
862.2000;0.0749;-0.8099;
862.5000;0.0716;-0.8232;
862.8000;0.0733;-0.8187;
863.1000;0.0724;-0.8232;
863.4000;0.0733;-0.8165;
863.7000;0.0724;-0.8187;
864.0000;0.0716;-0.8210;
864.3000;0.0716;-0.8187;
864.6000;0.0741;-0.8099;
864.9000;0.0708;-0.8165;
865.2000;0.0733;-0.8033;
865.5000;0.0733;-0.8121;
865.8000;0.0724;-0.8099;
866.1000;0.0741;-0.8165;
866.4000;0.0749;-0.8210;
866.7000;0.0871;-0.7988;
867.0000;0.0749;-0.8342;
867.3000;0.0749;-0.8298;
867.6000;0.0724;-0.8387;
867.9000;0.0741;-0.8342;
868.2000;0.0765;-0.8143;
868.5000;0.0716;-0.8276;
868.8000;0.0724;-0.8298;
869.1000;0.0724;-0.8409;
869.4000;0.0749;-0.8364;
869.7000;0.0749;-0.8342;
870.0000;0.0700;-0.8431;
870.3000;0.0692;-0.8364;
870.6000;0.0708;-0.8254;
870.9000;0.0692;-0.8320;
871.2000;0.0741;-0.8232;
871.5000;0.0741;-0.8210;
871.8000;0.0733;-0.8254;
872.1000;0.0765;-0.8165;
872.4000;0.0700;-0.8254;
872.7000;0.0700;-0.8232;
873.0000;0.0651;-0.8431;
873.3000;0.0741;-0.8187;
873.6000;0.0733;-0.8210;
873.9000;0.0733;-0.8143;
874.2000;0.0757;-0.8077;
874.5000;0.0773;-0.8121;
874.8000;0.0741;-0.8232;
875.1000;0.0814;-0.8010;
875.4000;0.0733;-0.8187;
875.7000;0.0643;-0.8387;
876.0000;0.0733;-0.8121;
876.3000;0.0700;-0.8187;
876.6000;0.0716;-0.8143;
876.9000;0.0724;-0.8187;
877.2000;0.0757;-0.8143;
877.5000;0.0724;-0.8165;
877.8000;0.0708;-0.8187;
878.1000;0.0741;-0.8165;
878.4000;0.0676;-0.8276;
878.7000;0.0716;-0.8121;
879.0000;0.0724;-0.8010;
879.3000;0.0724;-0.8121;
879.6000;0.0724;-0.8143;
879.9000;0.0716;-0.8099;
880.2000;0.0724;-0.8033;
880.5000;0.0806;-0.7855;
880.8000;0.0724;-0.8010;
881.1000;0.0773;-0.7944;
881.4000;0.0724;-0.8010;
881.7000;0.0716;-0.8143;
882.0000;0.0757;-0.8033;
882.3000;0.0724;-0.8077;
882.6000;0.0733;-0.8033;
882.9000;0.0716;-0.8165;
883.2000;0.0724;-0.8165;
883.5000;0.0733;-0.8121;
883.8000;0.0741;-0.8121;
884.1000;0.0619;-0.8364;
884.4000;0.0749;-0.8099;
884.7000;0.0741;-0.8165;
885.0000;0.0733;-0.8232;
885.3000;0.0724;-0.8276;
885.6000;0.0773;-0.8254;
885.9000;0.0716;-0.8364;
886.2000;0.0724;-0.8232;
886.5000;0.0708;-0.8165;
886.8000;0.0708;-0.8165;
887.1000;0.0708;-0.8232;
887.4000;0.0741;-0.8232;
887.7000;0.0790;-0.8099;
888.0000;0.0684;-0.8187;
888.3000;0.0716;-0.8165;
888.6000;0.0708;-0.8298;
888.9000;0.0773;-0.8187;
889.2000;0.0708;-0.8276;
889.5000;0.0724;-0.8320;
889.8000;0.0716;-0.8254;
890.1000;0.0716;-0.8254;
890.4000;0.0733;-0.8210;
890.7000;0.0700;-0.8342;
891.0000;0.0733;-0.8364;
891.3000;0.0741;-0.8409;
891.6000;0.0716;-0.8387;
891.9000;0.0676;-0.8409;
892.2000;0.0676;-0.8541;
892.5000;0.0716;-0.8409;
892.8000;0.0676;-0.8431;
893.1000;0.0733;-0.8232;
893.4000;0.0733;-0.8232;
893.7000;0.0708;-0.8232;
894.0000;0.0708;-0.8232;
894.3000;0.0741;-0.8143;
894.6000;0.0749;-0.8099;
894.9000;0.0733;-0.8232;
895.2000;0.0741;-0.8187;
895.5000;0.0814;-0.7966;
895.8000;0.0741;-0.8210;
896.1000;0.0733;-0.8165;
896.4000;0.0724;-0.8254;
896.7000;0.0773;-0.8099;
897.0000;0.0757;-0.8143;
897.3000;0.0724;-0.8143;
897.6000;0.0708;-0.8210;
897.9000;0.0733;-0.8210;
898.2000;0.0724;-0.8254;
898.5000;0.0741;-0.8254;
898.8000;0.0724;-0.8320;
899.1000;0.0790;-0.8165;
899.4000;0.0724;-0.8298;
899.7000;0.0724;-0.8187;
900.0000;0.0700;-0.8276;
900.3000;0.0733;-0.8276;
900.6000;0.0724;-0.8387;
900.9000;0.0700;-0.8387;
901.2000;0.0724;-0.8232;
901.5000;0.0765;-0.8187;
901.8000;0.0757;-0.8232;
902.1000;0.0724;-0.8276;
902.4000;0.0724;-0.8254;
902.7000;0.0749;-0.8254;
903.0000;0.0724;-0.8298;
903.3000;0.0716;-0.8342;
903.6000;0.0757;-0.8210;
903.9000;0.0724;-0.8276;
904.2000;0.0724;-0.8232;
904.5000;0.0733;-0.8276;
904.8000;0.0749;-0.8187;
905.1000;0.0773;-0.8232;
905.4000;0.0733;-0.8276;
905.7000;0.0692;-0.8364;
906.0000;0.0716;-0.8298;
906.3000;0.0651;-0.8519;
906.6000;0.0781;-0.8254;
906.9000;0.0716;-0.8453;
907.2000;0.0741;-0.8453;
907.5000;0.0724;-0.8519;
907.8000;0.0700;-0.8541;
908.1000;0.0716;-0.8364;
908.4000;0.0741;-0.8276;
908.7000;0.0724;-0.8387;
909.0000;0.0741;-0.8342;
909.3000;0.0765;-0.8254;
909.6000;0.0773;-0.8232;
909.9000;0.0749;-0.8320;
910.2000;0.0733;-0.8409;
910.5000;0.0716;-0.8431;
910.8000;0.0684;-0.8564;
911.1000;0.0724;-0.8497;
911.4000;0.0659;-0.8674;
911.7000;0.0708;-0.8564;
912.0000;0.0749;-0.8475;
912.3000;0.0643;-0.8674;
912.6000;0.0716;-0.8431;
912.9000;0.0684;-0.8475;
913.2000;0.0765;-0.8298;
913.5000;0.0733;-0.8475;
913.8000;0.0757;-0.8387;
914.1000;0.0733;-0.8497;
914.4000;0.0749;-0.8475;
914.7000;0.0716;-0.8475;
915.0000;0.0863;-0.8165;
915.3000;0.0708;-0.8564;
915.6000;0.0741;-0.8497;
915.9000;0.0822;-0.8210;
916.2000;0.0676;-0.8497;
916.5000;0.0765;-0.8298;
916.8000;0.0724;-0.8387;
917.1000;0.0708;-0.8497;
917.4000;0.0716;-0.8475;
917.7000;0.0708;-0.8497;
918.0000;0.0708;-0.8387;
918.3000;0.0716;-0.8298;
918.6000;0.0643;-0.8497;
918.9000;0.0724;-0.8320;
919.2000;0.0749;-0.8276;
919.5000;0.0724;-0.8364;
919.8000;0.0708;-0.8364;
920.1000;0.0806;-0.8143;
920.4000;0.0716;-0.8320;
920.7000;0.0749;-0.8276;
921.0000;0.0716;-0.8298;
921.3000;0.0749;-0.8210;
921.6000;0.0733;-0.8254;
921.9000;0.0733;-0.8276;
922.2000;0.0724;-0.8143;
922.5000;0.0708;-0.8121;
922.8000;0.0708;-0.8143;
923.1000;0.0716;-0.8143;
923.4000;0.0692;-0.8232;
923.7000;0.0749;-0.8143;
924.0000;0.0716;-0.8143;
924.3000;0.0692;-0.8099;
924.6000;0.0716;-0.8099;
924.9000;0.0733;-0.8099;
925.2000;0.0716;-0.8055;
925.5000;0.0822;-0.7811;
925.8000;0.0724;-0.8077;
926.1000;0.0806;-0.7855;
926.4000;0.0659;-0.8187;
926.7000;0.0733;-0.8033;
927.0000;0.0749;-0.8033;
927.3000;0.0781;-0.7966;
927.6000;0.0716;-0.8077;
927.9000;0.0741;-0.8099;
928.2000;0.0749;-0.8210;
928.5000;0.0781;-0.8055;
928.8000;0.0716;-0.8077;
929.1000;0.0724;-0.8055;
929.4000;0.0708;-0.8077;
929.7000;0.0724;-0.8099;
930.0000;0.0724;-0.8143;
930.3000;0.0692;-0.8254;
930.6000;0.0847;-0.7855;
930.9000;0.0708;-0.8210;
931.2000;0.0692;-0.8298;
931.5000;0.0724;-0.8187;
931.8000;0.0741;-0.8121;
932.1000;0.0733;-0.8055;
932.4000;0.0716;-0.8121;
932.7000;0.0708;-0.8121;
933.0000;0.0716;-0.8099;
933.3000;0.0773;-0.7966;
933.6000;0.0684;-0.8210;
933.9000;0.0733;-0.7988;
934.2000;0.0724;-0.8010;
934.5000;0.0741;-0.7944;
934.8000;0.0741;-0.7900;
935.1000;0.0749;-0.7966;
935.4000;0.0667;-0.8187;
935.7000;0.0733;-0.8033;
936.0000;0.0733;-0.8077;
936.3000;0.0790;-0.8033;
936.6000;0.0724;-0.8143;
936.9000;0.0716;-0.8187;
937.2000;0.0822;-0.7944;
937.5000;0.0724;-0.8187;
937.8000;0.0708;-0.8121;
938.1000;0.0741;-0.8033;
938.4000;0.0749;-0.8077;
938.7000;0.0733;-0.8121;
939.0000;0.0765;-0.7988;
939.3000;0.0724;-0.8077;
939.6000;0.0733;-0.8033;
939.9000;0.0724;-0.8143;
940.2000;0.0692;-0.8276;
940.5000;0.0757;-0.8143;
940.8000;0.0700;-0.8254;
941.1000;0.0781;-0.8121;
941.4000;0.0724;-0.8232;
941.7000;0.0684;-0.8342;
942.0000;0.0716;-0.8320;
942.3000;0.0741;-0.8320;
942.6000;0.0749;-0.8342;
942.9000;0.0724;-0.8364;
943.2000;0.0724;-0.8298;
943.5000;0.0741;-0.8254;
943.8000;0.0749;-0.8232;
944.1000;0.0749;-0.8276;
944.4000;0.0724;-0.8254;
944.7000;0.0635;-0.8608;
945.0000;0.0708;-0.8453;
945.3000;0.0733;-0.8409;
945.6000;0.0741;-0.8320;
945.9000;0.0708;-0.8364;
946.2000;0.0716;-0.8387;
946.5000;0.0741;-0.8320;
946.8000;0.0708;-0.8342;
947.1000;0.0733;-0.8232;
947.4000;0.0700;-0.8210;
947.7000;0.0733;-0.8210;
948.0000;0.0733;-0.8165;
948.3000;0.0692;-0.8210;
948.6000;0.0708;-0.8342;
948.9000;0.0708;-0.8431;
949.2000;0.0716;-0.8475;
949.5000;0.0733;-0.8475;
949.8000;0.0749;-0.8387;
950.1000;0.0676;-0.8409;
950.4000;0.0692;-0.8475;
950.7000;0.0724;-0.8409;
951.0000;0.0716;-0.8342;
951.3000;0.0765;-0.8143;
951.6000;0.0676;-0.8364;
951.9000;0.0716;-0.8298;
952.2000;0.0684;-0.8364;
952.5000;0.0692;-0.8364;
952.8000;0.0733;-0.8254;
953.1000;0.0749;-0.8055;
953.4000;0.0716;-0.8099;
953.7000;0.0741;-0.8033;
954.0000;0.0724;-0.7966;
954.3000;0.0724;-0.8033;
954.6000;0.0733;-0.8055;
954.9000;0.0749;-0.8121;
955.2000;0.0716;-0.8276;
955.5000;0.0741;-0.8210;
955.8000;0.0741;-0.8298;
956.1000;0.0733;-0.8320;
956.4000;0.0724;-0.8276;
956.7000;0.0757;-0.8165;
957.0000;0.0708;-0.8254;
957.3000;0.0733;-0.8232;
957.6000;0.0724;-0.8210;
957.9000;0.0733;-0.8254;
958.2000;0.0708;-0.8232;
958.5000;0.0741;-0.8210;
958.8000;0.0741;-0.8165;
959.1000;0.0741;-0.8143;
959.4000;0.0724;-0.8187;
959.7000;0.0667;-0.8320;
960.0000;0.0708;-0.8254;
960.3000;0.0716;-0.8254;
960.6000;0.0724;-0.8143;
960.9000;0.0733;-0.8187;
961.2000;0.0733;-0.8232;
961.5000;0.0733;-0.8232;
961.8000;0.0733;-0.8187;
962.1000;0.0716;-0.8165;
962.4000;0.0749;-0.8121;
962.7000;0.0700;-0.8187;
963.0000;0.0741;-0.8121;
963.3000;0.0757;-0.8121;
963.6000;0.0724;-0.8165;
963.9000;0.0676;-0.8232;
964.2000;0.0692;-0.8187;
964.5000;0.0781;-0.8010;
964.8000;0.0724;-0.8121;
965.1000;0.0847;-0.7833;
965.4000;0.0741;-0.8121;
965.7000;0.0773;-0.8055;
966.0000;0.0741;-0.8099;
966.3000;0.0716;-0.8276;
966.6000;0.0724;-0.8232;
966.9000;0.0724;-0.8254;
967.2000;0.0708;-0.8187;
967.5000;0.0724;-0.8055;
967.8000;0.0749;-0.8010;
968.1000;0.0716;-0.8121;
968.4000;0.0757;-0.7988;
968.7000;0.0733;-0.8121;
969.0000;0.0741;-0.8055;
969.3000;0.0757;-0.8033;
969.6000;0.0724;-0.8165;
969.9000;0.0765;-0.8121;
970.2000;0.0716;-0.8210;
970.5000;0.0716;-0.8254;
970.8000;0.0716;-0.8276;
971.1000;0.0765;-0.8254;
971.4000;0.0733;-0.8320;
971.7000;0.0716;-0.8276;
972.0000;0.0749;-0.8165;
972.3000;0.0765;-0.8121;
972.6000;0.0733;-0.8143;
972.9000;0.0749;-0.8033;
973.2000;0.0773;-0.7922;
973.5000;0.0724;-0.8099;
973.8000;0.0757;-0.8121;
974.1000;0.0659;-0.8409;
974.4000;0.0635;-0.8453;
974.7000;0.0724;-0.8232;
975.0000;0.0741;-0.8276;
975.3000;0.0741;-0.8210;
975.6000;0.0741;-0.8254;
975.9000;0.0724;-0.8210;
976.2000;0.0700;-0.8165;
976.5000;0.0700;-0.8143;
976.8000;0.0716;-0.8210;
977.1000;0.0733;-0.8165;
977.4000;0.0716;-0.8165;
977.7000;0.0733;-0.8099;
978.0000;0.0700;-0.8187;
978.3000;0.0733;-0.8121;
978.6000;0.0757;-0.8033;
978.9000;0.0716;-0.8187;
979.2000;0.0724;-0.8165;
979.5000;0.0716;-0.8165;
979.8000;0.0724;-0.8121;
980.1000;0.0733;-0.8165;
980.4000;0.0733;-0.8165;
980.7000;0.0724;-0.8143;
981.0000;0.0708;-0.8210;
981.3000;0.0724;-0.8121;
981.6000;0.0724;-0.8143;
981.9000;0.0733;-0.8165;
982.2000;0.0724;-0.8187;
982.5000;0.0741;-0.8210;
982.8000;0.0741;-0.8232;
983.1000;0.0716;-0.8254;
983.4000;0.0724;-0.8232;
983.7000;0.0749;-0.8121;
984.0000;0.0708;-0.8232;
984.3000;0.0741;-0.8187;
984.6000;0.0724;-0.8276;
984.9000;0.0814;-0.8121;
985.2000;0.0684;-0.8387;
985.5000;0.0700;-0.8342;
985.8000;0.0724;-0.8298;
986.1000;0.0741;-0.8210;
986.4000;0.0741;-0.8298;
986.7000;0.0724;-0.8276;
987.0000;0.0733;-0.8320;
987.3000;0.0733;-0.8342;
987.6000;0.0692;-0.8453;
987.9000;0.0724;-0.8364;
988.2000;0.0684;-0.8519;
988.5000;0.0676;-0.8409;
988.8000;0.0741;-0.8232;
989.1000;0.0806;-0.7988;
989.4000;0.0724;-0.8033;
989.7000;0.0667;-0.8254;
990.0000;0.0724;-0.8099;
990.3000;0.0733;-0.8121;
990.6000;0.0716;-0.8165;
990.9000;0.0708;-0.8210;
991.2000;0.0733;-0.8165;
991.5000;0.0741;-0.8165;
991.8000;0.0749;-0.8077;
992.1000;0.0765;-0.7944;
992.4000;0.0716;-0.8055;
992.7000;0.0716;-0.8055;
993.0000;0.0659;-0.8232;
993.3000;0.0724;-0.8077;
993.6000;0.0716;-0.8143;
993.9000;0.0741;-0.8143;
994.2000;0.0749;-0.8121;
994.5000;0.0724;-0.8187;
994.8000;0.0741;-0.8187;
995.1000;0.0757;-0.8232;
995.4000;0.0716;-0.8298;
995.7000;0.0724;-0.8364;
996.0000;0.0716;-0.8364;
996.3000;0.0724;-0.8276;
996.6000;0.0749;-0.8254;
996.9000;0.0667;-0.8475;
997.2000;0.0724;-0.8320;
997.5000;0.0724;-0.8254;
997.8000;0.0708;-0.8320;
998.1000;0.0733;-0.8320;
998.4000;0.0667;-0.8431;
998.7000;0.0733;-0.8342;
999.0000;0.0733;-0.8342;
999.3000;0.0733;-0.8320;
999.6000;0.0773;-0.8187;
999.9000;0.0741;-0.8232;
1000.2000;0.0724;-0.8232;
1000.5000;0.0708;-0.8276;
1000.8000;0.0741;-0.8210;
1001.1000;0.0708;-0.8210;
1001.4000;0.0716;-0.8232;
1001.7000;0.0749;-0.8121;
1002.0000;0.0708;-0.8187;
1002.3000;0.0724;-0.8254;
1002.6000;0.0749;-0.8298;
1002.9000;0.0733;-0.8320;
1003.2000;0.0724;-0.8320;
1003.5000;0.0749;-0.8187;
1003.8000;0.0749;-0.8187;
1004.1000;0.0716;-0.8276;
1004.4000;0.0749;-0.8232;
1004.7000;0.0724;-0.8320;
1005.0000;0.0733;-0.8298;
1005.3000;0.0708;-0.8298;
1005.6000;0.0724;-0.8232;
1005.9000;0.0749;-0.8187;
1006.2000;0.0757;-0.8165;
1006.5000;0.0749;-0.8165;
1006.8000;0.0724;-0.8254;
1007.1000;0.0716;-0.8298;
1007.4000;0.0716;-0.8276;
1007.7000;0.0700;-0.8276;
1008.0000;0.0716;-0.8276;
1008.3000;0.0724;-0.8298;
1008.6000;0.0716;-0.8276;
1008.9000;0.0741;-0.8187;
1009.2000;0.0733;-0.8210;
1009.5000;0.0749;-0.8232;
1009.8000;0.0749;-0.8165;
1010.1000;0.0733;-0.8143;
1010.4000;0.0733;-0.8232;
1010.7000;0.0708;-0.8298;
1011.0000;0.0749;-0.8254;
1011.3000;0.0724;-0.8276;
1011.6000;0.0716;-0.8254;
1011.9000;0.0716;-0.8099;
1012.2000;0.0773;-0.7922;
1012.5000;0.0757;-0.7944;
1012.8000;0.0765;-0.7922;
1013.1000;0.0822;-0.7811;
1013.4000;0.0724;-0.8055;
1013.7000;0.0822;-0.7811;
1014.0000;0.0741;-0.8033;
1014.3000;0.0749;-0.8033;
1014.6000;0.0838;-0.7900;
1014.9000;0.0733;-0.8165;
1015.2000;0.0749;-0.8121;
1015.5000;0.0692;-0.8320;
1015.8000;0.0741;-0.8254;
1016.1000;0.0733;-0.8187;
1016.4000;0.0716;-0.8210;
1016.7000;0.0724;-0.8254;
1017.0000;0.0757;-0.8143;
1017.3000;0.0724;-0.8210;
1017.6000;0.0716;-0.8232;
1017.9000;0.0765;-0.8165;
1018.2000;0.0733;-0.8165;
1018.5000;0.0716;-0.8165;
1018.8000;0.0749;-0.8121;
1019.1000;0.0708;-0.8232;
1019.4000;0.0733;-0.8187;
1019.7000;0.0749;-0.8232;
1020.0000;0.0741;-0.8210;
1020.3000;0.0700;-0.8342;
1020.6000;0.0733;-0.8364;
1020.9000;0.0749;-0.8276;
1021.2000;0.0716;-0.8387;
1021.5000;0.0741;-0.8364;
1021.8000;0.0733;-0.8409;
1022.1000;0.0716;-0.8453;
1022.4000;0.0724;-0.8409;
1022.7000;0.0700;-0.8453;
1023.0000;0.0700;-0.8342;
1023.3000;0.0733;-0.8232;
1023.6000;0.0659;-0.8320;
1023.9000;0.0733;-0.8055;
1024.2000;0.0716;-0.8033;
1024.5000;0.0724;-0.8055;
1024.8000;0.0667;-0.8276;
1025.1000;0.0708;-0.8099;
1025.4000;0.0741;-0.8099;
1025.7000;0.0749;-0.8077;
1026.0000;0.0749;-0.8121;
1026.3000;0.0708;-0.8187;
1026.6000;0.0749;-0.8165;
1026.9000;0.0724;-0.8121;
1027.2000;0.0724;-0.8187;
1027.5000;0.0708;-0.8364;
1027.8000;0.0887;-0.8010;
1028.1000;0.0781;-0.8342;
1028.4000;0.0733;-0.8364;
1028.7000;0.0708;-0.8342;
1029.0000;0.0741;-0.8232;
1029.3000;0.0708;-0.8320;
1029.6000;0.0724;-0.8232;
1029.9000;0.0684;-0.8387;
1030.2000;0.0741;-0.8210;
1030.5000;0.0733;-0.8254;
1030.8000;0.0733;-0.8210;
1031.1000;0.0757;-0.8099;
1031.4000;0.0724;-0.8210;
1031.7000;0.0708;-0.8232;
1032.0000;0.0716;-0.8232;
1032.3000;0.0733;-0.8276;
1032.6000;0.0733;-0.8276;
1032.9000;0.0716;-0.8364;
1033.2000;0.0692;-0.8409;
1033.5000;0.0749;-0.8254;
1033.8000;0.0814;-0.8077;
1034.1000;0.0724;-0.8254;
1034.4000;0.0700;-0.8364;
1034.7000;0.0757;-0.8187;
1035.0000;0.0716;-0.8254;
1035.3000;0.0741;-0.8143;
1035.6000;0.0733;-0.8165;
1035.9000;0.0733;-0.8232;
1036.2000;0.0724;-0.8210;
1036.5000;0.0708;-0.8298;
1036.8000;0.0757;-0.8187;
1037.1000;0.0716;-0.8320;
1037.4000;0.0733;-0.8298;
1037.7000;0.0570;-0.8674;
1038.0000;0.0749;-0.8387;
1038.3000;0.0733;-0.8453;
1038.6000;0.0676;-0.8541;
1038.9000;0.0716;-0.8475;
1039.2000;0.0724;-0.8519;
1039.5000;0.0733;-0.8541;
1039.8000;0.0757;-0.8475;
1040.1000;0.0651;-0.8763;
1040.4000;0.0733;-0.8475;
1040.7000;0.0724;-0.8519;
1041.0000;0.0733;-0.8475;
1041.3000;0.0692;-0.8475;
1041.6000;0.0733;-0.8431;
1041.9000;0.0724;-0.8409;
1042.2000;0.0724;-0.8298;
1042.5000;0.0806;-0.8077;
1042.8000;0.0684;-0.8254;
1043.1000;0.0741;-0.8143;
1043.4000;0.0733;-0.8232;
1043.7000;0.0700;-0.8210;
1044.0000;0.0765;-0.8099;
1044.3000;0.0830;-0.7988;
1044.6000;0.0733;-0.8232;
1044.9000;0.0741;-0.8143;
1045.2000;0.0838;-0.7966;
1045.5000;0.0741;-0.8210;
1045.8000;0.0757;-0.8165;
1046.1000;0.0806;-0.8033;
1046.4000;0.0708;-0.8187;
1046.7000;0.0700;-0.8232;
1047.0000;0.0733;-0.8210;
1047.3000;0.0749;-0.8165;
1047.6000;0.0708;-0.8276;
1047.9000;0.0684;-0.8298;
1048.2000;0.0733;-0.8210;
1048.5000;0.0724;-0.8232;
1048.8000;0.0708;-0.8298;
1049.1000;0.0708;-0.8232;
1049.4000;0.0724;-0.8143;
1049.7000;0.0627;-0.8409;
1050.0000;0.0700;-0.8165;
1050.3000;0.0724;-0.8165;
1050.6000;0.0700;-0.8210;
1050.9000;0.0724;-0.8210;
1051.2000;0.0733;-0.8232;
1051.5000;0.0765;-0.8165;
1051.8000;0.0700;-0.8364;
1052.1000;0.0724;-0.8320;
1052.4000;0.0733;-0.8298;
1052.7000;0.0757;-0.8298;
1053.0000;0.0692;-0.8364;
1053.3000;0.0733;-0.8232;
1053.6000;0.0716;-0.8298;
1053.9000;0.0741;-0.8298;
1054.2000;0.0749;-0.8232;
1054.5000;0.0757;-0.8254;
1054.8000;0.0733;-0.8298;
1055.1000;0.0733;-0.8320;
1055.4000;0.0716;-0.8342;
1055.7000;0.0733;-0.8276;
1056.0000;0.0741;-0.8187;
1056.3000;0.0741;-0.8143;
1056.6000;0.0724;-0.8099;
1056.9000;0.0733;-0.8121;
1057.2000;0.0708;-0.8298;
1057.5000;0.0708;-0.8187;
1057.8000;0.0773;-0.7988;
1058.1000;0.0741;-0.8033;
1058.4000;0.0724;-0.8143;
1058.7000;0.0757;-0.8033;
1059.0000;0.0790;-0.8099;
1059.3000;0.0700;-0.8210;
1059.6000;0.0879;-0.7745;
1059.9000;0.0741;-0.8121;
1060.2000;0.0684;-0.8187;
1060.5000;0.0716;-0.8099;
1060.8000;0.0741;-0.8055;
1061.1000;0.0733;-0.8099;
1061.4000;0.0741;-0.8121;
1061.7000;0.0667;-0.8364;
1062.0000;0.0716;-0.8254;
1062.3000;0.0741;-0.8232;
1062.6000;0.0733;-0.8232;
1062.9000;0.0724;-0.8121;
1063.2000;0.0700;-0.8165;
1063.5000;0.0741;-0.8033;
1063.8000;0.0741;-0.8055;
1064.1000;0.0716;-0.8121;
1064.4000;0.0716;-0.8165;
1064.7000;0.0733;-0.8254;
1065.0000;0.0716;-0.8342;
1065.3000;0.0822;-0.8099;
1065.6000;0.0724;-0.8320;
1065.9000;0.0724;-0.8320;
1066.2000;0.0716;-0.8298;
1066.5000;0.0716;-0.8298;
1066.8000;0.0724;-0.8298;
1067.1000;0.0724;-0.8320;
1067.4000;0.0733;-0.8364;
1067.7000;0.0733;-0.8276;
1068.0000;0.0700;-0.8254;
1068.3000;0.0659;-0.8298;
1068.6000;0.0741;-0.8165;
1068.9000;0.0708;-0.8232;
1069.2000;0.0724;-0.8232;
1069.5000;0.0733;-0.8187;
1069.8000;0.0733;-0.8187;
1070.1000;0.0724;-0.8210;
1070.4000;0.0733;-0.8187;
1070.7000;0.0708;-0.8210;
1071.0000;0.0741;-0.8121;
1071.3000;0.0733;-0.8077;
1071.6000;0.0724;-0.8121;
1071.9000;0.0724;-0.8099;
1072.2000;0.0733;-0.8077;
1072.5000;0.0733;-0.8121;
1072.8000;0.0708;-0.8143;
1073.1000;0.0724;-0.8143;
1073.4000;0.0708;-0.8187;
1073.7000;0.0741;-0.8077;
1074.0000;0.0765;-0.8033;
1074.3000;0.0733;-0.8077;
1074.6000;0.0773;-0.7966;
1074.9000;0.0733;-0.8143;
1075.2000;0.0765;-0.8055;
1075.5000;0.0716;-0.8143;
1075.8000;0.0724;-0.8099;
1076.1000;0.0733;-0.8121;
1076.4000;0.0741;-0.8165;
1076.7000;0.0757;-0.8121;
1077.0000;0.0814;-0.7966;
1077.3000;0.0741;-0.8187;
1077.6000;0.0724;-0.8254;
1077.9000;0.0716;-0.8210;
1078.2000;0.0700;-0.8232;
1078.5000;0.0724;-0.8099;
1078.8000;0.0659;-0.8254;
1079.1000;0.0724;-0.8165;
1079.4000;0.0741;-0.8165;
1079.7000;0.0773;-0.8077;
1080.0000;0.0798;-0.8055;
1080.3000;0.0749;-0.8187;
1080.6000;0.0749;-0.8143;
1080.9000;0.0733;-0.8077;
1081.2000;0.0708;-0.8121;
1081.5000;0.0724;-0.8099;
1081.8000;0.0733;-0.8165;
1082.1000;0.0790;-0.8099;
1082.4000;0.0684;-0.8387;
1082.7000;0.0741;-0.8254;
1083.0000;0.0790;-0.8033;
1083.3000;0.0757;-0.8210;
1083.6000;0.0659;-0.8409;
1083.9000;0.0749;-0.8143;
1084.2000;0.0749;-0.8165;
1084.5000;0.0635;-0.8431;
1084.8000;0.0700;-0.8364;
1085.1000;0.0708;-0.8387;
1085.4000;0.0741;-0.8276;
1085.7000;0.0741;-0.8210;
1086.0000;0.0781;-0.8121;
1086.3000;0.0749;-0.8298;
1086.6000;0.0724;-0.8210;
1086.9000;0.0741;-0.8143;
1087.2000;0.0733;-0.8121;
1087.5000;0.0716;-0.8121;
1087.8000;0.0741;-0.8010;
1088.1000;0.0741;-0.7922;
1088.4000;0.0659;-0.8099;
1088.7000;0.0724;-0.7900;
1089.0000;0.0757;-0.7900;
1089.3000;0.0741;-0.8010;
1089.6000;0.0733;-0.8033;
1089.9000;0.0659;-0.8254;
1090.2000;0.0798;-0.7944;
1090.5000;0.0757;-0.8010;
1090.8000;0.0741;-0.8077;
1091.1000;0.0733;-0.8121;
1091.4000;0.0667;-0.8232;
1091.7000;0.0733;-0.8055;
1092.0000;0.0733;-0.8165;
1092.3000;0.0724;-0.8254;
1092.6000;0.0700;-0.8320;
1092.9000;0.0724;-0.8121;
1093.2000;0.0724;-0.8187;
1093.5000;0.0724;-0.8232;
1093.8000;0.0708;-0.8254;
1094.1000;0.0733;-0.8210;
1094.4000;0.0741;-0.8210;
1094.7000;0.0716;-0.8165;
1095.0000;0.0724;-0.8210;
1095.3000;0.0733;-0.8121;
1095.6000;0.0733;-0.8121;
1095.9000;0.0733;-0.8210;
1096.2000;0.0684;-0.8298;
1096.5000;0.0724;-0.8276;
1096.8000;0.0724;-0.8276;
1097.1000;0.0749;-0.8143;
1097.4000;0.0692;-0.8254;
1097.7000;0.0741;-0.8187;
1098.0000;0.0716;-0.8232;
1098.3000;0.0733;-0.8232;
1098.6000;0.0733;-0.8210;
1098.9000;0.0708;-0.8232;
1099.2000;0.0773;-0.8055;
1099.5000;0.0749;-0.8099;
1099.8000;0.0602;-0.8453;
1100.1000;0.0733;-0.8298;
1100.4000;0.0741;-0.8254;
1100.7000;0.0733;-0.8276;
1101.0000;0.0716;-0.8364;
1101.3000;0.0773;-0.8165;
1101.6000;0.0724;-0.8320;
1101.9000;0.0676;-0.8364;
1102.2000;0.0708;-0.8342;
1102.5000;0.0724;-0.8298;
1102.8000;0.0724;-0.8276;
1103.1000;0.0741;-0.8210;
1103.4000;0.0716;-0.8298;
1103.7000;0.0741;-0.8165;
1104.0000;0.0627;-0.8387;
1104.3000;0.0749;-0.8121;
1104.6000;0.0733;-0.8165;
1104.9000;0.0659;-0.8387;
1105.2000;0.0733;-0.8254;
1105.5000;0.0765;-0.8077;
1105.8000;0.0741;-0.8187;
1106.1000;0.0700;-0.8232;
1106.4000;0.0733;-0.8187;
1106.7000;0.0708;-0.8276;
1107.0000;0.0724;-0.8254;
1107.3000;0.0716;-0.8276;
1107.6000;0.0676;-0.8364;
1107.9000;0.0724;-0.8210;
1108.2000;0.0733;-0.8143;
1108.5000;0.0741;-0.8099;
1108.8000;0.0700;-0.8143;
1109.1000;0.0765;-0.8077;
1109.4000;0.0741;-0.8143;
1109.7000;0.0700;-0.8342;
1110.0000;0.0724;-0.8387;
1110.3000;0.0741;-0.8276;
1110.6000;0.0716;-0.8276;
1110.9000;0.0692;-0.8342;
1111.2000;0.0733;-0.8187;
1111.5000;0.0724;-0.8232;
1111.8000;0.0733;-0.8298;
1112.1000;0.0700;-0.8364;
1112.4000;0.0708;-0.8364;
1112.7000;0.0611;-0.8586;
1113.0000;0.0741;-0.8232;
1113.3000;0.0724;-0.8298;
1113.6000;0.0733;-0.8232;
1113.9000;0.0733;-0.8187;
1114.2000;0.0765;-0.8099;
1114.5000;0.0708;-0.8276;
1114.8000;0.0733;-0.8165;
1115.1000;0.0724;-0.8099;
1115.4000;0.0692;-0.8165;
1115.7000;0.0692;-0.8165;
1116.0000;0.0716;-0.8099;
1116.3000;0.0708;-0.8121;
1116.6000;0.0749;-0.8187;
1116.9000;0.0741;-0.8210;
1117.2000;0.0676;-0.8254;
1117.5000;0.0757;-0.8055;
1117.8000;0.0700;-0.8165;
1118.1000;0.0741;-0.8077;
1118.4000;0.0708;-0.8210;
1118.7000;0.0724;-0.8232;
1119.0000;0.0676;-0.8364;
1119.3000;0.0871;-0.7944;
1119.6000;0.0700;-0.8276;
1119.9000;0.0708;-0.8187;
1120.2000;0.0716;-0.8276;
1120.5000;0.0700;-0.8254;
1120.8000;0.0700;-0.8276;
1121.1000;0.0814;-0.8010;
1121.4000;0.0724;-0.8232;
1121.7000;0.0692;-0.8320;
1122.0000;0.0716;-0.8342;
1122.3000;0.0708;-0.8475;
1122.6000;0.0814;-0.8210;
1122.9000;0.0733;-0.8387;
1123.2000;0.0692;-0.8497;
1123.5000;0.0724;-0.8475;
1123.8000;0.0716;-0.8431;
1124.1000;0.0708;-0.8475;
1124.4000;0.0700;-0.8475;
1124.7000;0.0733;-0.8453;
1125.0000;0.0667;-0.8630;
1125.3000;0.0741;-0.8453;
1125.6000;0.0602;-0.8873;
1125.9000;0.0733;-0.8519;
1126.2000;0.0749;-0.8364;
1126.5000;0.0733;-0.8387;
1126.8000;0.0830;-0.8210;
1127.1000;0.0716;-0.8475;
1127.4000;0.0724;-0.8409;
1127.7000;0.0700;-0.8364;
1128.0000;0.0733;-0.8276;
1128.3000;0.0814;-0.8033;
1128.6000;0.0741;-0.8232;
1128.9000;0.0757;-0.8210;
1129.2000;0.0814;-0.7966;
1129.5000;0.0741;-0.8121;
1129.8000;0.0749;-0.8121;
1130.1000;0.0757;-0.8121;
1130.4000;0.0667;-0.8342;
1130.7000;0.0749;-0.8187;
1131.0000;0.0733;-0.8232;
1131.3000;0.0716;-0.8254;
1131.6000;0.0708;-0.8254;
1131.9000;0.0692;-0.8232;
1132.2000;0.0708;-0.8165;
1132.5000;0.0684;-0.8210;
1132.8000;0.0708;-0.8187;
1133.1000;0.0700;-0.8165;
1133.4000;0.0733;-0.8099;
1133.7000;0.0749;-0.8077;
1134.0000;0.0733;-0.8099;
1134.3000;0.0724;-0.8121;
1134.6000;0.0733;-0.8121;
1134.9000;0.0773;-0.8099;
1135.2000;0.0757;-0.8187;
1135.5000;0.0716;-0.8276;
1135.8000;0.0741;-0.8232;
1136.1000;0.0847;-0.7922;
1136.4000;0.0651;-0.8475;
1136.7000;0.0724;-0.8320;
1137.0000;0.0749;-0.8232;
1137.3000;0.0716;-0.8342;
1137.6000;0.0798;-0.8143;
1137.9000;0.0708;-0.8387;
1138.2000;0.0570;-0.8696;
1138.5000;0.0716;-0.8276;
1138.8000;0.0716;-0.8320;
1139.1000;0.0684;-0.8431;
1139.4000;0.0733;-0.8364;
1139.7000;0.0773;-0.8320;
1140.0000;0.0757;-0.8320;
1140.3000;0.0708;-0.8409;
1140.6000;0.0733;-0.8342;
1140.9000;0.0733;-0.8342;
1141.2000;0.0724;-0.8298;
1141.5000;0.0716;-0.8364;
1141.8000;0.0708;-0.8387;
1142.1000;0.0733;-0.8320;
1142.4000;0.0741;-0.8232;
1142.7000;0.0716;-0.8254;
1143.0000;0.0724;-0.8364;
1143.3000;0.0830;-0.8055;
1143.6000;0.0733;-0.8342;
1143.9000;0.0724;-0.8364;
1144.2000;0.0724;-0.8320;
1144.5000;0.0724;-0.8298;
1144.8000;0.0724;-0.8276;
1145.1000;0.0733;-0.8364;
1145.4000;0.0741;-0.8409;
1145.7000;0.0724;-0.8519;
1146.0000;0.0643;-0.8718;
1146.3000;0.0708;-0.8564;
1146.6000;0.0716;-0.8519;
1146.9000;0.0733;-0.8409;
1147.2000;0.0724;-0.8364;
1147.5000;0.0749;-0.8298;
1147.8000;0.0716;-0.8431;
1148.1000;0.0733;-0.8342;
1148.4000;0.0765;-0.8342;
1148.7000;0.0692;-0.8453;
1149.0000;0.0741;-0.8320;
1149.3000;0.0733;-0.8254;
1149.6000;0.0692;-0.8387;
1149.9000;0.0741;-0.8320;
1150.2000;0.0619;-0.8696;
1150.5000;0.0733;-0.8364;
1150.8000;0.0692;-0.8453;
1151.1000;0.0724;-0.8298;
1151.4000;0.0724;-0.8187;
1151.7000;0.0684;-0.8276;
1152.0000;0.0724;-0.8254;
1152.3000;0.0741;-0.8254;
1152.6000;0.0724;-0.8298;
1152.9000;0.0676;-0.8475;
1153.2000;0.0724;-0.8453;
1153.5000;0.0716;-0.8453;
1153.8000;0.0781;-0.8320;
1154.1000;0.0781;-0.8409;
1154.4000;0.0790;-0.8387;
1154.7000;0.0741;-0.8453;
1155.0000;0.0733;-0.8475;
1155.3000;0.0651;-0.8608;
1155.6000;0.0700;-0.8431;
1155.9000;0.0724;-0.8342;
1156.2000;0.0757;-0.8276;
1156.5000;0.0716;-0.8409;
1156.8000;0.0676;-0.8475;
1157.1000;0.0716;-0.8342;
1157.4000;0.0716;-0.8387;
1157.7000;0.0806;-0.8254;
1158.0000;0.0716;-0.8453;
1158.3000;0.0611;-0.8807;
1158.6000;0.0716;-0.8652;
1158.9000;0.0733;-0.8519;
1159.2000;0.0733;-0.8497;
1159.5000;0.0781;-0.8276;
1159.8000;0.0724;-0.8298;
1160.1000;0.0667;-0.8453;
1160.4000;0.0724;-0.8409;
1160.7000;0.0749;-0.8475;
1161.0000;0.0741;-0.8453;
1161.3000;0.0733;-0.8475;
1161.6000;0.0749;-0.8431;
1161.9000;0.0733;-0.8497;
1162.2000;0.0798;-0.8298;
1162.5000;0.0741;-0.8210;
1162.8000;0.0700;-0.8342;
1163.1000;0.0781;-0.8210;
1163.4000;0.0692;-0.8364;
1163.7000;0.0741;-0.8254;
1164.0000;0.0733;-0.8276;
1164.3000;0.0724;-0.8210;
1164.6000;0.0733;-0.8232;
1164.9000;0.0733;-0.8187;
1165.2000;0.0708;-0.8254;
1165.5000;0.0733;-0.8187;
1165.8000;0.0781;-0.8077;
1166.1000;0.0716;-0.8232;
1166.4000;0.0724;-0.8187;
1166.7000;0.0716;-0.8143;
1167.0000;0.0733;-0.8077;
1167.3000;0.0716;-0.8187;
1167.6000;0.0733;-0.8165;
1167.9000;0.0716;-0.8210;
1168.2000;0.0716;-0.8276;
1168.5000;0.0733;-0.8210;
1168.8000;0.0716;-0.8210;
1169.1000;0.0733;-0.8187;
1169.4000;0.0749;-0.8143;
1169.7000;0.0733;-0.8210;
1170.0000;0.0741;-0.8165;
1170.3000;0.0708;-0.8232;
1170.6000;0.0741;-0.8055;
1170.9000;0.0684;-0.8210;
1171.2000;0.0749;-0.8055;
1171.5000;0.0708;-0.8121;
1171.8000;0.0716;-0.8055;
1172.1000;0.0741;-0.7988;
1172.4000;0.0716;-0.8187;
1172.7000;0.0716;-0.8210;
1173.0000;0.0741;-0.8143;
1173.3000;0.0733;-0.8077;
1173.6000;0.0716;-0.8121;
1173.9000;0.0716;-0.8121;
1174.2000;0.0741;-0.8077;
1174.5000;0.0741;-0.8187;
1174.8000;0.0724;-0.8298;
1175.1000;0.0733;-0.8254;
1175.4000;0.0733;-0.8210;
1175.7000;0.0724;-0.8187;
1176.0000;0.0708;-0.8276;
1176.3000;0.0692;-0.8342;
1176.6000;0.0716;-0.8320;
1176.9000;0.0733;-0.8276;
1177.2000;0.0643;-0.8519;
1177.5000;0.0708;-0.8320;
1177.8000;0.0716;-0.8276;
1178.1000;0.0692;-0.8409;
1178.4000;0.0716;-0.8342;
1178.7000;0.0716;-0.8298;
1179.0000;0.0676;-0.8387;
1179.3000;0.0749;-0.8232;
1179.6000;0.0733;-0.8254;
1179.9000;0.0733;-0.8298;
1180.2000;0.0749;-0.8210;
1180.5000;0.0733;-0.8276;
1180.8000;0.0757;-0.8254;
1181.1000;0.0708;-0.8320;
1181.4000;0.0814;-0.8077;
1181.7000;0.0733;-0.8276;
1182.0000;0.0684;-0.8364;
1182.3000;0.0741;-0.8254;
1182.6000;0.0708;-0.8342;
1182.9000;0.0724;-0.8276;
1183.2000;0.0749;-0.8210;
1183.5000;0.0724;-0.8320;
1183.8000;0.0724;-0.8210;
1184.1000;0.0708;-0.8210;
1184.4000;0.0806;-0.7966;
1184.7000;0.0733;-0.8121;
1185.0000;0.0781;-0.7944;
1185.3000;0.0749;-0.8077;
1185.6000;0.0716;-0.8187;
1185.9000;0.0724;-0.8210;
1186.2000;0.0757;-0.8143;
1186.5000;0.0708;-0.8320;
1186.8000;0.0716;-0.8254;
1187.1000;0.0716;-0.8254;
1187.4000;0.0692;-0.8232;
1187.7000;0.0700;-0.8254;
1188.0000;0.0716;-0.8276;
1188.3000;0.0749;-0.8187;
1188.6000;0.0749;-0.8165;
1188.9000;0.0741;-0.8298;
1189.2000;0.0724;-0.8387;
1189.5000;0.0733;-0.8320;
1189.8000;0.0765;-0.8165;
1190.1000;0.0749;-0.8276;
1190.4000;0.0708;-0.8320;
1190.7000;0.0724;-0.8298;
1191.0000;0.0700;-0.8320;
1191.3000;0.0724;-0.8320;
1191.6000;0.0733;-0.8342;
1191.9000;0.0749;-0.8254;
1192.2000;0.0733;-0.8276;
1192.5000;0.0708;-0.8320;
1192.8000;0.0716;-0.8254;
1193.1000;0.0659;-0.8431;
1193.4000;0.0733;-0.8276;
1193.7000;0.0724;-0.8364;
1194.0000;0.0741;-0.8254;
1194.3000;0.0708;-0.8143;
1194.6000;0.0749;-0.8099;
1194.9000;0.0733;-0.8210;
1195.2000;0.0733;-0.8121;
1195.5000;0.0741;-0.8143;
1195.8000;0.0765;-0.8099;
1196.1000;0.0700;-0.8210;
1196.4000;0.0724;-0.8254;
1196.7000;0.0716;-0.8254;
1197.0000;0.0741;-0.8165;
1197.3000;0.0741;-0.8143;
1197.6000;0.0757;-0.8077;
1197.9000;0.0700;-0.8298;
1198.2000;0.0798;-0.8010;
1198.5000;0.0749;-0.8210;
1198.8000;0.0724;-0.8276;
1199.1000;0.0700;-0.8387;
1199.4000;0.0757;-0.8254;
1199.7000;0.0724;-0.8276;
1200.0000;0.0692;-0.8342;
1200.3000;0.0749;-0.8165;
1200.6000;0.0724;-0.8232;
1200.9000;0.0708;-0.8276;
1201.2000;0.0781;-0.8077;
1201.5000;0.0757;-0.8210;
1201.8000;0.0733;-0.8298;
1202.1000;0.0700;-0.8232;
1202.4000;0.0733;-0.8187;
1202.7000;0.0741;-0.8276;
1203.0000;0.0708;-0.8387;
1203.3000;0.0716;-0.8276;
1203.6000;0.0749;-0.8143;
1203.9000;0.0733;-0.8320;
1204.2000;0.0781;-0.8232;
1204.5000;0.0733;-0.8298;
1204.8000;0.0724;-0.8232;
1205.1000;0.0733;-0.8232;
1205.4000;0.0708;-0.8254;
1205.7000;0.0757;-0.8210;
1206.0000;0.0749;-0.8210;
1206.3000;0.0781;-0.8187;
1206.6000;0.0716;-0.8387;
1206.9000;0.0733;-0.8364;
1207.2000;0.0733;-0.8298;
1207.5000;0.0733;-0.8276;
1207.8000;0.0716;-0.8320;
1208.1000;0.0692;-0.8342;
1208.4000;0.0700;-0.8254;
1208.7000;0.0733;-0.8254;
1209.0000;0.0757;-0.8187;
1209.3000;0.0724;-0.8210;
1209.6000;0.0749;-0.8165;
1209.9000;0.0879;-0.7811;
1210.2000;0.0749;-0.8121;
1210.5000;0.0724;-0.8232;
1210.8000;0.0724;-0.8298;
1211.1000;0.0741;-0.8254;
1211.4000;0.0684;-0.8453;
1211.7000;0.0749;-0.8276;
1212.0000;0.0749;-0.8364;
1212.3000;0.0733;-0.8342;
1212.6000;0.0733;-0.8342;
1212.9000;0.0643;-0.8541;
1213.2000;0.0724;-0.8298;
1213.5000;0.0716;-0.8342;
1213.8000;0.0749;-0.8320;
1214.1000;0.0724;-0.8320;
1214.4000;0.0733;-0.8254;
1214.7000;0.0733;-0.8276;
1215.0000;0.0733;-0.8320;
1215.3000;0.0733;-0.8298;
1215.6000;0.0708;-0.8409;
1215.9000;0.0708;-0.8475;
1216.2000;0.0749;-0.8409;
1216.5000;0.0692;-0.8453;
1216.8000;0.0708;-0.8387;
1217.1000;0.0692;-0.8453;
1217.4000;0.0700;-0.8497;
1217.7000;0.0708;-0.8387;
1218.0000;0.0733;-0.8409;
1218.3000;0.0757;-0.8431;
1218.6000;0.0749;-0.8453;
1218.9000;0.0659;-0.8586;
1219.2000;0.0724;-0.8475;
1219.5000;0.0716;-0.8564;
1219.8000;0.0724;-0.8541;
1220.1000;0.0708;-0.8630;
1220.4000;0.0611;-0.8918;
1220.7000;0.0724;-0.8586;
1221.0000;0.0708;-0.8608;
1221.3000;0.0692;-0.8519;
1221.6000;0.0700;-0.8453;
1221.9000;0.0741;-0.8320;
1222.2000;0.0765;-0.8276;
1222.5000;0.0716;-0.8364;
1222.8000;0.0741;-0.8187;
1223.1000;0.0716;-0.8210;
1223.4000;0.0781;-0.7988;
1223.7000;0.0765;-0.8143;
1224.0000;0.0733;-0.8254;
1224.3000;0.0659;-0.8453;
1224.6000;0.0741;-0.8320;
1224.9000;0.0724;-0.8342;
1225.2000;0.0749;-0.8342;
1225.5000;0.0659;-0.8586;
1225.8000;0.0798;-0.8232;
1226.1000;0.0708;-0.8364;
1226.4000;0.0749;-0.8210;
1226.7000;0.0716;-0.8254;
1227.0000;0.0692;-0.8298;
1227.3000;0.0700;-0.8298;
1227.6000;0.0708;-0.8364;
1227.9000;0.0716;-0.8276;
1228.2000;0.0724;-0.8298;
1228.5000;0.0806;-0.8033;
1228.8000;0.0700;-0.8298;
1229.1000;0.0716;-0.8298;
1229.4000;0.0765;-0.8121;
1229.7000;0.0716;-0.8165;
1230.0000;0.0749;-0.8099;
1230.3000;0.0724;-0.8187;
1230.6000;0.0757;-0.8121;
1230.9000;0.0716;-0.8210;
1231.2000;0.0716;-0.8165;
1231.5000;0.0716;-0.8165;
1231.8000;0.0692;-0.8254;
1232.1000;0.0716;-0.8187;
1232.4000;0.0716;-0.8165;
1232.7000;0.0733;-0.8121;
1233.0000;0.0733;-0.8165;
1233.3000;0.0716;-0.8187;
1233.6000;0.0708;-0.8232;
1233.9000;0.0700;-0.8298;
1234.2000;0.0724;-0.8342;
1234.5000;0.0749;-0.8320;
1234.8000;0.0733;-0.8320;
1235.1000;0.0855;-0.7900;
1235.4000;0.0684;-0.8276;
1235.7000;0.0741;-0.8143;
1236.0000;0.0716;-0.8232;
1236.3000;0.0716;-0.8298;
1236.6000;0.0716;-0.8298;
1236.9000;0.0692;-0.8298;
1237.2000;0.0724;-0.8232;
1237.5000;0.0708;-0.8298;
1237.8000;0.0749;-0.8210;
1238.1000;0.0700;-0.8254;
1238.4000;0.0708;-0.8232;
1238.7000;0.0708;-0.8187;
1239.0000;0.0741;-0.8121;
1239.3000;0.0749;-0.8121;
1239.6000;0.0741;-0.8210;
1239.9000;0.0741;-0.8276;
1240.2000;0.0716;-0.8254;
1240.5000;0.0757;-0.8187;
1240.8000;0.0684;-0.8364;
1241.1000;0.0733;-0.8210;
1241.4000;0.0716;-0.8165;
1241.7000;0.0708;-0.8099;
1242.0000;0.0741;-0.8033;
1242.3000;0.0716;-0.8143;
1242.6000;0.0733;-0.8033;
1242.9000;0.0708;-0.8099;
1243.2000;0.0716;-0.8165;
1243.5000;0.0716;-0.8121;
1243.8000;0.0741;-0.8143;
1244.1000;0.0741;-0.8033;
1244.4000;0.0651;-0.8210;
1244.7000;0.0724;-0.8055;
1245.0000;0.0749;-0.8010;
1245.3000;0.0692;-0.8232;
1245.6000;0.0749;-0.8165;
1245.9000;0.0708;-0.8254;
1246.2000;0.0708;-0.8143;
1246.5000;0.0724;-0.8077;
1246.8000;0.0700;-0.8121;
1247.1000;0.0724;-0.8077;
1247.4000;0.0684;-0.8210;
1247.7000;0.0724;-0.8165;
1248.0000;0.0651;-0.8342;
1248.3000;0.0724;-0.8143;
1248.6000;0.0741;-0.8143;
1248.9000;0.0724;-0.8187;
1249.2000;0.0749;-0.8099;
1249.5000;0.0676;-0.8187;
1249.8000;0.0733;-0.8121;
1250.1000;0.0733;-0.8099;
1250.4000;0.0798;-0.8010;
1250.7000;0.0757;-0.8121;
1251.0000;0.0790;-0.7922;
1251.3000;0.0692;-0.8143;
1251.6000;0.0733;-0.8121;
1251.9000;0.0749;-0.8055;
1252.2000;0.0822;-0.7833;
1252.5000;0.0838;-0.7745;
1252.8000;0.0733;-0.8010;
1253.1000;0.0643;-0.8298;
1253.4000;0.0741;-0.8077;
1253.7000;0.0708;-0.8121;
1254.0000;0.0749;-0.8055;
1254.3000;0.0627;-0.8387;
1254.6000;0.0724;-0.8254;
1254.9000;0.0741;-0.8320;
1255.2000;0.0708;-0.8298;
1255.5000;0.0733;-0.8254;
1255.8000;0.0798;-0.8055;
1256.1000;0.0757;-0.8099;
1256.4000;0.0733;-0.8276;
1256.7000;0.0716;-0.8298;
1257.0000;0.0716;-0.8409;
1257.3000;0.0724;-0.8342;
1257.6000;0.0684;-0.8364;
1257.9000;0.0716;-0.8254;
1258.2000;0.0741;-0.8254;
1258.5000;0.0733;-0.8165;
1258.8000;0.0781;-0.8121;
1259.1000;0.0765;-0.8055;
1259.4000;0.0724;-0.8143;
1259.7000;0.0757;-0.8077;
1260.0000;0.0700;-0.8276;
1260.3000;0.0716;-0.8232;
1260.6000;0.0724;-0.8210;
1260.9000;0.0749;-0.8165;
1261.2000;0.0700;-0.8232;
1261.5000;0.0724;-0.8210;
1261.8000;0.0749;-0.8187;
1262.1000;0.0700;-0.8210;
1262.4000;0.0708;-0.8187;
1262.7000;0.0708;-0.8165;
1263.0000;0.0724;-0.8143;
1263.3000;0.0724;-0.8077;
1263.6000;0.0749;-0.8033;
1263.9000;0.0733;-0.8143;
1264.2000;0.0700;-0.8276;
1264.5000;0.0765;-0.8187;
1264.8000;0.0733;-0.8320;
1265.1000;0.0708;-0.8364;
1265.4000;0.0716;-0.8276;
1265.7000;0.0757;-0.8143;
1266.0000;0.0749;-0.8165;
1266.3000;0.0651;-0.8475;
1266.6000;0.0708;-0.8320;
1266.9000;0.0716;-0.8298;
1267.2000;0.0733;-0.8232;
1267.5000;0.0684;-0.8254;
1267.8000;0.0659;-0.8232;
1268.1000;0.0724;-0.8099;
1268.4000;0.0643;-0.8342;
1268.7000;0.0716;-0.8143;
1269.0000;0.0765;-0.8010;
1269.3000;0.0708;-0.8165;
1269.6000;0.0733;-0.8077;
1269.9000;0.0749;-0.8099;
1270.2000;0.0733;-0.8254;
1270.5000;0.0749;-0.8121;
1270.8000;0.0741;-0.8010;
1271.1000;0.0651;-0.8232;
1271.4000;0.0798;-0.7944;
1271.7000;0.0611;-0.8342;
1272.0000;0.0733;-0.7988;
1272.3000;0.0700;-0.8143;
1272.6000;0.0733;-0.8099;
1272.9000;0.0741;-0.7988;
1273.2000;0.0716;-0.8143;
1273.5000;0.0708;-0.8232;
1273.8000;0.0749;-0.8210;
1274.1000;0.0684;-0.8298;
1274.4000;0.0716;-0.8276;
1274.7000;0.0741;-0.8232;
1275.0000;0.0692;-0.8254;
1275.3000;0.0716;-0.8232;
1275.6000;0.0724;-0.8210;
1275.9000;0.0741;-0.8210;
1276.2000;0.0741;-0.8254;
1276.5000;0.0667;-0.8541;
1276.8000;0.0733;-0.8453;
1277.1000;0.0684;-0.8541;
1277.4000;0.0676;-0.8564;
1277.7000;0.0724;-0.8387;
1278.0000;0.0708;-0.8342;
1278.3000;0.0773;-0.8033;
1278.6000;0.0724;-0.8099;
1278.9000;0.0741;-0.8121;
1279.2000;0.0724;-0.8232;
1279.5000;0.0765;-0.8143;
1279.8000;0.0749;-0.8187;
1280.1000;0.0716;-0.8232;
1280.4000;0.0741;-0.8210;
1280.7000;0.0651;-0.8453;
1281.0000;0.0724;-0.8320;
1281.3000;0.0741;-0.8210;
1281.6000;0.0806;-0.8187;
1281.9000;0.0708;-0.8431;
1282.2000;0.0716;-0.8409;
1282.5000;0.0733;-0.8431;
1282.8000;0.0741;-0.8431;
1283.1000;0.0814;-0.8121;
1283.4000;0.0733;-0.8187;
1283.7000;0.0822;-0.7900;
1284.0000;0.0676;-0.8232;
1284.3000;0.0724;-0.8121;
1284.6000;0.0716;-0.8232;
1284.9000;0.0749;-0.8210;
1285.2000;0.0724;-0.8210;
1285.5000;0.0700;-0.8254;
1285.8000;0.0749;-0.8010;
1286.1000;0.0806;-0.7878;
1286.4000;0.0757;-0.8033;
1286.7000;0.0741;-0.8099;
1287.0000;0.0724;-0.8121;
1287.3000;0.0741;-0.8055;
1287.6000;0.0708;-0.8099;
1287.9000;0.0806;-0.7878;
1288.2000;0.0781;-0.7900;
1288.5000;0.0757;-0.7900;
1288.8000;0.0635;-0.8210;
1289.1000;0.0724;-0.7988;
1289.4000;0.0708;-0.8055;
1289.7000;0.0733;-0.7922;
1290.0000;0.0700;-0.7966;
1290.3000;0.0749;-0.7900;
1290.6000;0.0733;-0.7944;
1290.9000;0.0692;-0.8010;
1291.2000;0.0733;-0.7944;
1291.5000;0.0830;-0.7789;
1291.8000;0.0724;-0.7922;
1292.1000;0.0765;-0.7833;
1292.4000;0.0733;-0.7900;
1292.7000;0.0863;-0.7656;
1293.0000;0.0676;-0.8077;
1293.3000;0.0667;-0.8010;
1293.6000;0.0765;-0.7767;
1293.9000;0.0757;-0.7723;
1294.2000;0.0871;-0.7590;
1294.5000;0.0822;-0.7767;
1294.8000;0.0741;-0.8033;
1295.1000;0.0708;-0.8077;
1295.4000;0.0667;-0.8232;
1295.7000;0.0749;-0.7988;
1296.0000;0.0676;-0.8210;
1296.3000;0.0749;-0.8099;
1296.6000;0.0733;-0.8187;
1296.9000;0.0749;-0.8187;
1297.2000;0.0749;-0.8143;
1297.5000;0.0741;-0.8099;
1297.8000;0.0724;-0.8121;
1298.1000;0.0741;-0.8010;
1298.4000;0.0741;-0.8077;
1298.7000;0.0716;-0.8143;
1299.0000;0.0716;-0.8121;
1299.3000;0.0716;-0.8143;
1299.6000;0.0724;-0.8187;
1299.9000;0.0749;-0.8210;
1300.2000;0.0741;-0.8276;
1300.5000;0.0676;-0.8541;
1300.8000;0.0749;-0.8364;
1301.1000;0.0733;-0.8320;
1301.4000;0.0749;-0.8187;
1301.7000;0.0733;-0.8276;
1302.0000;0.0773;-0.8232;
1302.3000;0.0741;-0.8298;
1302.6000;0.0733;-0.8254;
1302.9000;0.0733;-0.8276;
1303.2000;0.0733;-0.8298;
1303.5000;0.0692;-0.8431;
1303.8000;0.0724;-0.8320;
1304.1000;0.0700;-0.8387;
1304.4000;0.0700;-0.8342;
1304.7000;0.0708;-0.8254;
1305.0000;0.0724;-0.8232;
1305.3000;0.0724;-0.8210;
1305.6000;0.0749;-0.8121;
1305.9000;0.0749;-0.8143;
1306.2000;0.0741;-0.8077;
1306.5000;0.0749;-0.8033;
1306.8000;0.0749;-0.8010;
1307.1000;0.0684;-0.8210;
1307.4000;0.0724;-0.8121;
1307.7000;0.0749;-0.8099;
1308.0000;0.0733;-0.8121;
1308.3000;0.0716;-0.8187;
1308.6000;0.0724;-0.8210;
1308.9000;0.0733;-0.8210;
1309.2000;0.0741;-0.8099;
1309.5000;0.0708;-0.8099;
1309.8000;0.0790;-0.7855;
1310.1000;0.0708;-0.8010;
1310.4000;0.0708;-0.8055;
1310.7000;0.0757;-0.7966;
1311.0000;0.0741;-0.7988;
1311.3000;0.0741;-0.8010;
1311.6000;0.0741;-0.7988;
1311.9000;0.0724;-0.8165;
1312.2000;0.0724;-0.8232;
1312.5000;0.0741;-0.8254;
1312.8000;0.0733;-0.8187;
1313.1000;0.0733;-0.8210;
1313.4000;0.0741;-0.8187;
1313.7000;0.0724;-0.8210;
1314.0000;0.0757;-0.8210;
1314.3000;0.0700;-0.8387;
1314.6000;0.0700;-0.8431;
1314.9000;0.0749;-0.8276;
1315.2000;0.0741;-0.8232;
1315.5000;0.0749;-0.8165;
1315.8000;0.0716;-0.8187;
1316.1000;0.0708;-0.8210;
1316.4000;0.0700;-0.8187;
1316.7000;0.0643;-0.8364;
1317.0000;0.0716;-0.8232;
1317.3000;0.0692;-0.8364;
1317.6000;0.0724;-0.8210;
1317.9000;0.0741;-0.8210;
1318.2000;0.0676;-0.8387;
1318.5000;0.0855;-0.8010;
1318.8000;0.0765;-0.8276;
1319.1000;0.0733;-0.8364;
1319.4000;0.0749;-0.8320;
1319.7000;0.0708;-0.8342;
1320.0000;0.0724;-0.8342;
1320.3000;0.0749;-0.8254;
1320.6000;0.0667;-0.8342;
1320.9000;0.0757;-0.8033;
1321.2000;0.0733;-0.8033;
1321.5000;0.0659;-0.8210;
1321.8000;0.0716;-0.8077;
1322.1000;0.0724;-0.8099;
1322.4000;0.0708;-0.8165;
1322.7000;0.0716;-0.8254;
1323.0000;0.0716;-0.8254;
1323.3000;0.0733;-0.8254;
1323.6000;0.0749;-0.8254;
1323.9000;0.0757;-0.8254;
1324.2000;0.0741;-0.8210;
1324.5000;0.0855;-0.7922;
1324.8000;0.0700;-0.8232;
1325.1000;0.0724;-0.8121;
1325.4000;0.0741;-0.8077;
1325.7000;0.0733;-0.8121;
1326.0000;0.0749;-0.8099;
1326.3000;0.0724;-0.8232;
1326.6000;0.0724;-0.8298;
1326.9000;0.0724;-0.8342;
1327.2000;0.0708;-0.8298;
1327.5000;0.0708;-0.8342;
1327.8000;0.0741;-0.8232;
1328.1000;0.0724;-0.8254;
1328.4000;0.0724;-0.8187;
1328.7000;0.0716;-0.8165;
1329.0000;0.0749;-0.8099;
1329.3000;0.0733;-0.8143;
1329.6000;0.0733;-0.8210;
1329.9000;0.0741;-0.8187;
1330.2000;0.0765;-0.8143;
1330.5000;0.0733;-0.8121;
1330.8000;0.0733;-0.8121;
1331.1000;0.0708;-0.8121;
1331.4000;0.0708;-0.8187;
1331.7000;0.0749;-0.8077;
1332.0000;0.0749;-0.7988;
1332.3000;0.0708;-0.8033;
1332.6000;0.0733;-0.7944;
1332.9000;0.0733;-0.7922;
1333.2000;0.0733;-0.7988;
1333.5000;0.0724;-0.8010;
1333.8000;0.0733;-0.8033;
1334.1000;0.0733;-0.8121;
1334.4000;0.0733;-0.8187;
1334.7000;0.0733;-0.8210;
1335.0000;0.0627;-0.8431;
1335.3000;0.0733;-0.8187;
1335.6000;0.0765;-0.8033;
1335.9000;0.0733;-0.7988;
1336.2000;0.0716;-0.7988;
1336.5000;0.0749;-0.7966;
1336.8000;0.0741;-0.8055;
1337.1000;0.0749;-0.8077;
1337.4000;0.0749;-0.8033;
1337.7000;0.0700;-0.8232;
1338.0000;0.0741;-0.8143;
1338.3000;0.0781;-0.8010;
1338.6000;0.0741;-0.8143;
1338.9000;0.0724;-0.8187;
1339.2000;0.0733;-0.8187;
1339.5000;0.0741;-0.8232;
1339.8000;0.0741;-0.8232;
1340.1000;0.0741;-0.8099;
1340.4000;0.0692;-0.8210;
1340.7000;0.0749;-0.8055;
1341.0000;0.0659;-0.8320;
1341.3000;0.0724;-0.8121;
1341.6000;0.0716;-0.8165;
1341.9000;0.0741;-0.8033;
1342.2000;0.0741;-0.8055;
1342.5000;0.0887;-0.7767;
1342.8000;0.0716;-0.8099;
1343.1000;0.0724;-0.8187;
1343.4000;0.0790;-0.7988;
1343.7000;0.0716;-0.8276;
1344.0000;0.0716;-0.8320;
1344.3000;0.0724;-0.8298;
1344.6000;0.0765;-0.8187;
1344.9000;0.0716;-0.8210;
1345.2000;0.0724;-0.8121;
1345.5000;0.0708;-0.8121;
1345.8000;0.0733;-0.8055;
1346.1000;0.0757;-0.8010;
1346.4000;0.0749;-0.8165;
1346.7000;0.0757;-0.8210;
1347.0000;0.0724;-0.8276;
1347.3000;0.0724;-0.8342;
1347.6000;0.0716;-0.8276;
1347.9000;0.0716;-0.8298;
1348.2000;0.0692;-0.8276;
1348.5000;0.0700;-0.8254;
1348.8000;0.0692;-0.8298;
1349.1000;0.0724;-0.8232;
1349.4000;0.0716;-0.8232;
1349.7000;0.0733;-0.8276;
1350.0000;0.0741;-0.8320;
1350.3000;0.0733;-0.8298;
1350.6000;0.0724;-0.8298;
1350.9000;0.0724;-0.8298;
1351.2000;0.0724;-0.8187;
1351.5000;0.0724;-0.8121;
1351.8000;0.0741;-0.8121;
1352.1000;0.0741;-0.8254;
1352.4000;0.0716;-0.8210;
1352.7000;0.0724;-0.8254;
1353.0000;0.0757;-0.8077;
1353.3000;0.0733;-0.8187;
1353.6000;0.0733;-0.8187;
1353.9000;0.0741;-0.8210;
1354.2000;0.0741;-0.8254;
1354.5000;0.0741;-0.8143;
1354.8000;0.0741;-0.8187;
1355.1000;0.0708;-0.8143;
1355.4000;0.0749;-0.8165;
1355.7000;0.0724;-0.8298;
1356.0000;0.0830;-0.8099;
1356.3000;0.0741;-0.8276;
1356.6000;0.0692;-0.8342;
1356.9000;0.0733;-0.8210;
1357.2000;0.0741;-0.8143;
1357.5000;0.0700;-0.8298;
1357.8000;0.0749;-0.8187;
1358.1000;0.0708;-0.8298;
1358.4000;0.0733;-0.8232;
1358.7000;0.0741;-0.8210;
1359.0000;0.0733;-0.8210;
1359.3000;0.0733;-0.8165;
1359.6000;0.0724;-0.8254;
1359.9000;0.0757;-0.8099;
1360.2000;0.0667;-0.8298;
1360.5000;0.0708;-0.8165;
1360.8000;0.0733;-0.8165;
1361.1000;0.0733;-0.8210;
1361.4000;0.0741;-0.8143;
1361.7000;0.0733;-0.8165;
1362.0000;0.0830;-0.7944;
1362.3000;0.0822;-0.7944;
1362.6000;0.0716;-0.8143;
1362.9000;0.0773;-0.7988;
1363.2000;0.0724;-0.8165;
1363.5000;0.0757;-0.8121;
1363.8000;0.0700;-0.8210;
1364.1000;0.0749;-0.8055;
1364.4000;0.0700;-0.8143;
1364.7000;0.0724;-0.8143;
1365.0000;0.0716;-0.8165;
1365.3000;0.0741;-0.8210;
1365.6000;0.0716;-0.8298;
1365.9000;0.0724;-0.8187;
1366.2000;0.0716;-0.8254;
1366.5000;0.0692;-0.8320;
1366.8000;0.0684;-0.8364;
1367.1000;0.0724;-0.8342;
1367.4000;0.0651;-0.8519;
1367.7000;0.0733;-0.8387;
1368.0000;0.0692;-0.8519;
1368.3000;0.0708;-0.8387;
1368.6000;0.0733;-0.8298;
1368.9000;0.0700;-0.8342;
1369.2000;0.0716;-0.8276;
1369.5000;0.0741;-0.8276;
1369.8000;0.0667;-0.8453;
1370.1000;0.0765;-0.8276;
1370.4000;0.0749;-0.8187;
1370.7000;0.0708;-0.8232;
1371.0000;0.0724;-0.8298;
1371.3000;0.0724;-0.8342;
1371.6000;0.0716;-0.8342;
1371.9000;0.0741;-0.8254;
1372.2000;0.0733;-0.8276;
1372.5000;0.0724;-0.8342;
1372.8000;0.0724;-0.8320;
1373.1000;0.0708;-0.8364;
1373.4000;0.0667;-0.8431;
1373.7000;0.0798;-0.8210;
1374.0000;0.0724;-0.8453;
1374.3000;0.0708;-0.8497;
1374.6000;0.0716;-0.8497;
1374.9000;0.0749;-0.8453;
1375.2000;0.0749;-0.8475;
1375.5000;0.0724;-0.8541;
1375.8000;0.0741;-0.8497;
1376.1000;0.0741;-0.8453;
1376.4000;0.0733;-0.8431;
1376.7000;0.0716;-0.8431;
1377.0000;0.0757;-0.8364;
1377.3000;0.0757;-0.8298;
1377.6000;0.0716;-0.8298;
1377.9000;0.0700;-0.8409;
1378.2000;0.0708;-0.8431;
1378.5000;0.0724;-0.8409;
1378.8000;0.0741;-0.8342;
1379.1000;0.0733;-0.8320;
1379.4000;0.0716;-0.8387;
1379.7000;0.0879;-0.8055;
1380.0000;0.0822;-0.8210;
1380.3000;0.0692;-0.8453;
1380.6000;0.0700;-0.8387;
1380.9000;0.0700;-0.8364;
1381.2000;0.0716;-0.8320;
1381.5000;0.0741;-0.8232;
1381.8000;0.0676;-0.8320;
1382.1000;0.0716;-0.8232;
1382.4000;0.0700;-0.8232;
1382.7000;0.0724;-0.8276;
1383.0000;0.0733;-0.8254;
1383.3000;0.0724;-0.8232;
1383.6000;0.0733;-0.8210;
1383.9000;0.0741;-0.8276;
1384.2000;0.0733;-0.8342;
1384.5000;0.0741;-0.8298;
1384.8000;0.0716;-0.8364;
1385.1000;0.0741;-0.8232;
1385.4000;0.0700;-0.8298;
1385.7000;0.0781;-0.8099;
1386.0000;0.0651;-0.8453;
1386.3000;0.0716;-0.8254;
1386.6000;0.0765;-0.8121;
1386.9000;0.0708;-0.8187;
1387.2000;0.0749;-0.8099;
1387.5000;0.0684;-0.8298;
1387.8000;0.0733;-0.8143;
1388.1000;0.0724;-0.8232;
1388.4000;0.0741;-0.8232;
1388.7000;0.0635;-0.8541;
1389.0000;0.0806;-0.8121;
1389.3000;0.0741;-0.8165;
1389.6000;0.0708;-0.8187;
1389.9000;0.0724;-0.8143;
1390.2000;0.0741;-0.8210;
1390.5000;0.0684;-0.8364;
1390.8000;0.0724;-0.8387;
1391.1000;0.0667;-0.8497;
1391.4000;0.0733;-0.8364;
1391.7000;0.0716;-0.8475;
1392.0000;0.0822;-0.8210;
1392.3000;0.0773;-0.8276;
1392.6000;0.0716;-0.8453;
1392.9000;0.0749;-0.8320;
1393.2000;0.0733;-0.8453;
1393.5000;0.0708;-0.8586;
1393.8000;0.0708;-0.8630;
1394.1000;0.0716;-0.8586;
1394.4000;0.0724;-0.8586;
1394.7000;0.0733;-0.8519;
1395.0000;0.0733;-0.8453;
1395.3000;0.0684;-0.8497;
1395.6000;0.0724;-0.8342;
1395.9000;0.0708;-0.8453;
1396.2000;0.0733;-0.8320;
1396.5000;0.0733;-0.8342;
1396.8000;0.0716;-0.8364;
1397.1000;0.0700;-0.8342;
1397.4000;0.0733;-0.8276;
1397.7000;0.0724;-0.8298;
1398.0000;0.0724;-0.8364;
1398.3000;0.0716;-0.8320;
1398.6000;0.0749;-0.8232;
1398.9000;0.0716;-0.8364;
1399.2000;0.0741;-0.8298;
1399.5000;0.0716;-0.8254;
1399.8000;0.0716;-0.8210;
