time/ms;Fluo/V;P700 deltaI/I x10³;
-199.8000;0.2768;-0.0223;
-199.5000;0.2776;-0.0198;
-199.2000;0.2768;-0.0223;
-198.9000;0.2759;-0.0198;
-198.6000;0.2759;-0.0173;
-198.3000;0.2751;-0.0149;
-198.0000;0.2776;-0.0050;
-197.7000;0.2743;-0.0198;
-197.4000;0.2751;-0.0124;
-197.1000;0.2776;-0.0099;
-196.8000;0.2784;-0.0099;
-196.5000;0.2768;-0.0099;
-196.2000;0.2751;-0.0149;
-195.9000;0.2768;-0.0173;
-195.6000;0.2784;-0.0124;
-195.3000;0.2792;-0.0074;
-195.0000;0.2816;-0.0124;
-194.7000;0.2784;-0.0198;
-194.4000;0.2784;-0.0173;
-194.1000;0.2776;-0.0149;
-193.8000;0.2751;-0.0124;
-193.5000;0.2759;-0.0198;
-193.2000;0.2759;-0.0149;
-192.9000;0.2776;-0.0173;
-192.6000;0.2759;-0.0149;
-192.3000;0.2759;0.0000;
-192.0000;0.2776;0.0074;
-191.7000;0.2800;0.0099;
-191.4000;0.2784;0.0025;
-191.1000;0.2800;0.0050;
-190.8000;0.2800;-0.0025;
-190.5000;0.2784;-0.0074;
-190.2000;0.2784;-0.0124;
-189.9000;0.2800;-0.0025;
-189.6000;0.2800;-0.0025;
-189.3000;0.2792;0.0099;
-189.0000;0.2841;0.0223;
-188.7000;0.2800;0.0099;
-188.4000;0.2800;0.0099;
-188.1000;0.2808;0.0149;
-187.8000;0.2751;-0.0074;
-187.5000;0.2825;0.0050;
-187.2000;0.2784;-0.0025;
-186.9000;0.2768;0.0050;
-186.6000;0.2776;0.0074;
-186.3000;0.2800;0.0124;
-186.0000;0.2743;0.0025;
-185.7000;0.2800;0.0124;
-185.4000;0.2825;0.0099;
-185.1000;0.2776;-0.0074;
-184.8000;0.2784;-0.0124;
-184.5000;0.2816;-0.0124;
-184.2000;0.2800;-0.0272;
-183.9000;0.2816;-0.0297;
-183.6000;0.2784;-0.0371;
-183.3000;0.2800;-0.0322;
-183.0000;0.2784;-0.0396;
-182.7000;0.2800;-0.0322;
-182.4000;0.2792;-0.0322;
-182.1000;0.2776;-0.0322;
-181.8000;0.2759;-0.0396;
-181.5000;0.2808;-0.0322;
-181.2000;0.2816;-0.0297;
-180.9000;0.2816;-0.0248;
-180.6000;0.2800;-0.0198;
-180.3000;0.2800;-0.0149;
-180.0000;0.2833;-0.0050;
-179.7000;0.2825;0.0050;
-179.4000;0.2816;0.0099;
-179.1000;0.2816;0.0050;
-178.8000;0.2865;0.0124;
-178.5000;0.2833;0.0074;
-178.2000;0.2825;0.0074;
-177.9000;0.2833;0.0149;
-177.6000;0.2808;0.0025;
-177.3000;0.2833;0.0074;
-177.0000;0.2808;0.0050;
-176.7000;0.2800;-0.0050;
-176.4000;0.2825;-0.0124;
-176.1000;0.2833;-0.0173;
-175.8000;0.2816;-0.0248;
-175.5000;0.2833;-0.0198;
-175.2000;0.2808;-0.0149;
-174.9000;0.2825;-0.0149;
-174.6000;0.2833;-0.0173;
-174.3000;0.2825;-0.0248;
-174.0000;0.2849;-0.0099;
-173.7000;0.2841;-0.0099;
-173.4000;0.2865;-0.0050;
-173.1000;0.2906;0.0124;
-172.8000;0.2833;-0.0050;
-172.5000;0.2849;-0.0050;
-172.2000;0.2857;-0.0025;
-171.9000;0.2849;-0.0099;
-171.6000;0.2816;-0.0198;
-171.3000;0.2833;-0.0149;
-171.0000;0.2857;-0.0025;
-170.7000;0.2841;-0.0025;
-170.4000;0.2833;-0.0074;
-170.1000;0.2833;-0.0173;
-169.8000;0.2841;-0.0099;
-169.5000;0.2849;-0.0099;
-169.2000;0.2833;-0.0173;
-168.9000;0.2849;-0.0099;
-168.6000;0.2849;-0.0099;
-168.3000;0.2857;-0.0074;
-168.0000;0.2841;-0.0099;
-167.7000;0.2849;-0.0099;
-167.4000;0.2849;0.0000;
-167.1000;0.2849;0.0000;
-166.8000;0.2849;-0.0074;
-166.5000;0.2857;-0.0099;
-166.2000;0.2841;-0.0124;
-165.9000;0.2857;-0.0099;
-165.6000;0.2865;-0.0025;
-165.3000;0.2865;-0.0074;
-165.0000;0.2873;-0.0050;
-164.7000;0.2882;0.0050;
-164.4000;0.2873;0.0074;
-164.1000;0.2873;0.0025;
-163.8000;0.2841;-0.0074;
-163.5000;0.2873;-0.0025;
-163.2000;0.2857;-0.0074;
-162.9000;0.2857;-0.0025;
-162.6000;0.2898;0.0149;
-162.3000;0.2849;0.0025;
-162.0000;0.2882;0.0050;
-161.7000;0.2882;-0.0050;
-161.4000;0.2825;-0.0297;
-161.1000;0.2873;-0.0149;
-160.8000;0.2873;-0.0198;
-160.5000;0.2939;0.0000;
-160.2000;0.2882;-0.0322;
-159.9000;0.2890;-0.0272;
-159.6000;0.2882;-0.0322;
-159.3000;0.2930;-0.0248;
-159.0000;0.2882;-0.0371;
-158.7000;0.2890;-0.0347;
-158.4000;0.2849;-0.0421;
-158.1000;0.2890;-0.0248;
-157.8000;0.2865;-0.0322;
-157.5000;0.2816;-0.0371;
-157.2000;0.2882;-0.0297;
-156.9000;0.2865;-0.0297;
-156.6000;0.2947;-0.0173;
-156.3000;0.2898;-0.0347;
-156.0000;0.2898;-0.0347;
-155.7000;0.2890;-0.0322;
-155.4000;0.2890;-0.0322;
-155.1000;0.2898;-0.0297;
-154.8000;0.2882;-0.0272;
-154.5000;0.2906;-0.0322;
-154.2000;0.2865;-0.0446;
-153.9000;0.2906;-0.0297;
-153.6000;0.2898;-0.0396;
-153.3000;0.2890;-0.0421;
-153.0000;0.2906;-0.0446;
-152.7000;0.2906;-0.0446;
-152.4000;0.2898;-0.0421;
-152.1000;0.2898;-0.0446;
-151.8000;0.2914;-0.0421;
-151.5000;0.2914;-0.0396;
-151.2000;0.2890;-0.0396;
-150.9000;0.2898;-0.0421;
-150.6000;0.2922;-0.0322;
-150.3000;0.2914;-0.0297;
-150.0000;0.2914;-0.0347;
-149.7000;0.2914;-0.0371;
-149.4000;0.2922;-0.0371;
-149.1000;0.2930;-0.0297;
-148.8000;0.2930;-0.0272;
-148.5000;0.2922;-0.0198;
-148.2000;0.2898;-0.0322;
-147.9000;0.2922;-0.0173;
-147.6000;0.2914;-0.0099;
-147.3000;0.2922;-0.0074;
-147.0000;0.2890;-0.0198;
-146.7000;0.2939;-0.0124;
-146.4000;0.2906;-0.0198;
-146.1000;0.2955;-0.0124;
-145.8000;0.2930;-0.0198;
-145.5000;0.2922;-0.0223;
-145.2000;0.2914;-0.0223;
-144.9000;0.2947;-0.0124;
-144.6000;0.2939;-0.0198;
-144.3000;0.2922;-0.0173;
-144.0000;0.2873;-0.0272;
-143.7000;0.2906;-0.0149;
-143.4000;0.2922;-0.0198;
-143.1000;0.2922;-0.0173;
-142.8000;0.2930;-0.0223;
-142.5000;0.2939;-0.0248;
-142.2000;0.2873;-0.0421;
-141.9000;0.2857;-0.0495;
-141.6000;0.2930;-0.0248;
-141.3000;0.2930;-0.0322;
-141.0000;0.2882;-0.0421;
-140.7000;0.2898;-0.0396;
-140.4000;0.2947;-0.0297;
-140.1000;0.2947;-0.0297;
-139.8000;0.2890;-0.0520;
-139.5000;0.2898;-0.0644;
-139.2000;0.2947;-0.0495;
-138.9000;0.3004;-0.0322;
-138.6000;0.2963;-0.0272;
-138.3000;0.2963;-0.0248;
-138.0000;0.2955;-0.0198;
-137.7000;0.2963;-0.0248;
-137.4000;0.2922;-0.0371;
-137.1000;0.2971;-0.0248;
-136.8000;0.2930;-0.0297;
-136.5000;0.2963;-0.0223;
-136.2000;0.2963;-0.0272;
-135.9000;0.2963;-0.0272;
-135.6000;0.2971;-0.0223;
-135.3000;0.2963;-0.0173;
-135.0000;0.2963;-0.0124;
-134.7000;0.2987;-0.0099;
-134.4000;0.2996;-0.0050;
-134.1000;0.2987;-0.0099;
-133.8000;0.2996;-0.0050;
-133.5000;0.2971;-0.0223;
-133.2000;0.2963;-0.0149;
-132.9000;0.2987;-0.0124;
-132.6000;0.2947;-0.0347;
-132.3000;0.2979;-0.0297;
-132.0000;0.2963;-0.0297;
-131.7000;0.2971;-0.0421;
-131.4000;0.2963;-0.0520;
-131.1000;0.2996;-0.0520;
-130.8000;0.2987;-0.0470;
-130.5000;0.3004;-0.0371;
-130.2000;0.2987;-0.0371;
-129.9000;0.3004;-0.0371;
-129.6000;0.2996;-0.0446;
-129.3000;0.3004;-0.0347;
-129.0000;0.2987;-0.0421;
-128.7000;0.2996;-0.0347;
-128.4000;0.3012;-0.0322;
-128.1000;0.3012;-0.0446;
-127.8000;0.3004;-0.0446;
-127.5000;0.3012;-0.0446;
-127.2000;0.3020;-0.0322;
-126.9000;0.3004;-0.0297;
-126.6000;0.3012;-0.0347;
-126.3000;0.3012;-0.0322;
-126.0000;0.2947;-0.0520;
-125.7000;0.3028;-0.0446;
-125.4000;0.3036;-0.0470;
-125.1000;0.3020;-0.0421;
-124.8000;0.2979;-0.0495;
-124.5000;0.3020;-0.0371;
-124.2000;0.3028;-0.0396;
-123.9000;0.3028;-0.0371;
-123.6000;0.3077;-0.0173;
-123.3000;0.3036;-0.0223;
-123.0000;0.3020;-0.0223;
-122.7000;0.3036;-0.0173;
-122.4000;0.3012;-0.0173;
-122.1000;0.3028;-0.0074;
-121.8000;0.3053;0.0025;
-121.5000;0.3036;-0.0025;
-121.2000;0.3044;-0.0050;
-120.9000;0.3028;-0.0099;
-120.6000;0.3036;-0.0099;
-120.3000;0.3077;-0.0099;
-120.0000;0.2987;-0.0297;
-119.7000;0.3036;-0.0149;
-119.4000;0.3061;-0.0050;
-119.1000;0.3109;0.0025;
-118.8000;0.3085;-0.0149;
-118.5000;0.3069;-0.0198;
-118.2000;0.3061;-0.0173;
-117.9000;0.3134;0.0025;
-117.6000;0.3053;-0.0272;
-117.3000;0.3093;-0.0248;
-117.0000;0.3085;-0.0248;
-116.7000;0.3069;-0.0272;
-116.4000;0.3126;-0.0124;
-116.1000;0.3053;-0.0198;
-115.8000;0.3061;-0.0223;
-115.5000;0.3077;-0.0223;
-115.2000;0.3044;-0.0248;
-114.9000;0.3020;-0.0173;
-114.6000;0.3061;0.0000;
-114.3000;0.3069;-0.0025;
-114.0000;0.3077;0.0025;
-113.7000;0.3085;0.0000;
-113.4000;0.3093;-0.0074;
-113.1000;0.3077;-0.0173;
-112.8000;0.3093;-0.0223;
-112.5000;0.3101;-0.0223;
-112.2000;0.3101;-0.0173;
-111.9000;0.3085;-0.0124;
-111.6000;0.3118;-0.0198;
-111.3000;0.3085;-0.0297;
-111.0000;0.3158;-0.0149;
-110.7000;0.3036;-0.0520;
-110.4000;0.3101;-0.0272;
-110.1000;0.3109;-0.0198;
-109.8000;0.3109;-0.0198;
-109.5000;0.3126;-0.0173;
-109.2000;0.3077;-0.0297;
-108.9000;0.3101;-0.0272;
-108.6000;0.3101;-0.0272;
-108.3000;0.3109;-0.0248;
-108.0000;0.3101;-0.0248;
-107.7000;0.3109;-0.0322;
-107.4000;0.3109;-0.0446;
-107.1000;0.3142;-0.0495;
-106.8000;0.3109;-0.0545;
-106.5000;0.3109;-0.0570;
-106.2000;0.3109;-0.0545;
-105.9000;0.3126;-0.0495;
-105.6000;0.3134;-0.0371;
-105.3000;0.3118;-0.0421;
-105.0000;0.3126;-0.0396;
-104.7000;0.3134;-0.0297;
-104.4000;0.3126;-0.0272;
-104.1000;0.3126;-0.0322;
-103.8000;0.3158;-0.0223;
-103.5000;0.3134;-0.0272;
-103.2000;0.3158;-0.0272;
-102.9000;0.3150;-0.0322;
-102.6000;0.3166;-0.0347;
-102.3000;0.3150;-0.0322;
-102.0000;0.3207;-0.0198;
-101.7000;0.3126;-0.0446;
-101.4000;0.3175;-0.0297;
-101.1000;0.3175;-0.0322;
-100.8000;0.3175;-0.0371;
-100.5000;0.3183;-0.0371;
-100.2000;0.3142;-0.0495;
-99.9000;0.3183;-0.0495;
-99.6000;0.3191;-0.0495;
-99.3000;0.3199;-0.0371;
-99.0000;0.3158;-0.0396;
-98.7000;0.3183;-0.0396;
-98.4000;0.3142;-0.0446;
-98.1000;0.3223;-0.0272;
-97.8000;0.3232;-0.0248;
-97.5000;0.3166;-0.0347;
-97.2000;0.3199;-0.0223;
-96.9000;0.3183;-0.0347;
-96.6000;0.3183;-0.0347;
-96.3000;0.3175;-0.0347;
-96.0000;0.3199;-0.0371;
-95.7000;0.3183;-0.0371;
-95.4000;0.3166;-0.0371;
-95.1000;0.3199;-0.0173;
-94.8000;0.3191;-0.0248;
-94.5000;0.3183;-0.0223;
-94.2000;0.3199;-0.0223;
-93.9000;0.3199;-0.0198;
-93.6000;0.3191;-0.0198;
-93.3000;0.3191;-0.0248;
-93.0000;0.3199;-0.0198;
-92.7000;0.3223;-0.0124;
-92.4000;0.3199;-0.0248;
-92.1000;0.3207;-0.0173;
-91.8000;0.3207;-0.0322;
-91.5000;0.3215;-0.0421;
-91.2000;0.3232;-0.0396;
-90.9000;0.3223;-0.0396;
-90.6000;0.3240;-0.0322;
-90.3000;0.3232;-0.0272;
-90.0000;0.3248;-0.0297;
-89.7000;0.3215;-0.0347;
-89.4000;0.3240;-0.0347;
-89.1000;0.3240;-0.0396;
-88.8000;0.3232;-0.0446;
-88.5000;0.3223;-0.0446;
-88.2000;0.3264;-0.0322;
-87.9000;0.3223;-0.0396;
-87.6000;0.3232;-0.0446;
-87.3000;0.3248;-0.0396;
-87.0000;0.3256;-0.0421;
-86.7000;0.3256;-0.0446;
-86.4000;0.3280;-0.0371;
-86.1000;0.3264;-0.0421;
-85.8000;0.3256;-0.0446;
-85.5000;0.3248;-0.0470;
-85.2000;0.3280;-0.0421;
-84.9000;0.3232;-0.0520;
-84.6000;0.3240;-0.0446;
-84.3000;0.3256;-0.0396;
-84.0000;0.3264;-0.0396;
-83.7000;0.3256;-0.0347;
-83.4000;0.3240;-0.0421;
-83.1000;0.3240;-0.0421;
-82.8000;0.3215;-0.0470;
-82.5000;0.3272;-0.0371;
-82.2000;0.3280;-0.0421;
-81.9000;0.3272;-0.0570;
-81.6000;0.3297;-0.0446;
-81.3000;0.3280;-0.0396;
-81.0000;0.3264;-0.0446;
-80.7000;0.3272;-0.0347;
-80.4000;0.3305;-0.0272;
-80.1000;0.3280;-0.0297;
-79.8000;0.3297;-0.0297;
-79.5000;0.3280;-0.0322;
-79.2000;0.3272;-0.0446;
-78.9000;0.3305;-0.0396;
-78.6000;0.3329;-0.0371;
-78.3000;0.3280;-0.0470;
-78.0000;0.3223;-0.0570;
-77.7000;0.3321;-0.0297;
-77.4000;0.3305;-0.0396;
-77.1000;0.3313;-0.0446;
-76.8000;0.3297;-0.0446;
-76.5000;0.3223;-0.0669;
-76.2000;0.3313;-0.0520;
-75.9000;0.3305;-0.0520;
-75.6000;0.3321;-0.0470;
-75.3000;0.3329;-0.0520;
-75.0000;0.3321;-0.0570;
-74.7000;0.3321;-0.0545;
-74.4000;0.3321;-0.0545;
-74.1000;0.3313;-0.0520;
-73.8000;0.3337;-0.0396;
-73.5000;0.3329;-0.0421;
-73.2000;0.3354;-0.0347;
-72.9000;0.3337;-0.0347;
-72.6000;0.3354;-0.0322;
-72.3000;0.3337;-0.0421;
-72.0000;0.3329;-0.0347;
-71.7000;0.3329;-0.0371;
-71.4000;0.3346;-0.0272;
-71.1000;0.3354;-0.0322;
-70.8000;0.3329;-0.0446;
-70.5000;0.3346;-0.0421;
-70.2000;0.3354;-0.0495;
-69.9000;0.3354;-0.0545;
-69.6000;0.3354;-0.0570;
-69.3000;0.3362;-0.0594;
-69.0000;0.3362;-0.0570;
-68.7000;0.3354;-0.0693;
-68.4000;0.3370;-0.0693;
-68.1000;0.3378;-0.0669;
-67.8000;0.3362;-0.0669;
-67.5000;0.3378;-0.0570;
-67.2000;0.3370;-0.0570;
-66.9000;0.3394;-0.0446;
-66.6000;0.3386;-0.0495;
-66.3000;0.3386;-0.0545;
-66.0000;0.3370;-0.0520;
-65.7000;0.3386;-0.0570;
-65.4000;0.3394;-0.0520;
-65.1000;0.3411;-0.0421;
-64.8000;0.3386;-0.0570;
-64.5000;0.3378;-0.0545;
-64.2000;0.3394;-0.0470;
-63.9000;0.3394;-0.0545;
-63.6000;0.3370;-0.0594;
-63.3000;0.3403;-0.0495;
-63.0000;0.3362;-0.0520;
-62.7000;0.3346;-0.0644;
-62.4000;0.3476;-0.0371;
-62.1000;0.3419;-0.0570;
-61.8000;0.3411;-0.0594;
-61.5000;0.3378;-0.0619;
-61.2000;0.3403;-0.0545;
-60.9000;0.3411;-0.0520;
-60.6000;0.3403;-0.0619;
-60.3000;0.3484;-0.0421;
-60.0000;0.3435;-0.0545;
-59.7000;0.3435;-0.0570;
-59.4000;0.3476;-0.0470;
-59.1000;0.3451;-0.0570;
-58.8000;0.3451;-0.0545;
-58.5000;0.3435;-0.0520;
-58.2000;0.3443;-0.0446;
-57.9000;0.3435;-0.0594;
-57.6000;0.3451;-0.0594;
-57.3000;0.3484;-0.0495;
-57.0000;0.3443;-0.0669;
-56.7000;0.3460;-0.0669;
-56.4000;0.3435;-0.0768;
-56.1000;0.3435;-0.0792;
-55.8000;0.3468;-0.0669;
-55.5000;0.3484;-0.0545;
-55.2000;0.3451;-0.0619;
-54.9000;0.3468;-0.0669;
-54.6000;0.3476;-0.0545;
-54.3000;0.3468;-0.0644;
-54.0000;0.3484;-0.0520;
-53.7000;0.3468;-0.0644;
-53.4000;0.3476;-0.0669;
-53.1000;0.3492;-0.0594;
-52.8000;0.3443;-0.0743;
-52.5000;0.3484;-0.0619;
-52.2000;0.3484;-0.0693;
-51.9000;0.3484;-0.0619;
-51.6000;0.3492;-0.0644;
-51.3000;0.3484;-0.0619;
-51.0000;0.3492;-0.0594;
-50.7000;0.3492;-0.0495;
-50.4000;0.3484;-0.0495;
-50.1000;0.3476;-0.0520;
-49.8000;0.3508;-0.0495;
-49.5000;0.3484;-0.0520;
-49.2000;0.3541;-0.0470;
-48.9000;0.3468;-0.0594;
-48.6000;0.3476;-0.0644;
-48.3000;0.3492;-0.0594;
-48.0000;0.3508;-0.0520;
-47.7000;0.3492;-0.0470;
-47.4000;0.3508;-0.0470;
-47.1000;0.3516;-0.0495;
-46.8000;0.3508;-0.0570;
-46.5000;0.3516;-0.0644;
-46.2000;0.3500;-0.0644;
-45.9000;0.3492;-0.0644;
-45.6000;0.3500;-0.0520;
-45.3000;0.3533;-0.0470;
-45.0000;0.3525;-0.0470;
-44.7000;0.3516;-0.0347;
-44.4000;0.3533;-0.0371;
-44.1000;0.3533;-0.0421;
-43.8000;0.3541;-0.0446;
-43.5000;0.3525;-0.0520;
-43.2000;0.3533;-0.0594;
-42.9000;0.3533;-0.0570;
-42.6000;0.3549;-0.0570;
-42.3000;0.3533;-0.0594;
-42.0000;0.3573;-0.0520;
-41.7000;0.3573;-0.0470;
-41.4000;0.3549;-0.0446;
-41.1000;0.3557;-0.0371;
-40.8000;0.3549;-0.0421;
-40.5000;0.3557;-0.0396;
-40.2000;0.3582;-0.0421;
-39.9000;0.3557;-0.0371;
-39.6000;0.3565;-0.0421;
-39.3000;0.3573;-0.0470;
-39.0000;0.3565;-0.0495;
-38.7000;0.3557;-0.0495;
-38.4000;0.3549;-0.0446;
-38.1000;0.3557;-0.0446;
-37.8000;0.3557;-0.0495;
-37.5000;0.3573;-0.0421;
-37.2000;0.3590;-0.0421;
-36.9000;0.3565;-0.0470;
-36.6000;0.3565;-0.0520;
-36.3000;0.3573;-0.0446;
-36.0000;0.3598;-0.0421;
-35.7000;0.3606;-0.0446;
-35.4000;0.3590;-0.0470;
-35.1000;0.3606;-0.0545;
-34.8000;0.3598;-0.0495;
-34.5000;0.3582;-0.0520;
-34.2000;0.3590;-0.0495;
-33.9000;0.3598;-0.0470;
-33.6000;0.3590;-0.0570;
-33.3000;0.3614;-0.0520;
-33.0000;0.3598;-0.0644;
-32.7000;0.3598;-0.0743;
-32.4000;0.3614;-0.0669;
-32.1000;0.3598;-0.0619;
-31.8000;0.3614;-0.0570;
-31.5000;0.3622;-0.0520;
-31.2000;0.3639;-0.0446;
-30.9000;0.3622;-0.0495;
-30.6000;0.3614;-0.0520;
-30.3000;0.3639;-0.0545;
-30.0000;0.3639;-0.0520;
-29.7000;0.3622;-0.0520;
-29.4000;0.3622;-0.0570;
-29.1000;0.3639;-0.0644;
-28.8000;0.3639;-0.0644;
-28.5000;0.3630;-0.0693;
-28.2000;0.3639;-0.0718;
-27.9000;0.3630;-0.0768;
-27.6000;0.3639;-0.0693;
-27.3000;0.3647;-0.0768;
-27.0000;0.3647;-0.0817;
-26.7000;0.3655;-0.0817;
-26.4000;0.3647;-0.0867;
-26.1000;0.3655;-0.0768;
-25.8000;0.3639;-0.0768;
-25.5000;0.3655;-0.0693;
-25.2000;0.3679;-0.0570;
-24.9000;0.3687;-0.0570;
-24.6000;0.3679;-0.0619;
-24.3000;0.3622;-0.0743;
-24.0000;0.3663;-0.0693;
-23.7000;0.3663;-0.0743;
-23.4000;0.3663;-0.0743;
-23.1000;0.3679;-0.0693;
-22.8000;0.3671;-0.0644;
-22.5000;0.3663;-0.0693;
-22.2000;0.3744;-0.0520;
-21.9000;0.3687;-0.0693;
-21.6000;0.3687;-0.0768;
-21.3000;0.3679;-0.0718;
-21.0000;0.3663;-0.0792;
-20.7000;0.3696;-0.0693;
-20.4000;0.3687;-0.0644;
-20.1000;0.3704;-0.0594;
-19.8000;0.3696;-0.0669;
-19.5000;0.3704;-0.0669;
-19.2000;0.3753;-0.0495;
-18.9000;0.3704;-0.0594;
-18.6000;0.3704;-0.0545;
-18.3000;0.3687;-0.0495;
-18.0000;0.3720;-0.0495;
-17.7000;0.3712;-0.0495;
-17.4000;0.3712;-0.0495;
-17.1000;0.3728;-0.0545;
-16.8000;0.3744;-0.0495;
-16.5000;0.3720;-0.0520;
-16.2000;0.3720;-0.0520;
-15.9000;0.3744;-0.0446;
-15.6000;0.3728;-0.0520;
-15.3000;0.3704;-0.0570;
-15.0000;0.3728;-0.0570;
-14.7000;0.3769;-0.0619;
-14.4000;0.3753;-0.0669;
-14.1000;0.3761;-0.0644;
-13.8000;0.3736;-0.0768;
-13.5000;0.3720;-0.0792;
-13.2000;0.3720;-0.0669;
-12.9000;0.3728;-0.0669;
-12.6000;0.3785;-0.0570;
-12.3000;0.3753;-0.0619;
-12.0000;0.3736;-0.0619;
-11.7000;0.3753;-0.0619;
-11.4000;0.3736;-0.0693;
-11.1000;0.3687;-0.0817;
-10.8000;0.3753;-0.0792;
-10.5000;0.3744;-0.0842;
-10.2000;0.3769;-0.0768;
-9.9000;0.3753;-0.0842;
-9.6000;0.3769;-0.0768;
-9.3000;0.3769;-0.0768;
-9.0000;0.3761;-0.0718;
-8.7000;0.3744;-0.0768;
-8.4000;0.3777;-0.0718;
-8.1000;0.3777;-0.0693;
-7.8000;0.3785;-0.0718;
-7.5000;0.3777;-0.0743;
-7.2000;0.3777;-0.0718;
-6.9000;0.3785;-0.0644;
-6.6000;0.3818;-0.0520;
-6.3000;0.3777;-0.0644;
-6.0000;0.3793;-0.0693;
-5.7000;0.3793;-0.0669;
-5.4000;0.3801;-0.0594;
-5.1000;0.3793;-0.0619;
-4.8000;0.3875;-0.0396;
-4.5000;0.3769;-0.0743;
-4.2000;0.3785;-0.0594;
-3.9000;0.3793;-0.0718;
-3.6000;0.3785;-0.0842;
-3.3000;0.3777;-0.0792;
-3.0000;0.3810;-0.0768;
-2.7000;0.3818;-0.0669;
-2.4000;0.3850;-0.0545;
-2.1000;0.3801;-0.0669;
-1.8000;0.3810;-0.0669;
-1.5000;0.3810;-0.0743;
-1.2000;0.3810;-0.0792;
-0.9000;0.3810;-0.0718;
-0.6000;0.3712;-0.0916;
-0.3000;0.3810;-0.0669;
0.0000;0.3810;-0.0669;
0.3000;0.3923;-0.0570;
0.6000;0.4119;-0.0520;
0.9000;0.4298;-0.0396;
1.2000;0.4444;-0.0272;
1.5000;0.4542;-0.0198;
1.8000;0.4624;0.0000;
2.1000;0.4672;-0.0050;
2.4000;0.4729;-0.0025;
2.7000;0.4803;0.0050;
3.0000;0.4803;0.0124;
3.3000;0.4884;0.0272;
3.6000;0.4860;0.0149;
3.9000;0.4884;0.0248;
4.2000;0.4876;0.0223;
4.5000;0.4900;0.0322;
4.8000;0.4933;0.0396;
5.1000;0.4941;0.0446;
5.4000;0.4949;0.0470;
5.7000;0.4941;0.0470;
6.0000;0.4974;0.0520;
6.3000;0.5071;0.0669;
6.6000;0.4990;0.0545;
6.9000;0.4974;0.0520;
7.2000;0.4990;0.0545;
7.5000;0.5006;0.0545;
7.8000;0.5031;0.0594;
8.1000;0.5047;0.0644;
8.4000;0.5055;0.0669;
8.7000;0.5039;0.0594;
9.0000;0.5104;0.0669;
9.3000;0.5063;0.0545;
9.6000;0.5047;0.0520;
9.9000;0.5079;0.0594;
10.2000;0.5096;0.0570;
10.5000;0.5096;0.0594;
10.8000;0.5112;0.0520;
11.1000;0.5112;0.0446;
11.4000;0.5210;0.0693;
11.7000;0.5128;0.0495;
12.0000;0.5096;0.0371;
12.3000;0.5144;0.0520;
12.6000;0.5144;0.0520;
12.9000;0.5144;0.0520;
13.2000;0.5201;0.0545;
13.5000;0.5169;0.0446;
13.8000;0.5169;0.0396;
14.1000;0.5177;0.0495;
14.4000;0.5169;0.0495;
14.7000;0.5169;0.0644;
15.0000;0.5169;0.0669;
15.3000;0.5169;0.0545;
15.6000;0.5185;0.0520;
15.9000;0.5185;0.0545;
16.2000;0.5193;0.0520;
16.5000;0.5210;0.0594;
16.8000;0.5242;0.0619;
17.1000;0.5201;0.0545;
17.4000;0.5210;0.0594;
17.7000;0.5218;0.0570;
18.0000;0.5218;0.0594;
18.3000;0.5218;0.0520;
18.6000;0.5201;0.0371;
18.9000;0.5226;0.0421;
19.2000;0.5234;0.0470;
19.5000;0.5242;0.0470;
19.8000;0.5234;0.0520;
20.1000;0.5234;0.0520;
20.4000;0.5250;0.0545;
20.7000;0.5250;0.0594;
21.0000;0.5234;0.0594;
21.3000;0.5250;0.0644;
21.6000;0.5332;0.0916;
21.9000;0.5242;0.0594;
22.2000;0.5258;0.0594;
22.5000;0.5258;0.0594;
22.8000;0.5250;0.0495;
23.1000;0.5283;0.0594;
23.4000;0.5250;0.0495;
23.7000;0.5275;0.0594;
24.0000;0.5283;0.0570;
24.3000;0.5291;0.0619;
24.6000;0.5307;0.0619;
24.9000;0.5283;0.0669;
25.2000;0.5340;0.0867;
25.5000;0.5299;0.0792;
25.8000;0.5324;0.0743;
26.1000;0.5307;0.0792;
26.4000;0.5307;0.0792;
26.7000;0.5307;0.0792;
27.0000;0.5307;0.0842;
27.3000;0.5340;0.0842;
27.6000;0.5299;0.0644;
27.9000;0.5324;0.0644;
28.2000;0.5324;0.0669;
28.5000;0.5332;0.0718;
28.8000;0.5332;0.0718;
29.1000;0.5332;0.0644;
29.4000;0.5340;0.0718;
29.7000;0.5356;0.0619;
30.0000;0.5340;0.0520;
30.3000;0.5356;0.0570;
30.6000;0.5340;0.0619;
30.9000;0.5364;0.0669;
31.2000;0.5348;0.0693;
31.5000;0.5348;0.0693;
31.8000;0.5340;0.0743;
32.1000;0.5372;0.0792;
32.4000;0.5372;0.0743;
32.7000;0.5372;0.0693;
33.0000;0.5348;0.0570;
33.3000;0.5275;0.0371;
33.6000;0.5372;0.0570;
33.9000;0.5356;0.0446;
34.2000;0.5372;0.0446;
34.5000;0.5372;0.0495;
34.8000;0.5372;0.0446;
35.1000;0.5372;0.0495;
35.4000;0.5332;0.0446;
35.7000;0.5315;0.0421;
36.0000;0.5381;0.0545;
36.3000;0.5356;0.0570;
36.6000;0.5397;0.0669;
36.9000;0.5381;0.0669;
37.2000;0.5364;0.0693;
37.5000;0.5381;0.0718;
37.8000;0.5421;0.0867;
38.1000;0.5421;0.0916;
38.4000;0.5397;0.0817;
38.7000;0.5397;0.0693;
39.0000;0.5405;0.0718;
39.3000;0.5389;0.0669;
39.6000;0.5389;0.0669;
39.9000;0.5446;0.0743;
40.2000;0.5397;0.0594;
40.5000;0.5397;0.0545;
40.8000;0.5397;0.0446;
41.1000;0.5413;0.0520;
41.4000;0.5454;0.0693;
41.7000;0.5413;0.0545;
42.0000;0.5389;0.0545;
42.3000;0.5397;0.0570;
42.6000;0.5421;0.0619;
42.9000;0.5421;0.0644;
43.2000;0.5405;0.0619;
43.5000;0.5405;0.0570;
43.8000;0.5429;0.0619;
44.1000;0.5470;0.0644;
44.4000;0.5413;0.0495;
44.7000;0.5421;0.0594;
45.0000;0.5421;0.0594;
45.3000;0.5413;0.0570;
45.6000;0.5413;0.0594;
45.9000;0.5405;0.0495;
46.2000;0.5438;0.0495;
46.5000;0.5446;0.0446;
46.8000;0.5429;0.0446;
47.1000;0.5332;0.0198;
47.4000;0.5421;0.0446;
47.7000;0.5438;0.0520;
48.0000;0.5438;0.0594;
48.3000;0.5413;0.0594;
48.6000;0.5462;0.0669;
48.9000;0.5438;0.0644;
49.2000;0.5446;0.0768;
49.5000;0.5446;0.0768;
49.8000;0.5429;0.0718;
50.1000;0.5438;0.0718;
50.4000;0.5438;0.0644;
50.7000;0.5438;0.0520;
51.0000;0.5446;0.0570;
51.3000;0.5446;0.0446;
51.6000;0.5446;0.0446;
51.9000;0.5446;0.0446;
52.2000;0.5454;0.0470;
52.5000;0.5454;0.0446;
52.8000;0.5421;0.0396;
53.1000;0.5446;0.0495;
53.4000;0.5429;0.0446;
53.7000;0.5454;0.0470;
54.0000;0.5454;0.0421;
54.3000;0.5470;0.0446;
54.6000;0.5470;0.0421;
54.9000;0.5446;0.0347;
55.2000;0.5454;0.0446;
55.5000;0.5454;0.0495;
55.8000;0.5470;0.0520;
56.1000;0.5438;0.0470;
56.4000;0.5486;0.0520;
56.7000;0.5413;0.0297;
57.0000;0.5446;0.0371;
57.3000;0.5446;0.0421;
57.6000;0.5470;0.0470;
57.9000;0.5454;0.0520;
58.2000;0.5454;0.0495;
58.5000;0.5454;0.0619;
58.8000;0.5584;0.0966;
59.1000;0.5454;0.0669;
59.4000;0.5462;0.0644;
59.7000;0.5446;0.0644;
60.0000;0.5446;0.0520;
60.3000;0.5462;0.0570;
60.6000;0.5454;0.0594;
60.9000;0.5462;0.0520;
61.2000;0.5438;0.0396;
61.5000;0.5478;0.0371;
61.8000;0.5438;0.0322;
62.1000;0.5470;0.0371;
62.4000;0.5470;0.0495;
62.7000;0.5454;0.0470;
63.0000;0.5503;0.0619;
63.3000;0.5470;0.0520;
63.6000;0.5438;0.0421;
63.9000;0.5462;0.0520;
64.2000;0.5470;0.0470;
64.5000;0.5478;0.0495;
64.8000;0.5462;0.0570;
65.1000;0.5446;0.0495;
65.4000;0.5454;0.0520;
65.7000;0.5462;0.0470;
66.0000;0.5486;0.0520;
66.3000;0.5470;0.0495;
66.6000;0.5478;0.0545;
66.9000;0.5462;0.0470;
67.2000;0.5495;0.0619;
67.5000;0.5486;0.0545;
67.8000;0.5478;0.0520;
68.1000;0.5560;0.0743;
68.4000;0.5535;0.0669;
68.7000;0.5495;0.0594;
69.0000;0.5438;0.0470;
69.3000;0.5495;0.0718;
69.6000;0.5519;0.0718;
69.9000;0.5454;0.0644;
70.2000;0.5478;0.0594;
70.5000;0.5470;0.0619;
70.8000;0.5454;0.0619;
71.1000;0.5478;0.0644;
71.4000;0.5462;0.0570;
71.7000;0.5478;0.0693;
72.0000;0.5478;0.0693;
72.3000;0.5478;0.0718;
72.6000;0.5486;0.0693;
72.9000;0.5478;0.0594;
73.2000;0.5446;0.0520;
73.5000;0.5478;0.0619;
73.8000;0.5495;0.0644;
74.1000;0.5470;0.0520;
74.4000;0.5486;0.0570;
74.7000;0.5495;0.0594;
75.0000;0.5462;0.0545;
75.3000;0.5470;0.0594;
75.6000;0.5495;0.0619;
75.9000;0.5495;0.0520;
76.2000;0.5486;0.0396;
76.5000;0.5486;0.0446;
76.8000;0.5462;0.0446;
77.1000;0.5486;0.0495;
77.4000;0.5535;0.0520;
77.7000;0.5486;0.0371;
78.0000;0.5495;0.0347;
78.3000;0.5486;0.0347;
78.6000;0.5446;0.0248;
78.9000;0.5495;0.0371;
79.2000;0.5462;0.0198;
79.5000;0.5503;0.0223;
79.8000;0.5511;0.0297;
80.1000;0.5511;0.0396;
80.4000;0.5495;0.0495;
80.7000;0.5495;0.0520;
81.0000;0.5503;0.0470;
81.3000;0.5503;0.0446;
81.6000;0.5511;0.0570;
81.9000;0.5503;0.0446;
82.2000;0.5446;0.0347;
82.5000;0.5511;0.0520;
82.8000;0.5478;0.0594;
83.1000;0.5486;0.0570;
83.4000;0.5478;0.0570;
83.7000;0.5503;0.0570;
84.0000;0.5495;0.0520;
84.3000;0.5486;0.0594;
84.6000;0.5486;0.0619;
84.9000;0.5486;0.0644;
85.2000;0.5503;0.0718;
85.5000;0.5429;0.0520;
85.8000;0.5495;0.0718;
86.1000;0.5486;0.0644;
86.4000;0.5495;0.0669;
86.7000;0.5519;0.0644;
87.0000;0.5511;0.0644;
87.3000;0.5486;0.0570;
87.6000;0.5503;0.0594;
87.9000;0.5495;0.0594;
88.2000;0.5495;0.0669;
88.5000;0.5486;0.0718;
88.8000;0.5495;0.0768;
89.1000;0.5511;0.0743;
89.4000;0.5503;0.0693;
89.7000;0.5495;0.0644;
90.0000;0.5527;0.0619;
90.3000;0.5503;0.0619;
90.6000;0.5503;0.0570;
90.9000;0.5519;0.0693;
91.2000;0.5503;0.0669;
91.5000;0.5511;0.0743;
91.8000;0.5543;0.0768;
92.1000;0.5560;0.0743;
92.4000;0.5527;0.0644;
92.7000;0.5511;0.0644;
93.0000;0.5584;0.0891;
93.3000;0.5495;0.0718;
93.6000;0.5495;0.0718;
93.9000;0.5503;0.0693;
94.2000;0.5503;0.0594;
94.5000;0.5551;0.0669;
94.8000;0.5511;0.0520;
95.1000;0.5543;0.0545;
95.4000;0.5478;0.0421;
95.7000;0.5527;0.0520;
96.0000;0.5511;0.0545;
96.3000;0.5503;0.0644;
96.6000;0.5495;0.0644;
96.9000;0.5511;0.0669;
97.2000;0.5503;0.0594;
97.5000;0.5519;0.0520;
97.8000;0.5519;0.0470;
98.1000;0.5503;0.0545;
98.4000;0.5495;0.0594;
98.7000;0.5511;0.0718;
99.0000;0.5462;0.0594;
99.3000;0.5519;0.0693;
99.6000;0.5519;0.0669;
99.9000;0.5503;0.0644;
100.2000;0.5511;0.0669;
100.5000;0.5503;0.0619;
100.8000;0.5543;0.0669;
101.1000;0.5519;0.0545;
101.4000;0.5503;0.0495;
101.7000;0.5535;0.0545;
102.0000;0.5527;0.0545;
102.3000;0.5429;0.0421;
102.6000;0.5511;0.0644;
102.9000;0.5511;0.0619;
103.2000;0.5470;0.0470;
103.5000;0.5519;0.0446;
103.8000;0.5495;0.0421;
104.1000;0.5486;0.0470;
104.4000;0.5511;0.0594;
104.7000;0.5503;0.0520;
105.0000;0.5503;0.0520;
105.3000;0.5511;0.0570;
105.6000;0.5503;0.0619;
105.9000;0.5478;0.0446;
106.2000;0.5519;0.0570;
106.5000;0.5462;0.0446;
106.8000;0.5543;0.0768;
107.1000;0.5511;0.0693;
107.4000;0.5519;0.0718;
107.7000;0.5503;0.0743;
108.0000;0.5592;0.0916;
108.3000;0.5503;0.0718;
108.6000;0.5527;0.0718;
108.9000;0.5519;0.0644;
109.2000;0.5519;0.0644;
109.5000;0.5495;0.0594;
109.8000;0.5503;0.0644;
110.1000;0.5527;0.0718;
110.4000;0.5551;0.0718;
110.7000;0.5503;0.0594;
111.0000;0.5527;0.0669;
111.3000;0.5511;0.0644;
111.6000;0.5535;0.0619;
111.9000;0.5519;0.0545;
112.2000;0.5543;0.0644;
112.5000;0.5535;0.0693;
112.8000;0.5527;0.0718;
113.1000;0.5495;0.0669;
113.4000;0.5495;0.0594;
113.7000;0.5527;0.0570;
114.0000;0.5535;0.0619;
114.3000;0.5503;0.0545;
114.6000;0.5511;0.0644;
114.9000;0.5535;0.0693;
115.2000;0.5527;0.0644;
115.5000;0.5535;0.0693;
115.8000;0.5560;0.0693;
116.1000;0.5511;0.0644;
116.4000;0.5527;0.0619;
116.7000;0.5470;0.0347;
117.0000;0.5535;0.0495;
117.3000;0.5527;0.0520;
117.6000;0.5503;0.0421;
117.9000;0.5527;0.0470;
118.2000;0.5511;0.0371;
118.5000;0.5519;0.0371;
118.8000;0.5495;0.0322;
119.1000;0.5519;0.0421;
119.4000;0.5527;0.0495;
119.7000;0.5511;0.0470;
120.0000;0.5519;0.0421;
120.3000;0.5527;0.0421;
120.6000;0.5519;0.0396;
120.9000;0.5543;0.0470;
121.2000;0.5527;0.0495;
121.5000;0.5535;0.0644;
121.8000;0.5543;0.0669;
122.1000;0.5535;0.0693;
122.4000;0.5535;0.0594;
122.7000;0.5527;0.0644;
123.0000;0.5535;0.0718;
123.3000;0.5503;0.0768;
123.6000;0.5519;0.0842;
123.9000;0.5503;0.0842;
124.2000;0.5535;0.0891;
124.5000;0.5519;0.0891;
124.8000;0.5551;0.0991;
125.1000;0.5576;0.0991;
125.4000;0.5543;0.0867;
125.7000;0.5527;0.0842;
126.0000;0.5519;0.0842;
126.3000;0.5519;0.0941;
126.6000;0.5535;0.0867;
126.9000;0.5486;0.0792;
127.2000;0.5519;0.0792;
127.5000;0.5535;0.0842;
127.8000;0.5527;0.0768;
128.1000;0.5511;0.0768;
128.4000;0.5511;0.0768;
128.7000;0.5519;0.0718;
129.0000;0.5478;0.0495;
129.3000;0.5535;0.0669;
129.6000;0.5519;0.0619;
129.9000;0.5495;0.0545;
130.2000;0.5511;0.0570;
130.5000;0.5519;0.0619;
130.8000;0.5511;0.0644;
131.1000;0.5519;0.0718;
131.4000;0.5511;0.0718;
131.7000;0.5503;0.0743;
132.0000;0.5495;0.0768;
132.3000;0.5511;0.0718;
132.6000;0.5511;0.0718;
132.9000;0.5511;0.0669;
133.2000;0.5527;0.0693;
133.5000;0.5551;0.0718;
133.8000;0.5519;0.0693;
134.1000;0.5543;0.0817;
134.4000;0.5527;0.0718;
134.7000;0.5551;0.0743;
135.0000;0.5535;0.0693;
135.3000;0.5527;0.0817;
135.6000;0.5543;0.0743;
135.9000;0.5551;0.0743;
136.2000;0.5584;0.0817;
136.5000;0.5535;0.0718;
136.8000;0.5527;0.0743;
137.1000;0.5511;0.0693;
137.4000;0.5519;0.0693;
137.7000;0.5503;0.0768;
138.0000;0.5503;0.0718;
138.3000;0.5551;0.0842;
138.6000;0.5527;0.0743;
138.9000;0.5519;0.0768;
139.2000;0.5511;0.0817;
139.5000;0.5535;0.0792;
139.8000;0.5560;0.0966;
140.1000;0.5527;0.0891;
140.4000;0.5519;0.0817;
140.7000;0.5486;0.0768;
141.0000;0.5551;0.0941;
141.3000;0.5519;0.0817;
141.6000;0.5503;0.0817;
141.9000;0.5527;0.0768;
142.2000;0.5527;0.0669;
142.5000;0.5519;0.0693;
142.8000;0.5535;0.0792;
143.1000;0.5503;0.0693;
143.4000;0.5519;0.0768;
143.7000;0.5584;0.0867;
144.0000;0.5535;0.0768;
144.3000;0.5527;0.0743;
144.6000;0.5543;0.0768;
144.9000;0.5568;0.0718;
145.2000;0.5486;0.0446;
145.5000;0.5535;0.0619;
145.8000;0.5543;0.0669;
146.1000;0.5568;0.0669;
146.4000;0.5535;0.0644;
146.7000;0.5543;0.0693;
147.0000;0.5543;0.0594;
147.3000;0.5551;0.0520;
147.6000;0.5535;0.0470;
147.9000;0.5535;0.0446;
148.2000;0.5543;0.0495;
148.5000;0.5543;0.0545;
148.8000;0.5519;0.0470;
149.1000;0.5543;0.0520;
149.4000;0.5527;0.0644;
149.7000;0.5543;0.0644;
150.0000;0.5551;0.0570;
150.3000;0.5551;0.0545;
150.6000;0.5584;0.0545;
150.9000;0.5535;0.0371;
151.2000;0.5543;0.0371;
151.5000;0.5462;0.0149;
151.8000;0.5511;0.0371;
152.1000;0.5543;0.0446;
152.4000;0.5535;0.0396;
152.7000;0.5535;0.0371;
153.0000;0.5535;0.0322;
153.3000;0.5503;0.0124;
153.6000;0.5535;0.0248;
153.9000;0.5584;0.0470;
154.2000;0.5527;0.0396;
154.5000;0.5560;0.0520;
154.8000;0.5551;0.0570;
155.1000;0.5527;0.0495;
155.4000;0.5519;0.0545;
155.7000;0.5535;0.0545;
156.0000;0.5535;0.0520;
156.3000;0.5543;0.0545;
156.6000;0.5560;0.0594;
156.9000;0.5535;0.0594;
157.2000;0.5543;0.0669;
157.5000;0.5600;0.0842;
157.8000;0.5543;0.0718;
158.1000;0.5527;0.0718;
158.4000;0.5503;0.0718;
158.7000;0.5551;0.0792;
159.0000;0.5543;0.0743;
159.3000;0.5535;0.0693;
159.6000;0.5535;0.0718;
159.9000;0.5543;0.0693;
160.2000;0.5543;0.0594;
160.5000;0.5527;0.0619;
160.8000;0.5543;0.0594;
161.1000;0.5527;0.0545;
161.4000;0.5543;0.0619;
161.7000;0.5551;0.0619;
162.0000;0.5543;0.0545;
162.3000;0.5535;0.0570;
162.6000;0.5486;0.0371;
162.9000;0.5527;0.0594;
163.2000;0.5543;0.0693;
163.5000;0.5527;0.0570;
163.8000;0.5478;0.0470;
164.1000;0.5584;0.0718;
164.4000;0.5462;0.0421;
164.7000;0.5495;0.0520;
165.0000;0.5503;0.0545;
165.3000;0.5527;0.0594;
165.6000;0.5535;0.0594;
165.9000;0.5535;0.0644;
166.2000;0.5527;0.0644;
166.5000;0.5551;0.0693;
166.8000;0.5543;0.0768;
167.1000;0.5543;0.0792;
167.4000;0.5543;0.0743;
167.7000;0.5543;0.0718;
168.0000;0.5543;0.0768;
168.3000;0.5535;0.0743;
168.6000;0.5543;0.0792;
168.9000;0.5527;0.0792;
169.2000;0.5543;0.0966;
169.5000;0.5543;0.0941;
169.8000;0.5511;0.0792;
170.1000;0.5535;0.0867;
170.4000;0.5535;0.0891;
170.7000;0.5535;0.0817;
171.0000;0.5535;0.0792;
171.3000;0.5551;0.0743;
171.6000;0.5519;0.0693;
171.9000;0.5560;0.0743;
172.2000;0.5543;0.0718;
172.5000;0.5519;0.0693;
172.8000;0.5551;0.0669;
173.1000;0.5551;0.0619;
173.4000;0.5560;0.0594;
173.7000;0.5568;0.0669;
174.0000;0.5535;0.0594;
174.3000;0.5543;0.0594;
174.6000;0.5527;0.0520;
174.9000;0.5535;0.0545;
175.2000;0.5503;0.0446;
175.5000;0.5617;0.0768;
175.8000;0.5551;0.0520;
176.1000;0.5551;0.0545;
176.4000;0.5560;0.0594;
176.7000;0.5535;0.0545;
177.0000;0.5551;0.0570;
177.3000;0.5511;0.0520;
177.6000;0.5535;0.0619;
177.9000;0.5551;0.0545;
178.2000;0.5551;0.0619;
178.5000;0.5617;0.0891;
178.8000;0.5495;0.0644;
179.1000;0.5527;0.0693;
179.4000;0.5495;0.0693;
179.7000;0.5543;0.0792;
180.0000;0.5535;0.0792;
180.3000;0.5560;0.0891;
180.6000;0.5535;0.0867;
180.9000;0.5551;0.0867;
181.2000;0.5551;0.0817;
181.5000;0.5511;0.0693;
181.8000;0.5543;0.0718;
182.1000;0.5560;0.0817;
182.4000;0.5543;0.0743;
182.7000;0.5543;0.0693;
183.0000;0.5543;0.0669;
183.3000;0.5560;0.0693;
183.6000;0.5551;0.0693;
183.9000;0.5535;0.0669;
184.2000;0.5551;0.0718;
184.5000;0.5543;0.0768;
184.8000;0.5551;0.0792;
185.1000;0.5535;0.0768;
185.4000;0.5543;0.0768;
185.7000;0.5503;0.0693;
186.0000;0.5584;0.0916;
186.3000;0.5535;0.0842;
186.6000;0.5560;0.0941;
186.9000;0.5478;0.0718;
187.2000;0.5486;0.0693;
187.5000;0.5527;0.0817;
187.8000;0.5576;0.0916;
188.1000;0.5446;0.0594;
188.4000;0.5551;0.0792;
188.7000;0.5543;0.0718;
189.0000;0.5535;0.0718;
189.3000;0.5535;0.0718;
189.6000;0.5527;0.0693;
189.9000;0.5543;0.0718;
190.2000;0.5560;0.0768;
190.5000;0.5527;0.0768;
190.8000;0.5527;0.0817;
191.1000;0.5551;0.0867;
191.4000;0.5527;0.0768;
191.7000;0.5535;0.0718;
192.0000;0.5527;0.0718;
192.3000;0.5527;0.0669;
192.6000;0.5551;0.0669;
192.9000;0.5543;0.0669;
193.2000;0.5551;0.0594;
193.5000;0.5560;0.0644;
193.8000;0.5551;0.0644;
194.1000;0.5560;0.0570;
194.4000;0.5560;0.0520;
194.7000;0.5543;0.0470;
195.0000;0.5551;0.0446;
195.3000;0.5568;0.0470;
195.6000;0.5568;0.0545;
195.9000;0.5560;0.0520;
196.2000;0.5560;0.0619;
196.5000;0.5576;0.0743;
196.8000;0.5560;0.0669;
197.1000;0.5560;0.0570;
197.4000;0.5535;0.0570;
197.7000;0.5568;0.0669;
198.0000;0.5543;0.0669;
198.3000;0.5535;0.0594;
198.6000;0.5503;0.0396;
198.9000;0.5527;0.0495;
199.2000;0.5551;0.0545;
199.5000;0.5527;0.0570;
199.8000;0.5551;0.0570;
200.1000;0.5511;0.0470;
200.4000;0.5576;0.0594;
200.7000;0.5560;0.0495;
201.0000;0.5576;0.0644;
201.3000;0.5551;0.0644;
201.6000;0.5543;0.0644;
201.9000;0.5543;0.0669;
202.2000;0.5535;0.0718;
202.5000;0.5527;0.0669;
202.8000;0.5495;0.0570;
203.1000;0.5551;0.0693;
203.4000;0.5519;0.0718;
203.7000;0.5535;0.0842;
204.0000;0.5503;0.0693;
204.3000;0.5511;0.0669;
204.6000;0.5527;0.0693;
204.9000;0.5511;0.0594;
205.2000;0.5560;0.0743;
205.5000;0.5560;0.0842;
205.8000;0.5560;0.0743;
206.1000;0.5560;0.0669;
206.4000;0.5551;0.0594;
206.7000;0.5551;0.0619;
207.0000;0.5543;0.0570;
207.3000;0.5568;0.0594;
207.6000;0.5560;0.0594;
207.9000;0.5535;0.0470;
208.2000;0.5576;0.0495;
208.5000;0.5535;0.0396;
208.8000;0.5535;0.0421;
209.1000;0.5543;0.0495;
209.4000;0.5568;0.0520;
209.7000;0.5535;0.0470;
210.0000;0.5551;0.0421;
210.3000;0.5535;0.0446;
210.6000;0.5519;0.0446;
210.9000;0.5576;0.0570;
211.2000;0.5543;0.0545;
211.5000;0.5551;0.0545;
211.8000;0.5543;0.0545;
212.1000;0.5543;0.0495;
212.4000;0.5527;0.0495;
212.7000;0.5486;0.0396;
213.0000;0.5535;0.0520;
213.3000;0.5543;0.0545;
213.6000;0.5560;0.0570;
213.9000;0.5519;0.0520;
214.2000;0.5535;0.0470;
214.5000;0.5535;0.0495;
214.8000;0.5543;0.0446;
215.1000;0.5519;0.0371;
215.4000;0.5551;0.0421;
215.7000;0.5568;0.0396;
216.0000;0.5551;0.0322;
216.3000;0.5543;0.0347;
216.6000;0.5560;0.0371;
216.9000;0.5568;0.0446;
217.2000;0.5543;0.0421;
217.5000;0.5560;0.0495;
217.8000;0.5551;0.0545;
218.1000;0.5527;0.0495;
218.4000;0.5560;0.0619;
218.7000;0.5535;0.0570;
219.0000;0.5543;0.0619;
219.3000;0.5551;0.0594;
219.6000;0.5551;0.0644;
219.9000;0.5543;0.0594;
220.2000;0.5543;0.0594;
220.5000;0.5535;0.0693;
220.8000;0.5551;0.0743;
221.1000;0.5511;0.0718;
221.4000;0.5584;0.0842;
221.7000;0.5600;0.0916;
222.0000;0.5568;0.0867;
222.3000;0.5551;0.0842;
222.6000;0.5551;0.0842;
222.9000;0.5576;0.0966;
223.2000;0.5551;0.0867;
223.5000;0.5543;0.0842;
223.8000;0.5486;0.0594;
224.1000;0.5543;0.0743;
224.4000;0.5551;0.0693;
224.7000;0.5543;0.0594;
225.0000;0.5592;0.0545;
225.3000;0.5551;0.0520;
225.6000;0.5560;0.0545;
225.9000;0.5519;0.0520;
226.2000;0.5568;0.0693;
226.5000;0.5560;0.0792;
226.8000;0.5527;0.0891;
227.1000;0.5551;0.1015;
227.4000;0.5551;0.0966;
227.7000;0.5560;0.0941;
228.0000;0.5543;0.0842;
228.3000;0.5584;0.0891;
228.6000;0.5551;0.0792;
228.9000;0.5551;0.0792;
229.2000;0.5576;0.0867;
229.5000;0.5543;0.0792;
229.8000;0.5551;0.0817;
230.1000;0.5568;0.0768;
230.4000;0.5568;0.0718;
230.7000;0.5560;0.0644;
231.0000;0.5543;0.0644;
231.3000;0.5617;0.0867;
231.6000;0.5551;0.0768;
231.9000;0.5568;0.0768;
232.2000;0.5560;0.0619;
232.5000;0.5560;0.0669;
232.8000;0.5568;0.0644;
233.1000;0.5576;0.0718;
233.4000;0.5543;0.0594;
233.7000;0.5560;0.0718;
234.0000;0.5511;0.0619;
234.3000;0.5543;0.0619;
234.6000;0.5560;0.0669;
234.9000;0.5543;0.0669;
235.2000;0.5551;0.0718;
235.5000;0.5543;0.0693;
235.8000;0.5535;0.0669;
236.1000;0.5519;0.0669;
236.4000;0.5527;0.0619;
236.7000;0.5576;0.0693;
237.0000;0.5527;0.0619;
237.3000;0.5503;0.0470;
237.6000;0.5551;0.0495;
237.9000;0.5560;0.0545;
238.2000;0.5576;0.0495;
238.5000;0.5560;0.0594;
238.8000;0.5551;0.0644;
239.1000;0.5535;0.0669;
239.4000;0.5543;0.0669;
239.7000;0.5543;0.0644;
240.0000;0.5560;0.0718;
240.3000;0.5560;0.0768;
240.6000;0.5568;0.0792;
240.9000;0.5560;0.0891;
241.2000;0.5543;0.0792;
241.5000;0.5576;0.0743;
241.8000;0.5592;0.0792;
242.1000;0.5511;0.0619;
242.4000;0.5551;0.0669;
242.7000;0.5560;0.0644;
243.0000;0.5576;0.0594;
243.3000;0.5576;0.0594;
243.6000;0.5560;0.0669;
243.9000;0.5551;0.0693;
244.2000;0.5568;0.0743;
244.5000;0.5560;0.0768;
244.8000;0.5543;0.0693;
245.1000;0.5543;0.0693;
245.4000;0.5527;0.0693;
245.7000;0.5551;0.0768;
246.0000;0.5535;0.0817;
246.3000;0.5551;0.0817;
246.6000;0.5551;0.0768;
246.9000;0.5576;0.0743;
247.2000;0.5535;0.0619;
247.5000;0.5592;0.0644;
247.8000;0.5543;0.0619;
248.1000;0.5535;0.0594;
248.4000;0.5584;0.0669;
248.7000;0.5560;0.0570;
249.0000;0.5543;0.0495;
249.3000;0.5568;0.0594;
249.6000;0.5568;0.0619;
249.9000;0.5560;0.0669;
250.2000;0.5543;0.0693;
250.5000;0.5560;0.0693;
250.8000;0.5568;0.0693;
251.1000;0.5560;0.0669;
251.4000;0.5560;0.0594;
251.7000;0.5551;0.0693;
252.0000;0.5551;0.0768;
252.3000;0.5543;0.0718;
252.6000;0.5543;0.0718;
252.9000;0.5543;0.0693;
253.2000;0.5503;0.0495;
253.5000;0.5551;0.0619;
253.8000;0.5551;0.0644;
254.1000;0.5551;0.0693;
254.4000;0.5551;0.0718;
254.7000;0.5551;0.0669;
255.0000;0.5576;0.0619;
255.3000;0.5568;0.0669;
255.6000;0.5568;0.0619;
255.9000;0.5551;0.0545;
256.2000;0.5568;0.0594;
256.5000;0.5560;0.0570;
256.8000;0.5551;0.0495;
257.1000;0.5560;0.0545;
257.4000;0.5551;0.0594;
257.7000;0.5519;0.0570;
258.0000;0.5527;0.0669;
258.3000;0.5543;0.0669;
258.6000;0.5560;0.0693;
258.9000;0.5543;0.0669;
259.2000;0.5527;0.0619;
259.5000;0.5551;0.0644;
259.8000;0.5551;0.0644;
260.1000;0.5568;0.0743;
260.4000;0.5551;0.0669;
260.7000;0.5560;0.0718;
261.0000;0.5568;0.0743;
261.3000;0.5560;0.0718;
261.6000;0.5551;0.0693;
261.9000;0.5470;0.0446;
262.2000;0.5608;0.0792;
262.5000;0.5560;0.0718;
262.8000;0.5551;0.0718;
263.1000;0.5535;0.0644;
263.4000;0.5568;0.0718;
263.7000;0.5560;0.0669;
264.0000;0.5576;0.0644;
264.3000;0.5568;0.0644;
264.6000;0.5551;0.0570;
264.9000;0.5649;0.0867;
265.2000;0.5535;0.0644;
265.5000;0.5560;0.0693;
265.8000;0.5560;0.0693;
266.1000;0.5576;0.0644;
266.4000;0.5535;0.0520;
266.7000;0.5576;0.0594;
267.0000;0.5576;0.0693;
267.3000;0.5576;0.0644;
267.6000;0.5560;0.0718;
267.9000;0.5560;0.0669;
268.2000;0.5584;0.0743;
268.5000;0.5551;0.0669;
268.8000;0.5551;0.0693;
269.1000;0.5568;0.0792;
269.4000;0.5576;0.0842;
269.7000;0.5535;0.0669;
270.0000;0.5551;0.0693;
270.3000;0.5568;0.0693;
270.6000;0.5568;0.0619;
270.9000;0.5527;0.0619;
271.2000;0.5551;0.0693;
271.5000;0.5543;0.0570;
271.8000;0.5551;0.0570;
272.1000;0.5543;0.0594;
272.4000;0.5551;0.0644;
272.7000;0.5560;0.0619;
273.0000;0.5551;0.0545;
273.3000;0.5560;0.0545;
273.6000;0.5560;0.0570;
273.9000;0.5543;0.0570;
274.2000;0.5551;0.0644;
274.5000;0.5560;0.0619;
274.8000;0.5551;0.0594;
275.1000;0.5543;0.0545;
275.4000;0.5551;0.0594;
275.7000;0.5551;0.0693;
276.0000;0.5543;0.0644;
276.3000;0.5543;0.0644;
276.6000;0.5551;0.0594;
276.9000;0.5551;0.0594;
277.2000;0.5560;0.0594;
277.5000;0.5535;0.0520;
277.8000;0.5551;0.0619;
278.1000;0.5551;0.0619;
278.4000;0.5535;0.0545;
278.7000;0.5535;0.0669;
279.0000;0.5551;0.0644;
279.3000;0.5551;0.0594;
279.6000;0.5560;0.0619;
279.9000;0.5576;0.0743;
280.2000;0.5560;0.0669;
280.5000;0.5551;0.0693;
280.8000;0.5560;0.0693;
281.1000;0.5551;0.0718;
281.4000;0.5551;0.0718;
281.7000;0.5568;0.0817;
282.0000;0.5519;0.0768;
282.3000;0.5527;0.0669;
282.6000;0.5560;0.0570;
282.9000;0.5543;0.0520;
283.2000;0.5543;0.0594;
283.5000;0.5543;0.0520;
283.8000;0.5551;0.0495;
284.1000;0.5551;0.0545;
284.4000;0.5551;0.0570;
284.7000;0.5543;0.0520;
285.0000;0.5543;0.0520;
285.3000;0.5527;0.0495;
285.6000;0.5543;0.0594;
285.9000;0.5560;0.0644;
286.2000;0.5551;0.0594;
286.5000;0.5503;0.0446;
286.8000;0.5551;0.0520;
287.1000;0.5543;0.0470;
287.4000;0.5568;0.0545;
287.7000;0.5551;0.0446;
288.0000;0.5560;0.0396;
288.3000;0.5576;0.0470;
288.6000;0.5568;0.0495;
288.9000;0.5543;0.0495;
289.2000;0.5576;0.0470;
289.5000;0.5535;0.0421;
289.8000;0.5560;0.0495;
290.1000;0.5543;0.0545;
290.4000;0.5600;0.0669;
290.7000;0.5560;0.0570;
291.0000;0.5560;0.0545;
291.3000;0.5568;0.0594;
291.6000;0.5527;0.0545;
291.9000;0.5560;0.0594;
292.2000;0.5568;0.0693;
292.5000;0.5551;0.0693;
292.8000;0.5560;0.0644;
293.1000;0.5560;0.0619;
293.4000;0.5511;0.0470;
293.7000;0.5560;0.0545;
294.0000;0.5535;0.0495;
294.3000;0.5576;0.0594;
294.6000;0.5543;0.0594;
294.9000;0.5551;0.0669;
295.2000;0.5551;0.0693;
295.5000;0.5543;0.0693;
295.8000;0.5600;0.0842;
296.1000;0.5568;0.0743;
296.4000;0.5503;0.0644;
296.7000;0.5543;0.0792;
297.0000;0.5551;0.0718;
297.3000;0.5568;0.0842;
297.6000;0.5543;0.0743;
297.9000;0.5560;0.0792;
298.2000;0.5560;0.0743;
298.5000;0.5503;0.0594;
298.8000;0.5568;0.0669;
299.1000;0.5568;0.0718;
299.4000;0.5551;0.0743;
299.7000;0.5568;0.0842;
300.0000;0.5560;0.0792;
300.3000;0.5568;0.0768;
300.6000;0.5568;0.0743;
300.9000;0.5551;0.0718;
301.2000;0.5576;0.0743;
301.5000;0.5584;0.0792;
301.8000;0.5527;0.0718;
302.1000;0.5560;0.0768;
302.4000;0.5551;0.0743;
302.7000;0.5551;0.0842;
303.0000;0.5551;0.0718;
303.3000;0.5535;0.0693;
303.6000;0.5495;0.0594;
303.9000;0.5617;0.1015;
304.2000;0.5543;0.0817;
304.5000;0.5568;0.0842;
304.8000;0.5568;0.0867;
305.1000;0.5568;0.0842;
305.4000;0.5560;0.0743;
305.7000;0.5551;0.0718;
306.0000;0.5543;0.0693;
306.3000;0.5551;0.0644;
306.6000;0.5568;0.0669;
306.9000;0.5527;0.0594;
307.2000;0.5560;0.0644;
307.5000;0.5560;0.0619;
307.8000;0.5560;0.0594;
308.1000;0.5543;0.0470;
308.4000;0.5543;0.0421;
308.7000;0.5551;0.0421;
309.0000;0.5543;0.0371;
309.3000;0.5568;0.0446;
309.6000;0.5551;0.0421;
309.9000;0.5560;0.0520;
310.2000;0.5641;0.0768;
310.5000;0.5560;0.0570;
310.8000;0.5560;0.0594;
311.1000;0.5560;0.0644;
311.4000;0.5527;0.0470;
311.7000;0.5551;0.0545;
312.0000;0.5568;0.0470;
312.3000;0.5592;0.0693;
312.6000;0.5543;0.0644;
312.9000;0.5551;0.0693;
313.2000;0.5560;0.0693;
313.5000;0.5560;0.0693;
313.8000;0.5543;0.0693;
314.1000;0.5560;0.0718;
314.4000;0.5576;0.0817;
314.7000;0.5560;0.0743;
315.0000;0.5551;0.0693;
315.3000;0.5551;0.0693;
315.6000;0.5560;0.0644;
315.9000;0.5568;0.0669;
316.2000;0.5560;0.0644;
316.5000;0.5551;0.0520;
316.8000;0.5560;0.0570;
317.1000;0.5551;0.0718;
317.4000;0.5543;0.0718;
317.7000;0.5560;0.0718;
318.0000;0.5600;0.0817;
318.3000;0.5568;0.0718;
318.6000;0.5543;0.0644;
318.9000;0.5600;0.0817;
319.2000;0.5543;0.0743;
319.5000;0.5568;0.0792;
319.8000;0.5551;0.0718;
320.1000;0.5511;0.0594;
320.4000;0.5511;0.0594;
320.7000;0.5551;0.0718;
321.0000;0.5576;0.0718;
321.3000;0.5568;0.0644;
321.6000;0.5551;0.0718;
321.9000;0.5584;0.0792;
322.2000;0.5576;0.0817;
322.5000;0.5560;0.0743;
322.8000;0.5543;0.0718;
323.1000;0.5568;0.0743;
323.4000;0.5560;0.0792;
323.7000;0.5560;0.0867;
324.0000;0.5560;0.0941;
324.3000;0.5568;0.0966;
324.6000;0.5568;0.0941;
324.9000;0.5551;0.0941;
325.2000;0.5576;0.1065;
325.5000;0.5551;0.1015;
325.8000;0.5568;0.0991;
326.1000;0.5527;0.0867;
326.4000;0.5560;0.0891;
326.7000;0.5576;0.0916;
327.0000;0.5568;0.0891;
327.3000;0.5584;0.0941;
327.6000;0.5560;0.0842;
327.9000;0.5560;0.0792;
328.2000;0.5511;0.0718;
328.5000;0.5551;0.0891;
328.8000;0.5551;0.0991;
329.1000;0.5543;0.1040;
329.4000;0.5568;0.1040;
329.7000;0.5560;0.1065;
330.0000;0.5560;0.0991;
330.3000;0.5543;0.0916;
330.6000;0.5560;0.0916;
330.9000;0.5560;0.0891;
331.2000;0.5568;0.0891;
331.5000;0.5543;0.0817;
331.8000;0.5560;0.0718;
332.1000;0.5560;0.0792;
332.4000;0.5584;0.0867;
332.7000;0.5551;0.0817;
333.0000;0.5543;0.0718;
333.3000;0.5560;0.0743;
333.6000;0.5560;0.0817;
333.9000;0.5560;0.0891;
334.2000;0.5551;0.0916;
334.5000;0.5543;0.0966;
334.8000;0.5568;0.1065;
335.1000;0.5543;0.0941;
335.4000;0.5568;0.0916;
335.7000;0.5568;0.0891;
336.0000;0.5560;0.0867;
336.3000;0.5551;0.0842;
336.6000;0.5560;0.0768;
336.9000;0.5584;0.0693;
337.2000;0.5551;0.0669;
337.5000;0.5560;0.0768;
337.8000;0.5560;0.0768;
338.1000;0.5560;0.0693;
338.4000;0.5568;0.0545;
338.7000;0.5584;0.0545;
339.0000;0.5568;0.0545;
339.3000;0.5543;0.0495;
339.6000;0.5543;0.0570;
339.9000;0.5576;0.0693;
340.2000;0.5568;0.0743;
340.5000;0.5576;0.0669;
340.8000;0.5535;0.0693;
341.1000;0.5551;0.0693;
341.4000;0.5535;0.0743;
341.7000;0.5543;0.0817;
342.0000;0.5560;0.0817;
342.3000;0.5608;0.0867;
342.6000;0.5576;0.0718;
342.9000;0.5527;0.0619;
343.2000;0.5576;0.0669;
343.5000;0.5584;0.0644;
343.8000;0.5584;0.0644;
344.1000;0.5568;0.0743;
344.4000;0.5527;0.0644;
344.7000;0.5560;0.0718;
345.0000;0.5527;0.0594;
345.3000;0.5551;0.0644;
345.6000;0.5543;0.0594;
345.9000;0.5527;0.0594;
346.2000;0.5551;0.0743;
346.5000;0.5551;0.0669;
346.8000;0.5560;0.0693;
347.1000;0.5560;0.0693;
347.4000;0.5560;0.0693;
347.7000;0.5560;0.0644;
348.0000;0.5568;0.0545;
348.3000;0.5568;0.0545;
348.6000;0.5568;0.0545;
348.9000;0.5568;0.0470;
349.2000;0.5584;0.0421;
349.5000;0.5551;0.0570;
349.8000;0.5551;0.0570;
350.1000;0.5568;0.0619;
350.4000;0.5560;0.0570;
350.7000;0.5551;0.0545;
351.0000;0.5551;0.0495;
351.3000;0.5551;0.0545;
351.6000;0.5551;0.0520;
351.9000;0.5543;0.0570;
352.2000;0.5535;0.0545;
352.5000;0.5560;0.0520;
352.8000;0.5568;0.0594;
353.1000;0.5576;0.0594;
353.4000;0.5551;0.0619;
353.7000;0.5543;0.0545;
354.0000;0.5543;0.0570;
354.3000;0.5560;0.0619;
354.6000;0.5560;0.0619;
354.9000;0.5543;0.0669;
355.2000;0.5551;0.0669;
355.5000;0.5568;0.0669;
355.8000;0.5551;0.0669;
356.1000;0.5543;0.0743;
356.4000;0.5560;0.0718;
356.7000;0.5535;0.0693;
357.0000;0.5576;0.0842;
357.3000;0.5560;0.0842;
357.6000;0.5551;0.0867;
357.9000;0.5560;0.0792;
358.2000;0.5503;0.0693;
358.5000;0.5560;0.0768;
358.8000;0.5560;0.0817;
359.1000;0.5519;0.0743;
359.4000;0.5495;0.0619;
359.7000;0.5551;0.0792;
360.0000;0.5568;0.0842;
360.3000;0.5551;0.0718;
360.6000;0.5551;0.0768;
360.9000;0.5576;0.0792;
361.2000;0.5551;0.0768;
361.5000;0.5560;0.0768;
361.8000;0.5551;0.0693;
362.1000;0.5551;0.0644;
362.4000;0.5560;0.0693;
362.7000;0.5568;0.0669;
363.0000;0.5535;0.0619;
363.3000;0.5535;0.0718;
363.6000;0.5568;0.0718;
363.9000;0.5543;0.0842;
364.2000;0.5551;0.0867;
364.5000;0.5568;0.0916;
364.8000;0.5560;0.0891;
365.1000;0.5527;0.0842;
365.4000;0.5551;0.0891;
365.7000;0.5560;0.0991;
366.0000;0.5568;0.0941;
366.3000;0.5551;0.0916;
366.6000;0.5560;0.0941;
366.9000;0.5608;0.1065;
367.2000;0.5568;0.0867;
367.5000;0.5560;0.0768;
367.8000;0.5576;0.0817;
368.1000;0.5551;0.0842;
368.4000;0.5560;0.0842;
368.7000;0.5568;0.0768;
369.0000;0.5560;0.0792;
369.3000;0.5551;0.0669;
369.6000;0.5560;0.0718;
369.9000;0.5560;0.0693;
370.2000;0.5625;0.0842;
370.5000;0.5568;0.0743;
370.8000;0.5560;0.0768;
371.1000;0.5560;0.0792;
371.4000;0.5568;0.0792;
371.7000;0.5543;0.0743;
372.0000;0.5551;0.0768;
372.3000;0.5560;0.0743;
372.6000;0.5560;0.0792;
372.9000;0.5560;0.0743;
373.2000;0.5551;0.0693;
373.5000;0.5568;0.0693;
373.8000;0.5560;0.0817;
374.1000;0.5543;0.0792;
374.4000;0.5551;0.0743;
374.7000;0.5625;0.0867;
375.0000;0.5543;0.0718;
375.3000;0.5576;0.0743;
375.6000;0.5560;0.0743;
375.9000;0.5543;0.0743;
376.2000;0.5592;0.0792;
376.5000;0.5568;0.0718;
376.8000;0.5543;0.0545;
377.1000;0.5551;0.0545;
377.4000;0.5551;0.0619;
377.7000;0.5617;0.0792;
378.0000;0.5551;0.0669;
378.3000;0.5551;0.0669;
378.6000;0.5560;0.0669;
378.9000;0.5560;0.0669;
379.2000;0.5568;0.0743;
379.5000;0.5560;0.0743;
379.8000;0.5560;0.0768;
380.1000;0.5560;0.0792;
380.4000;0.5576;0.0842;
380.7000;0.5568;0.0792;
381.0000;0.5551;0.0743;
381.3000;0.5576;0.0743;
381.6000;0.5568;0.0867;
381.9000;0.5551;0.0842;
382.2000;0.5511;0.0743;
382.5000;0.5551;0.0891;
382.8000;0.5551;0.0941;
383.1000;0.5560;0.0891;
383.4000;0.5543;0.0916;
383.7000;0.5551;0.0916;
384.0000;0.5560;0.0867;
384.3000;0.5543;0.0867;
384.6000;0.5551;0.0768;
384.9000;0.5560;0.0792;
385.2000;0.5584;0.0817;
385.5000;0.5560;0.0693;
385.8000;0.5543;0.0743;
386.1000;0.5551;0.0718;
386.4000;0.5560;0.0669;
386.7000;0.5584;0.0891;
387.0000;0.5560;0.0792;
387.3000;0.5560;0.0792;
387.6000;0.5568;0.0718;
387.9000;0.5568;0.0669;
388.2000;0.5551;0.0644;
388.5000;0.5568;0.0693;
388.8000;0.5551;0.0693;
389.1000;0.5535;0.0669;
389.4000;0.5527;0.0669;
389.7000;0.5543;0.0718;
390.0000;0.5633;0.0916;
390.3000;0.5470;0.0421;
390.6000;0.5551;0.0619;
390.9000;0.5543;0.0644;
391.2000;0.5527;0.0594;
391.5000;0.5551;0.0644;
391.8000;0.5503;0.0470;
392.1000;0.5568;0.0669;
392.4000;0.5551;0.0644;
392.7000;0.5560;0.0619;
393.0000;0.5551;0.0669;
393.3000;0.5649;0.0891;
393.6000;0.5535;0.0619;
393.9000;0.5543;0.0693;
394.2000;0.5551;0.0718;
394.5000;0.5551;0.0768;
394.8000;0.5568;0.0743;
395.1000;0.5568;0.0792;
395.4000;0.5560;0.0768;
395.7000;0.5535;0.0743;
396.0000;0.5576;0.0842;
396.3000;0.5560;0.0693;
396.6000;0.5543;0.0644;
396.9000;0.5560;0.0644;
397.2000;0.5584;0.0594;
397.5000;0.5560;0.0594;
397.8000;0.5568;0.0644;
398.1000;0.5584;0.0718;
398.4000;0.5568;0.0644;
398.7000;0.5551;0.0669;
399.0000;0.5560;0.0669;
399.3000;0.5551;0.0594;
399.6000;0.5535;0.0570;
399.9000;0.5568;0.0619;
400.2000;0.5560;0.0669;
400.5000;0.5568;0.0718;
400.8000;0.5560;0.0743;
401.1000;0.5551;0.0743;
401.4000;0.5551;0.0718;
401.7000;0.5568;0.0768;
402.0000;0.5560;0.0718;
402.3000;0.5560;0.0768;
402.6000;0.5560;0.0743;
402.9000;0.5543;0.0718;
403.2000;0.5543;0.0768;
403.5000;0.5543;0.0743;
403.8000;0.5551;0.0768;
404.1000;0.5543;0.0792;
404.4000;0.5543;0.0693;
404.7000;0.5560;0.0693;
405.0000;0.5568;0.0693;
405.3000;0.5543;0.0644;
405.6000;0.5543;0.0644;
405.9000;0.5551;0.0669;
406.2000;0.5511;0.0669;
406.5000;0.5519;0.0718;
406.8000;0.5560;0.0842;
407.1000;0.5551;0.0743;
407.4000;0.5576;0.0842;
407.7000;0.5560;0.0693;
408.0000;0.5560;0.0644;
408.3000;0.5568;0.0743;
408.6000;0.5560;0.0768;
408.9000;0.5543;0.0718;
409.2000;0.5584;0.0941;
409.5000;0.5551;0.0817;
409.8000;0.5551;0.0768;
410.1000;0.5551;0.0817;
410.4000;0.5535;0.0768;
410.7000;0.5568;0.0842;
411.0000;0.5543;0.0867;
411.3000;0.5543;0.0867;
411.6000;0.5551;0.0693;
411.9000;0.5576;0.0718;
412.2000;0.5519;0.0644;
412.5000;0.5592;0.0842;
412.8000;0.5503;0.0669;
413.1000;0.5551;0.0817;
413.4000;0.5576;0.0792;
413.7000;0.5568;0.0718;
414.0000;0.5511;0.0619;
414.3000;0.5584;0.0792;
414.6000;0.5551;0.0718;
414.9000;0.5560;0.0718;
415.2000;0.5568;0.0669;
415.5000;0.5560;0.0594;
415.8000;0.5560;0.0495;
416.1000;0.5584;0.0545;
416.4000;0.5543;0.0495;
416.7000;0.5543;0.0545;
417.0000;0.5511;0.0520;
417.3000;0.5535;0.0520;
417.6000;0.5551;0.0495;
417.9000;0.5576;0.0470;
418.2000;0.5592;0.0520;
418.5000;0.5543;0.0470;
418.8000;0.5560;0.0470;
419.1000;0.5576;0.0520;
419.4000;0.5568;0.0570;
419.7000;0.5568;0.0570;
420.0000;0.5551;0.0545;
420.3000;0.5551;0.0495;
420.6000;0.5576;0.0520;
420.9000;0.5551;0.0446;
421.2000;0.5576;0.0421;
421.5000;0.5551;0.0396;
421.8000;0.5560;0.0495;
422.1000;0.5543;0.0421;
422.4000;0.5560;0.0495;
422.7000;0.5535;0.0421;
423.0000;0.5551;0.0421;
423.3000;0.5543;0.0421;
423.6000;0.5511;0.0371;
423.9000;0.5543;0.0594;
424.2000;0.5535;0.0520;
424.5000;0.5551;0.0470;
424.8000;0.5633;0.0743;
425.1000;0.5543;0.0495;
425.4000;0.5543;0.0470;
425.7000;0.5560;0.0520;
426.0000;0.5551;0.0520;
426.3000;0.5560;0.0470;
426.6000;0.5551;0.0470;
426.9000;0.5568;0.0446;
427.2000;0.5576;0.0495;
427.5000;0.5568;0.0570;
427.8000;0.5551;0.0545;
428.1000;0.5551;0.0520;
428.4000;0.5560;0.0619;
428.7000;0.5560;0.0520;
429.0000;0.5568;0.0570;
429.3000;0.5543;0.0520;
429.6000;0.5560;0.0669;
429.9000;0.5560;0.0718;
430.2000;0.5568;0.0792;
430.5000;0.5576;0.0842;
430.8000;0.5551;0.0842;
431.1000;0.5551;0.0817;
431.4000;0.5560;0.0768;
431.7000;0.5560;0.0693;
432.0000;0.5560;0.0768;
432.3000;0.5568;0.0842;
432.6000;0.5551;0.0792;
432.9000;0.5511;0.0693;
433.2000;0.5568;0.0817;
433.5000;0.5584;0.0842;
433.8000;0.5519;0.0644;
434.1000;0.5543;0.0669;
434.4000;0.5543;0.0594;
434.7000;0.5584;0.0792;
435.0000;0.5543;0.0644;
435.3000;0.5503;0.0619;
435.6000;0.5543;0.0768;
435.9000;0.5600;0.0966;
436.2000;0.5551;0.0817;
436.5000;0.5633;0.1040;
436.8000;0.5576;0.0842;
437.1000;0.5551;0.0817;
437.4000;0.5560;0.0867;
437.7000;0.5560;0.0792;
438.0000;0.5560;0.0718;
438.3000;0.5592;0.0768;
438.6000;0.5551;0.0669;
438.9000;0.5560;0.0743;
439.2000;0.5543;0.0669;
439.5000;0.5543;0.0669;
439.8000;0.5543;0.0669;
440.1000;0.5551;0.0644;
440.4000;0.5551;0.0594;
440.7000;0.5551;0.0545;
441.0000;0.5560;0.0545;
441.3000;0.5568;0.0570;
441.6000;0.5551;0.0594;
441.9000;0.5560;0.0570;
442.2000;0.5568;0.0594;
442.5000;0.5576;0.0570;
442.8000;0.5551;0.0570;
443.1000;0.5551;0.0545;
443.4000;0.5543;0.0570;
443.7000;0.5503;0.0446;
444.0000;0.5551;0.0594;
444.3000;0.5535;0.0644;
444.6000;0.5519;0.0669;
444.9000;0.5560;0.0718;
445.2000;0.5543;0.0693;
445.5000;0.5551;0.0644;
445.8000;0.5519;0.0520;
446.1000;0.5495;0.0495;
446.4000;0.5543;0.0669;
446.7000;0.5535;0.0619;
447.0000;0.5576;0.0669;
447.3000;0.5568;0.0644;
447.6000;0.5568;0.0495;
447.9000;0.5568;0.0470;
448.2000;0.5543;0.0396;
448.5000;0.5543;0.0446;
448.8000;0.5535;0.0446;
449.1000;0.5543;0.0545;
449.4000;0.5535;0.0594;
449.7000;0.5568;0.0718;
450.0000;0.5551;0.0669;
450.3000;0.5527;0.0594;
450.6000;0.5576;0.0718;
450.9000;0.5486;0.0495;
451.2000;0.5478;0.0371;
451.5000;0.5543;0.0470;
451.8000;0.5543;0.0495;
452.1000;0.5551;0.0495;
452.4000;0.5633;0.0768;
452.7000;0.5551;0.0446;
453.0000;0.5560;0.0421;
453.3000;0.5527;0.0322;
453.6000;0.5535;0.0371;
453.9000;0.5527;0.0396;
454.2000;0.5503;0.0272;
454.5000;0.5568;0.0396;
454.8000;0.5592;0.0470;
455.1000;0.5551;0.0371;
455.4000;0.5551;0.0347;
455.7000;0.5568;0.0322;
456.0000;0.5576;0.0421;
456.3000;0.5568;0.0446;
456.6000;0.5560;0.0495;
456.9000;0.5560;0.0520;
457.2000;0.5576;0.0619;
457.5000;0.5551;0.0470;
457.8000;0.5560;0.0446;
458.1000;0.5560;0.0570;
458.4000;0.5535;0.0545;
458.7000;0.5551;0.0594;
459.0000;0.5551;0.0619;
459.3000;0.5535;0.0669;
459.6000;0.5560;0.0669;
459.9000;0.5543;0.0644;
460.2000;0.5551;0.0594;
460.5000;0.5560;0.0619;
460.8000;0.5551;0.0594;
461.1000;0.5576;0.0743;
461.4000;0.5535;0.0669;
461.7000;0.5527;0.0594;
462.0000;0.5592;0.0768;
462.3000;0.5543;0.0594;
462.6000;0.5560;0.0669;
462.9000;0.5551;0.0669;
463.2000;0.5551;0.0644;
463.5000;0.5600;0.0817;
463.8000;0.5535;0.0644;
464.1000;0.5527;0.0644;
464.4000;0.5560;0.0768;
464.7000;0.5527;0.0669;
465.0000;0.5543;0.0693;
465.3000;0.5551;0.0743;
465.6000;0.5543;0.0867;
465.9000;0.5543;0.0891;
466.2000;0.5543;0.0867;
466.5000;0.5519;0.0867;
466.8000;0.5535;0.0941;
467.1000;0.5527;0.0842;
467.4000;0.5543;0.0966;
467.7000;0.5543;0.0891;
468.0000;0.5568;0.0941;
468.3000;0.5543;0.0867;
468.6000;0.5560;0.0916;
468.9000;0.5543;0.0867;
469.2000;0.5527;0.0842;
469.5000;0.5551;0.0966;
469.8000;0.5560;0.0966;
470.1000;0.5535;0.0867;
470.4000;0.5535;0.0867;
470.7000;0.5543;0.0916;
471.0000;0.5527;0.0792;
471.3000;0.5551;0.0842;
471.6000;0.5527;0.0842;
471.9000;0.5535;0.0817;
472.2000;0.5535;0.0867;
472.5000;0.5560;0.0842;
472.8000;0.5511;0.0644;
473.1000;0.5543;0.0743;
473.4000;0.5535;0.0842;
473.7000;0.5543;0.0817;
474.0000;0.5551;0.0817;
474.3000;0.5527;0.0693;
474.6000;0.5551;0.0792;
474.9000;0.5568;0.0842;
475.2000;0.5543;0.0768;
475.5000;0.5551;0.0891;
475.8000;0.5551;0.0792;
476.1000;0.5503;0.0619;
476.4000;0.5535;0.0619;
476.7000;0.5543;0.0768;
477.0000;0.5543;0.0792;
477.3000;0.5511;0.0792;
477.6000;0.5511;0.0891;
477.9000;0.5503;0.0966;
478.2000;0.5511;0.0891;
478.5000;0.5584;0.1090;
478.8000;0.5551;0.0916;
479.1000;0.5519;0.0891;
479.4000;0.5543;0.0916;
479.7000;0.5551;0.0916;
480.0000;0.5568;0.0966;
480.3000;0.5551;0.1015;
480.6000;0.5551;0.1015;
480.9000;0.5568;0.1090;
481.2000;0.5560;0.1040;
481.5000;0.5535;0.0966;
481.8000;0.5519;0.0842;
482.1000;0.5543;0.0941;
482.4000;0.5551;0.0991;
482.7000;0.5543;0.0966;
483.0000;0.5511;0.0867;
483.3000;0.5560;0.0891;
483.6000;0.5568;0.0916;
483.9000;0.5543;0.0817;
484.2000;0.5560;0.0792;
484.5000;0.5543;0.0792;
484.8000;0.5551;0.0891;
485.1000;0.5560;0.0991;
485.4000;0.5560;0.1015;
485.7000;0.5551;0.0966;
486.0000;0.5560;0.0891;
486.3000;0.5543;0.0768;
486.6000;0.5551;0.0743;
486.9000;0.5551;0.0693;
487.2000;0.5527;0.0644;
487.5000;0.5543;0.0718;
487.8000;0.5560;0.0718;
488.1000;0.5535;0.0743;
488.4000;0.5527;0.0817;
488.7000;0.5543;0.0891;
489.0000;0.5535;0.0891;
489.3000;0.5543;0.0867;
489.6000;0.5543;0.0867;
489.9000;0.5535;0.0891;
490.2000;0.5527;0.0842;
490.5000;0.5551;0.0817;
490.8000;0.5576;0.0891;
491.1000;0.5600;0.1065;
491.4000;0.5543;0.0941;
491.7000;0.5551;0.1040;
492.0000;0.5543;0.1015;
492.3000;0.5543;0.1065;
492.6000;0.5551;0.1114;
492.9000;0.5551;0.1040;
493.2000;0.5543;0.1090;
493.5000;0.5535;0.1189;
493.8000;0.5560;0.1189;
494.1000;0.5527;0.1015;
494.4000;0.5560;0.1164;
494.7000;0.5600;0.1189;
495.0000;0.5560;0.0991;
495.3000;0.5551;0.0941;
495.6000;0.5535;0.0991;
495.9000;0.5543;0.0842;
496.2000;0.5568;0.0891;
496.5000;0.5527;0.0817;
496.8000;0.5543;0.0891;
497.1000;0.5543;0.0867;
497.4000;0.5535;0.0817;
497.7000;0.5543;0.0792;
498.0000;0.5560;0.0867;
498.3000;0.5560;0.0916;
498.6000;0.5551;0.0966;
498.9000;0.5543;0.0891;
499.2000;0.5543;0.0842;
499.5000;0.5576;0.0966;
499.8000;0.5543;0.0916;
500.1000;0.5551;0.0966;
500.4000;0.5560;0.1065;
500.7000;0.5584;0.1090;
501.0000;0.5576;0.1015;
501.3000;0.5527;0.0867;
501.6000;0.5535;0.0867;
501.9000;0.5560;0.0891;
502.2000;0.5560;0.0916;
502.5000;0.5543;0.0941;
502.8000;0.5576;0.1040;
503.1000;0.5551;0.0941;
503.4000;0.5543;0.0916;
503.7000;0.5551;0.0916;
504.0000;0.5503;0.0842;
504.3000;0.5543;0.0891;
504.6000;0.5543;0.0842;
504.9000;0.5560;0.0966;
505.2000;0.5551;0.0966;
505.5000;0.5551;0.0867;
505.8000;0.5486;0.0669;
506.1000;0.5543;0.0891;
506.4000;0.5543;0.0941;
506.7000;0.5551;0.1040;
507.0000;0.5560;0.1040;
507.3000;0.5584;0.1015;
507.6000;0.5560;0.1015;
507.9000;0.5560;0.1015;
508.2000;0.5560;0.0966;
508.5000;0.5560;0.1040;
508.8000;0.5551;0.0991;
509.1000;0.5560;0.1015;
509.4000;0.5560;0.1065;
509.7000;0.5543;0.1015;
510.0000;0.5551;0.0966;
510.3000;0.5486;0.0718;
510.6000;0.5551;0.0891;
510.9000;0.5560;0.0916;
511.2000;0.5551;0.0916;
511.5000;0.5543;0.0991;
511.8000;0.5568;0.1040;
512.1000;0.5551;0.1015;
512.4000;0.5568;0.0966;
512.7000;0.5551;0.0941;
513.0000;0.5576;0.1015;
513.3000;0.5551;0.0941;
513.6000;0.5568;0.0991;
513.9000;0.5560;0.0966;
514.2000;0.5568;0.1040;
514.5000;0.5560;0.1114;
514.8000;0.5535;0.1065;
515.1000;0.5543;0.1090;
515.4000;0.5560;0.1040;
515.7000;0.5543;0.0941;
516.0000;0.5535;0.0941;
516.3000;0.5535;0.0916;
516.6000;0.5551;0.0941;
516.9000;0.5551;0.0991;
517.2000;0.5543;0.0991;
517.5000;0.5551;0.1065;
517.8000;0.5617;0.1189;
518.1000;0.5535;0.0966;
518.4000;0.5551;0.1090;
518.7000;0.5551;0.1040;
519.0000;0.5527;0.0916;
519.3000;0.5519;0.0916;
519.6000;0.5560;0.0966;
519.9000;0.5551;0.0916;
520.2000;0.5543;0.0941;
520.5000;0.5560;0.0966;
520.8000;0.5560;0.1040;
521.1000;0.5535;0.0991;
521.4000;0.5543;0.0941;
521.7000;0.5527;0.0941;
522.0000;0.5429;0.0792;
522.3000;0.5527;0.1114;
522.6000;0.5535;0.1189;
522.9000;0.5543;0.1114;
523.2000;0.5535;0.1114;
523.5000;0.5543;0.1189;
523.8000;0.5551;0.1139;
524.1000;0.5543;0.1189;
524.4000;0.5535;0.1164;
524.7000;0.5543;0.1139;
525.0000;0.5560;0.1213;
525.3000;0.5543;0.1164;
525.6000;0.5592;0.1213;
525.9000;0.5543;0.0991;
526.2000;0.5543;0.0991;
526.5000;0.5527;0.0941;
526.8000;0.5560;0.1090;
527.1000;0.5527;0.1065;
527.4000;0.5551;0.1139;
527.7000;0.5543;0.1090;
528.0000;0.5584;0.1114;
528.3000;0.5535;0.1040;
528.6000;0.5535;0.1065;
528.9000;0.5551;0.1090;
529.2000;0.5519;0.1164;
529.5000;0.5535;0.1164;
529.8000;0.5551;0.1139;
530.1000;0.5543;0.1114;
530.4000;0.5568;0.1139;
530.7000;0.5535;0.1114;
531.0000;0.5543;0.1139;
531.3000;0.5551;0.1189;
531.6000;0.5576;0.1090;
531.9000;0.5543;0.0966;
532.2000;0.5551;0.0842;
532.5000;0.5478;0.0693;
532.8000;0.5543;0.0867;
533.1000;0.5535;0.0867;
533.4000;0.5527;0.0792;
533.7000;0.5527;0.0768;
534.0000;0.5560;0.0867;
534.3000;0.5543;0.0842;
534.6000;0.5551;0.0817;
534.9000;0.5519;0.0743;
535.2000;0.5560;0.0916;
535.5000;0.5560;0.0941;
535.8000;0.5608;0.1090;
536.1000;0.5560;0.0966;
536.4000;0.5551;0.0916;
536.7000;0.5543;0.0916;
537.0000;0.5527;0.0867;
537.3000;0.5527;0.0991;
537.6000;0.5527;0.1090;
537.9000;0.5543;0.1164;
538.2000;0.5543;0.1114;
538.5000;0.5535;0.1065;
538.8000;0.5568;0.1164;
539.1000;0.5535;0.1114;
539.4000;0.5551;0.1114;
539.7000;0.5560;0.1189;
540.0000;0.5543;0.1114;
540.3000;0.5551;0.1114;
540.6000;0.5568;0.1040;
540.9000;0.5543;0.1040;
541.2000;0.5551;0.1114;
541.5000;0.5527;0.0991;
541.8000;0.5543;0.1090;
542.1000;0.5592;0.1189;
542.4000;0.5519;0.0991;
542.7000;0.5535;0.1114;
543.0000;0.5511;0.1065;
543.3000;0.5551;0.1114;
543.6000;0.5543;0.1090;
543.9000;0.5551;0.1139;
544.2000;0.5535;0.1090;
544.5000;0.5511;0.0966;
544.8000;0.5560;0.0991;
545.1000;0.5568;0.1040;
545.4000;0.5535;0.0966;
545.7000;0.5551;0.1065;
546.0000;0.5535;0.0966;
546.3000;0.5535;0.0966;
546.6000;0.5527;0.0966;
546.9000;0.5535;0.1015;
547.2000;0.5576;0.1288;
547.5000;0.5495;0.1139;
547.8000;0.5535;0.1139;
548.1000;0.5551;0.1189;
548.4000;0.5503;0.1040;
548.7000;0.5543;0.1114;
549.0000;0.5543;0.1090;
549.3000;0.5560;0.1015;
549.6000;0.5511;0.0891;
549.9000;0.5543;0.0991;
550.2000;0.5535;0.0916;
550.5000;0.5519;0.0941;
550.8000;0.5551;0.0991;
551.1000;0.5543;0.1015;
551.4000;0.5543;0.0991;
551.7000;0.5478;0.0768;
552.0000;0.5543;0.1065;
552.3000;0.5551;0.1065;
552.6000;0.5560;0.1090;
552.9000;0.5486;0.0941;
553.2000;0.5568;0.1090;
553.5000;0.5543;0.0966;
553.8000;0.5535;0.0916;
554.1000;0.5519;0.1040;
554.4000;0.5584;0.1164;
554.7000;0.5584;0.1189;
555.0000;0.5519;0.1040;
555.3000;0.5560;0.1189;
555.6000;0.5535;0.1213;
555.9000;0.5560;0.1213;
556.2000;0.5543;0.1238;
556.5000;0.5503;0.1065;
556.8000;0.5560;0.1090;
557.1000;0.5560;0.1164;
557.4000;0.5551;0.1139;
557.7000;0.5543;0.1090;
558.0000;0.5560;0.1213;
558.3000;0.5543;0.1189;
558.6000;0.5568;0.1337;
558.9000;0.5543;0.1238;
559.2000;0.5535;0.1189;
559.5000;0.5543;0.1114;
559.8000;0.5551;0.1164;
560.1000;0.5543;0.1114;
560.4000;0.5535;0.1065;
560.7000;0.5535;0.1015;
561.0000;0.5495;0.0842;
561.3000;0.5543;0.1040;
561.6000;0.5535;0.1065;
561.9000;0.5560;0.1164;
562.2000;0.5543;0.1164;
562.5000;0.5551;0.1040;
562.8000;0.5584;0.1040;
563.1000;0.5560;0.0916;
563.4000;0.5551;0.0891;
563.7000;0.5543;0.0941;
564.0000;0.5592;0.1065;
564.3000;0.5560;0.1015;
564.6000;0.5551;0.0966;
564.9000;0.5543;0.0966;
565.2000;0.5560;0.1040;
565.5000;0.5535;0.0867;
565.8000;0.5511;0.0817;
566.1000;0.5535;0.0941;
566.4000;0.5527;0.0867;
566.7000;0.5543;0.0916;
567.0000;0.5527;0.0916;
567.3000;0.5535;0.0916;
567.6000;0.5543;0.0966;
567.9000;0.5543;0.1040;
568.2000;0.5560;0.1015;
568.5000;0.5519;0.0966;
568.8000;0.5535;0.1015;
569.1000;0.5560;0.1015;
569.4000;0.5543;0.1040;
569.7000;0.5535;0.0966;
570.0000;0.5535;0.0916;
570.3000;0.5568;0.0966;
570.6000;0.5551;0.0792;
570.9000;0.5551;0.0867;
571.2000;0.5592;0.0991;
571.5000;0.5527;0.0817;
571.8000;0.5560;0.0941;
572.1000;0.5551;0.0916;
572.4000;0.5478;0.0792;
572.7000;0.5535;0.1040;
573.0000;0.5600;0.1090;
573.3000;0.5551;0.0966;
573.6000;0.5543;0.0966;
573.9000;0.5519;0.0966;
574.2000;0.5551;0.1040;
574.5000;0.5551;0.1040;
574.8000;0.5543;0.0991;
575.1000;0.5543;0.0941;
575.4000;0.5543;0.0991;
575.7000;0.5543;0.1040;
576.0000;0.5527;0.1015;
576.3000;0.5535;0.0867;
576.6000;0.5551;0.0991;
576.9000;0.5535;0.0941;
577.2000;0.5511;0.0916;
577.5000;0.5527;0.0891;
577.8000;0.5543;0.0891;
578.1000;0.5535;0.0867;
578.4000;0.5543;0.0842;
578.7000;0.5543;0.0867;
579.0000;0.5551;0.0941;
579.3000;0.5551;0.0891;
579.6000;0.5560;0.0966;
579.9000;0.5535;0.0817;
580.2000;0.5543;0.0817;
580.5000;0.5519;0.0768;
580.8000;0.5543;0.0743;
581.1000;0.5527;0.0792;
581.4000;0.5543;0.0867;
581.7000;0.5535;0.0891;
582.0000;0.5519;0.0792;
582.3000;0.5535;0.0941;
582.6000;0.5535;0.0916;
582.9000;0.5543;0.0842;
583.2000;0.5543;0.0817;
583.5000;0.5543;0.0792;
583.8000;0.5519;0.0743;
584.1000;0.5543;0.0792;
584.4000;0.5543;0.0817;
584.7000;0.5535;0.0842;
585.0000;0.5551;0.0916;
585.3000;0.5543;0.0842;
585.6000;0.5527;0.0842;
585.9000;0.5551;0.0842;
586.2000;0.5608;0.1040;
586.5000;0.5543;0.0916;
586.8000;0.5535;0.0817;
587.1000;0.5543;0.0842;
587.4000;0.5568;0.0966;
587.7000;0.5511;0.0842;
588.0000;0.5543;0.0891;
588.3000;0.5543;0.0817;
588.6000;0.5486;0.0718;
588.9000;0.5543;0.1015;
589.2000;0.5495;0.0916;
589.5000;0.5543;0.0991;
589.8000;0.5535;0.1040;
590.1000;0.5503;0.0966;
590.4000;0.5568;0.1065;
590.7000;0.5568;0.1090;
591.0000;0.5560;0.1015;
591.3000;0.5543;0.0966;
591.6000;0.5543;0.0867;
591.9000;0.5535;0.0916;
592.2000;0.5495;0.0842;
592.5000;0.5576;0.1015;
592.8000;0.5511;0.0867;
593.1000;0.5519;0.0916;
593.4000;0.5527;0.0966;
593.7000;0.5535;0.0941;
594.0000;0.5535;0.0966;
594.3000;0.5527;0.0991;
594.6000;0.5600;0.1090;
594.9000;0.5568;0.1065;
595.2000;0.5527;0.0941;
595.5000;0.5568;0.1015;
595.8000;0.5527;0.0817;
596.1000;0.5535;0.0792;
596.4000;0.5527;0.0768;
596.7000;0.5535;0.0768;
597.0000;0.5551;0.0768;
597.3000;0.5592;0.0916;
597.6000;0.5543;0.0891;
597.9000;0.5568;0.0966;
598.2000;0.5535;0.0817;
598.5000;0.5535;0.0867;
598.8000;0.5543;0.0842;
599.1000;0.5568;0.0891;
599.4000;0.5535;0.0817;
599.7000;0.5495;0.0743;
600.0000;0.5535;0.0891;
600.3000;0.5527;0.0768;
600.6000;0.5527;0.0619;
600.9000;0.5535;0.0570;
601.2000;0.5486;0.0371;
601.5000;0.5470;0.0272;
601.8000;0.5405;0.0223;
602.1000;0.5397;0.0173;
602.4000;0.5389;0.0099;
602.7000;0.5389;0.0297;
603.0000;0.5405;0.0347;
603.3000;0.5332;0.0149;
603.6000;0.5283;0.0074;
603.9000;0.5234;-0.0099;
604.2000;0.5250;0.0000;
604.5000;0.5234;0.0000;
604.8000;0.5226;-0.0025;
605.1000;0.5193;0.0025;
605.4000;0.5169;-0.0074;
605.7000;0.5185;-0.0124;
606.0000;0.5063;-0.0347;
606.3000;0.5153;-0.0074;
606.6000;0.5136;-0.0074;
606.9000;0.5144;-0.0173;
607.2000;0.5112;-0.0173;
607.5000;0.5104;-0.0198;
607.8000;0.5120;-0.0173;
608.1000;0.5079;-0.0371;
608.4000;0.5055;-0.0446;
608.7000;0.5079;-0.0446;
609.0000;0.5055;-0.0446;
609.3000;0.5055;-0.0396;
609.6000;0.5039;-0.0396;
609.9000;0.5022;-0.0421;
610.2000;0.5014;-0.0495;
610.5000;0.5031;-0.0446;
610.8000;0.5031;-0.0347;
611.1000;0.5022;-0.0322;
611.4000;0.4990;-0.0396;
611.7000;0.4965;-0.0421;
612.0000;0.4982;-0.0248;
612.3000;0.4974;-0.0297;
612.6000;0.5014;-0.0198;
612.9000;0.4974;-0.0223;
613.2000;0.4917;-0.0347;
613.5000;0.4957;-0.0173;
613.8000;0.4949;-0.0198;
614.1000;0.4974;-0.0149;
614.4000;0.4949;-0.0272;
614.7000;0.4908;-0.0297;
615.0000;0.4925;-0.0198;
615.3000;0.4908;-0.0223;
615.6000;0.4884;-0.0223;
615.9000;0.4860;-0.0223;
616.2000;0.4892;-0.0198;
616.5000;0.4900;-0.0173;
616.8000;0.4908;-0.0124;
617.1000;0.4892;-0.0149;
617.4000;0.4917;-0.0173;
617.7000;0.4892;-0.0272;
618.0000;0.4884;-0.0223;
618.3000;0.4868;-0.0297;
618.6000;0.4876;-0.0297;
618.9000;0.4851;-0.0322;
619.2000;0.4860;-0.0297;
619.5000;0.4860;-0.0297;
619.8000;0.4843;-0.0322;
620.1000;0.4843;-0.0248;
620.4000;0.4827;-0.0347;
620.7000;0.4876;-0.0272;
621.0000;0.4827;-0.0322;
621.3000;0.4876;-0.0099;
621.6000;0.4819;-0.0198;
621.9000;0.4835;-0.0099;
622.2000;0.4835;-0.0050;
622.5000;0.4803;-0.0025;
622.8000;0.4786;-0.0149;
623.1000;0.4811;-0.0074;
623.4000;0.4811;-0.0124;
623.7000;0.4819;-0.0099;
624.0000;0.4794;-0.0173;
624.3000;0.4770;-0.0124;
624.6000;0.4778;0.0000;
624.9000;0.4770;-0.0099;
625.2000;0.4778;-0.0223;
625.5000;0.4794;-0.0248;
625.8000;0.4746;-0.0421;
626.1000;0.4778;-0.0297;
626.4000;0.4778;-0.0248;
626.7000;0.4754;-0.0347;
627.0000;0.4746;-0.0470;
627.3000;0.4729;-0.0570;
627.6000;0.4778;-0.0421;
627.9000;0.4697;-0.0570;
628.2000;0.4794;-0.0248;
628.5000;0.4746;-0.0446;
628.8000;0.4737;-0.0520;
629.1000;0.4803;-0.0347;
629.4000;0.4664;-0.0594;
629.7000;0.4713;-0.0347;
630.0000;0.4746;-0.0396;
630.3000;0.4721;-0.0396;
630.6000;0.4721;-0.0322;
630.9000;0.4713;-0.0371;
631.2000;0.4713;-0.0347;
631.5000;0.4705;-0.0272;
631.8000;0.4689;-0.0347;
632.1000;0.4697;-0.0322;
632.4000;0.4737;-0.0149;
632.7000;0.4697;-0.0149;
633.0000;0.4713;-0.0149;
633.3000;0.4737;-0.0124;
633.6000;0.4729;-0.0198;
633.9000;0.4689;-0.0347;
634.2000;0.4681;-0.0248;
634.5000;0.4672;-0.0272;
634.8000;0.4664;-0.0347;
635.1000;0.4640;-0.0470;
635.4000;0.4672;-0.0421;
635.7000;0.4681;-0.0446;
636.0000;0.4664;-0.0421;
636.3000;0.4672;-0.0446;
636.6000;0.4681;-0.0371;
636.9000;0.4656;-0.0421;
637.2000;0.4526;-0.0842;
637.5000;0.4664;-0.0545;
637.8000;0.4632;-0.0520;
638.1000;0.4648;-0.0470;
638.4000;0.4648;-0.0470;
638.7000;0.4656;-0.0520;
639.0000;0.4648;-0.0520;
639.3000;0.4640;-0.0545;
639.6000;0.4689;-0.0446;
639.9000;0.4648;-0.0421;
640.2000;0.4656;-0.0371;
640.5000;0.4648;-0.0322;
640.8000;0.4632;-0.0347;
641.1000;0.4640;-0.0297;
641.4000;0.4672;-0.0248;
641.7000;0.4640;-0.0371;
642.0000;0.4632;-0.0446;
642.3000;0.4534;-0.0768;
642.6000;0.4583;-0.0594;
642.9000;0.4624;-0.0570;
643.2000;0.4615;-0.0644;
643.5000;0.4632;-0.0644;
643.8000;0.4632;-0.0644;
644.1000;0.4615;-0.0619;
644.4000;0.4607;-0.0619;
644.7000;0.4632;-0.0570;
645.0000;0.4615;-0.0644;
645.3000;0.4648;-0.0570;
645.6000;0.4607;-0.0718;
645.9000;0.4599;-0.0669;
646.2000;0.4607;-0.0644;
646.5000;0.4607;-0.0743;
646.8000;0.4607;-0.0718;
647.1000;0.4615;-0.0669;
647.4000;0.4567;-0.0743;
647.7000;0.4583;-0.0594;
648.0000;0.4632;-0.0421;
648.3000;0.4615;-0.0470;
648.6000;0.4607;-0.0594;
648.9000;0.4567;-0.0693;
649.2000;0.4583;-0.0644;
649.5000;0.4583;-0.0669;
649.8000;0.4550;-0.0718;
650.1000;0.4583;-0.0594;
650.4000;0.4550;-0.0545;
650.7000;0.4591;-0.0495;
651.0000;0.4501;-0.0768;
651.3000;0.4575;-0.0495;
651.6000;0.4567;-0.0470;
651.9000;0.4575;-0.0446;
652.2000;0.4583;-0.0371;
652.5000;0.4567;-0.0421;
652.8000;0.4558;-0.0322;
653.1000;0.4542;-0.0322;
653.4000;0.4567;-0.0198;
653.7000;0.4542;-0.0297;
654.0000;0.4567;-0.0248;
654.3000;0.4567;-0.0272;
654.6000;0.4567;-0.0347;
654.9000;0.4558;-0.0446;
655.2000;0.4558;-0.0495;
655.5000;0.4542;-0.0495;
655.8000;0.4550;-0.0520;
656.1000;0.4591;-0.0545;
656.4000;0.4575;-0.0644;
656.7000;0.4558;-0.0669;
657.0000;0.4567;-0.0693;
657.3000;0.4567;-0.0693;
657.6000;0.4526;-0.0817;
657.9000;0.4485;-0.1015;
658.2000;0.4567;-0.0718;
658.5000;0.4558;-0.0743;
658.8000;0.4542;-0.0792;
659.1000;0.4558;-0.0619;
659.4000;0.4526;-0.0644;
659.7000;0.4526;-0.0693;
660.0000;0.4510;-0.0693;
660.3000;0.4518;-0.0669;
660.6000;0.4534;-0.0644;
660.9000;0.4550;-0.0495;
661.2000;0.4534;-0.0545;
661.5000;0.4518;-0.0495;
661.8000;0.4493;-0.0545;
662.1000;0.4526;-0.0446;
662.4000;0.4567;-0.0371;
662.7000;0.4518;-0.0495;
663.0000;0.4501;-0.0545;
663.3000;0.4485;-0.0644;
663.6000;0.4510;-0.0594;
663.9000;0.4518;-0.0545;
664.2000;0.4558;-0.0520;
664.5000;0.4510;-0.0619;
664.8000;0.4501;-0.0619;
665.1000;0.4501;-0.0669;
665.4000;0.4542;-0.0520;
665.7000;0.4493;-0.0570;
666.0000;0.4510;-0.0446;
666.3000;0.4485;-0.0594;
666.6000;0.4444;-0.0619;
666.9000;0.4493;-0.0470;
667.2000;0.4501;-0.0495;
667.5000;0.4510;-0.0495;
667.8000;0.4501;-0.0470;
668.1000;0.4510;-0.0396;
668.4000;0.4485;-0.0322;
668.7000;0.4501;-0.0248;
669.0000;0.4477;-0.0297;
669.3000;0.4477;-0.0322;
669.6000;0.4477;-0.0347;
669.9000;0.4493;-0.0322;
670.2000;0.4485;-0.0322;
670.5000;0.4493;-0.0371;
670.8000;0.4461;-0.0520;
671.1000;0.4485;-0.0470;
671.4000;0.4477;-0.0495;
671.7000;0.4485;-0.0495;
672.0000;0.4477;-0.0570;
672.3000;0.4477;-0.0470;
672.6000;0.4493;-0.0446;
672.9000;0.4485;-0.0495;
673.2000;0.4485;-0.0470;
673.5000;0.4493;-0.0470;
673.8000;0.4477;-0.0421;
674.1000;0.4477;-0.0470;
674.4000;0.4469;-0.0495;
674.7000;0.4461;-0.0470;
675.0000;0.4453;-0.0470;
675.3000;0.4469;-0.0470;
675.6000;0.4493;-0.0347;
675.9000;0.4461;-0.0446;
676.2000;0.4453;-0.0446;
676.5000;0.4469;-0.0396;
676.8000;0.4461;-0.0421;
677.1000;0.4477;-0.0347;
677.4000;0.4469;-0.0371;
677.7000;0.4453;-0.0371;
678.0000;0.4477;-0.0371;
678.3000;0.4477;-0.0396;
678.6000;0.4461;-0.0421;
678.9000;0.4469;-0.0396;
679.2000;0.4444;-0.0446;
679.5000;0.4444;-0.0421;
679.8000;0.4477;-0.0347;
680.1000;0.4469;-0.0347;
680.4000;0.4469;-0.0322;
680.7000;0.4453;-0.0421;
681.0000;0.4436;-0.0446;
681.3000;0.4444;-0.0396;
681.6000;0.4461;-0.0322;
681.9000;0.4461;-0.0322;
682.2000;0.4436;-0.0272;
682.5000;0.4436;-0.0173;
682.8000;0.4420;-0.0198;
683.1000;0.4469;-0.0173;
683.4000;0.4461;-0.0198;
683.7000;0.4436;-0.0322;
684.0000;0.4461;-0.0347;
684.3000;0.4461;-0.0322;
684.6000;0.4461;-0.0248;
684.9000;0.4453;-0.0322;
685.2000;0.4396;-0.0396;
685.5000;0.4436;-0.0223;
685.8000;0.4444;-0.0149;
686.1000;0.4436;-0.0124;
686.4000;0.4404;-0.0223;
686.7000;0.4444;-0.0173;
687.0000;0.4436;-0.0149;
687.3000;0.4436;-0.0223;
687.6000;0.4428;-0.0223;
687.9000;0.4453;-0.0173;
688.2000;0.4444;-0.0272;
688.5000;0.4444;-0.0297;
688.8000;0.4420;-0.0297;
689.1000;0.4404;-0.0297;
689.4000;0.4453;-0.0223;
689.7000;0.4412;-0.0347;
690.0000;0.4428;-0.0347;
690.3000;0.4396;-0.0347;
690.6000;0.4420;-0.0446;
690.9000;0.4453;-0.0371;
691.2000;0.4404;-0.0446;
691.5000;0.4420;-0.0421;
691.8000;0.4412;-0.0495;
692.1000;0.4444;-0.0322;
692.4000;0.4396;-0.0495;
692.7000;0.4420;-0.0446;
693.0000;0.4420;-0.0371;
693.3000;0.4428;-0.0297;
693.6000;0.4396;-0.0371;
693.9000;0.4412;-0.0371;
694.2000;0.4387;-0.0322;
694.5000;0.4412;-0.0297;
694.8000;0.4420;-0.0396;
695.1000;0.4404;-0.0396;
695.4000;0.4396;-0.0446;
695.7000;0.4396;-0.0446;
696.0000;0.4428;-0.0470;
696.3000;0.4396;-0.0570;
696.6000;0.4404;-0.0619;
696.9000;0.4396;-0.0693;
697.2000;0.4387;-0.0693;
697.5000;0.4412;-0.0669;
697.8000;0.4387;-0.0669;
698.1000;0.4404;-0.0669;
698.4000;0.4412;-0.0669;
698.7000;0.4396;-0.0693;
699.0000;0.4404;-0.0669;
699.3000;0.4404;-0.0693;
699.6000;0.4412;-0.0669;
699.9000;0.4404;-0.0619;
700.2000;0.4396;-0.0644;
700.5000;0.4404;-0.0570;
700.8000;0.4412;-0.0495;
701.1000;0.4371;-0.0570;
701.4000;0.4404;-0.0495;
701.7000;0.4412;-0.0470;
702.0000;0.4396;-0.0495;
702.3000;0.4387;-0.0570;
702.6000;0.4396;-0.0545;
702.9000;0.4387;-0.0520;
703.2000;0.4396;-0.0594;
703.5000;0.4387;-0.0644;
703.8000;0.4387;-0.0619;
704.1000;0.4436;-0.0446;
704.4000;0.4379;-0.0570;
704.7000;0.4379;-0.0570;
705.0000;0.4404;-0.0470;
705.3000;0.4339;-0.0693;
705.6000;0.4387;-0.0570;
705.9000;0.4396;-0.0446;
706.2000;0.4363;-0.0495;
706.5000;0.4396;-0.0421;
706.8000;0.4396;-0.0396;
707.1000;0.4387;-0.0396;
707.4000;0.4387;-0.0396;
707.7000;0.4396;-0.0495;
708.0000;0.4355;-0.0619;
708.3000;0.4371;-0.0495;
708.6000;0.4379;-0.0446;
708.9000;0.4379;-0.0371;
709.2000;0.4371;-0.0421;
709.5000;0.4379;-0.0396;
709.8000;0.4371;-0.0446;
710.1000;0.4404;-0.0371;
710.4000;0.4379;-0.0347;
710.7000;0.4371;-0.0446;
711.0000;0.4396;-0.0272;
711.3000;0.4396;-0.0322;
711.6000;0.4379;-0.0297;
711.9000;0.4387;-0.0297;
712.2000;0.4363;-0.0421;
712.5000;0.4379;-0.0322;
712.8000;0.4379;-0.0396;
713.1000;0.4379;-0.0371;
713.4000;0.4355;-0.0520;
713.7000;0.4379;-0.0470;
714.0000;0.4371;-0.0495;
714.3000;0.4379;-0.0446;
714.6000;0.4363;-0.0470;
714.9000;0.4363;-0.0470;
715.2000;0.4396;-0.0421;
715.5000;0.4371;-0.0470;
715.8000;0.4355;-0.0520;
716.1000;0.4379;-0.0545;
716.4000;0.4379;-0.0470;
716.7000;0.4371;-0.0520;
717.0000;0.4355;-0.0545;
717.3000;0.4379;-0.0470;
717.6000;0.4363;-0.0470;
717.9000;0.4371;-0.0470;
718.2000;0.4355;-0.0545;
718.5000;0.4355;-0.0570;
718.8000;0.4379;-0.0570;
719.1000;0.4387;-0.0570;
719.4000;0.4371;-0.0644;
719.7000;0.4347;-0.0693;
720.0000;0.4355;-0.0669;
720.3000;0.4371;-0.0693;
720.6000;0.4355;-0.0693;
720.9000;0.4396;-0.0570;
721.2000;0.4314;-0.0817;
721.5000;0.4371;-0.0718;
721.8000;0.4363;-0.0768;
722.1000;0.4330;-0.0817;
722.4000;0.4379;-0.0718;
722.7000;0.4355;-0.0718;
723.0000;0.4355;-0.0743;
723.3000;0.4371;-0.0718;
723.6000;0.4363;-0.0743;
723.9000;0.4387;-0.0669;
724.2000;0.4371;-0.0768;
724.5000;0.4355;-0.0768;
724.8000;0.4379;-0.0743;
725.1000;0.4347;-0.0644;
725.4000;0.4347;-0.0594;
725.7000;0.4355;-0.0470;
726.0000;0.4339;-0.0545;
726.3000;0.4290;-0.0792;
726.6000;0.4363;-0.0570;
726.9000;0.4363;-0.0470;
727.2000;0.4363;-0.0446;
727.5000;0.4347;-0.0495;
727.8000;0.4363;-0.0470;
728.1000;0.4306;-0.0619;
728.4000;0.4371;-0.0347;
728.7000;0.4355;-0.0495;
729.0000;0.4339;-0.0545;
729.3000;0.4347;-0.0520;
729.6000;0.4355;-0.0495;
729.9000;0.4347;-0.0495;
730.2000;0.4412;-0.0371;
730.5000;0.4363;-0.0520;
730.8000;0.4355;-0.0520;
731.1000;0.4355;-0.0570;
731.4000;0.4339;-0.0570;
731.7000;0.4355;-0.0421;
732.0000;0.4339;-0.0520;
732.3000;0.4347;-0.0594;
732.6000;0.4339;-0.0570;
732.9000;0.4330;-0.0594;
733.2000;0.4347;-0.0470;
733.5000;0.4355;-0.0520;
733.8000;0.4330;-0.0644;
734.1000;0.4339;-0.0644;
734.4000;0.4347;-0.0570;
734.7000;0.4347;-0.0594;
735.0000;0.4330;-0.0570;
735.3000;0.4339;-0.0520;
735.6000;0.4274;-0.0743;
735.9000;0.4330;-0.0594;
736.2000;0.4330;-0.0545;
736.5000;0.4330;-0.0570;
736.8000;0.4322;-0.0594;
737.1000;0.4339;-0.0495;
737.4000;0.4298;-0.0520;
737.7000;0.4314;-0.0520;
738.0000;0.4322;-0.0594;
738.3000;0.4306;-0.0619;
738.6000;0.4347;-0.0470;
738.9000;0.4322;-0.0470;
739.2000;0.4339;-0.0446;
739.5000;0.4322;-0.0545;
739.8000;0.4339;-0.0644;
740.1000;0.4322;-0.0718;
740.4000;0.4314;-0.0743;
740.7000;0.4314;-0.0718;
741.0000;0.4298;-0.0743;
741.3000;0.4306;-0.0768;
741.6000;0.4314;-0.0743;
741.9000;0.4322;-0.0669;
742.2000;0.4314;-0.0743;
742.5000;0.4322;-0.0768;
742.8000;0.4314;-0.0867;
743.1000;0.4355;-0.0743;
743.4000;0.4314;-0.0743;
743.7000;0.4298;-0.0768;
744.0000;0.4339;-0.0743;
744.3000;0.4298;-0.0842;
744.6000;0.4298;-0.0842;
744.9000;0.4306;-0.0768;
745.2000;0.4314;-0.0792;
745.5000;0.4322;-0.0743;
745.8000;0.4314;-0.0768;
746.1000;0.4363;-0.0619;
746.4000;0.4314;-0.0669;
746.7000;0.4306;-0.0644;
747.0000;0.4330;-0.0570;
747.3000;0.4339;-0.0669;
747.6000;0.4322;-0.0768;
747.9000;0.4347;-0.0792;
748.2000;0.4330;-0.0842;
748.5000;0.4339;-0.0817;
748.8000;0.4330;-0.0842;
749.1000;0.4314;-0.0842;
749.4000;0.4339;-0.0718;
749.7000;0.4322;-0.0619;
750.0000;0.4306;-0.0594;
750.3000;0.4371;-0.0545;
750.6000;0.4314;-0.0768;
750.9000;0.4314;-0.0743;
751.2000;0.4314;-0.0743;
751.5000;0.4265;-0.0768;
751.8000;0.4330;-0.0743;
752.1000;0.4306;-0.0817;
752.4000;0.4322;-0.0817;
752.7000;0.4330;-0.0842;
753.0000;0.4306;-0.0891;
753.3000;0.4355;-0.0743;
753.6000;0.4314;-0.0867;
753.9000;0.4314;-0.0768;
754.2000;0.4322;-0.0669;
754.5000;0.4322;-0.0669;
754.8000;0.4290;-0.0693;
755.1000;0.4322;-0.0545;
755.4000;0.4314;-0.0470;
755.7000;0.4322;-0.0520;
756.0000;0.4314;-0.0594;
756.3000;0.4314;-0.0718;
756.6000;0.4322;-0.0693;
756.9000;0.4306;-0.0644;
757.2000;0.4322;-0.0669;
757.5000;0.4282;-0.0644;
757.8000;0.4290;-0.0669;
758.1000;0.4298;-0.0644;
758.4000;0.4298;-0.0619;
758.7000;0.4282;-0.0718;
759.0000;0.4306;-0.0644;
759.3000;0.4322;-0.0570;
759.6000;0.4290;-0.0693;
759.9000;0.4274;-0.0792;
760.2000;0.4233;-0.0817;
760.5000;0.4322;-0.0718;
760.8000;0.4306;-0.0768;
761.1000;0.4314;-0.0792;
761.4000;0.4265;-0.1015;
761.7000;0.4298;-0.0792;
762.0000;0.4322;-0.0718;
762.3000;0.4306;-0.0792;
762.6000;0.4298;-0.0867;
762.9000;0.4306;-0.0817;
763.2000;0.4290;-0.0792;
763.5000;0.4298;-0.0693;
763.8000;0.4290;-0.0718;
764.1000;0.4306;-0.0619;
764.4000;0.4298;-0.0570;
764.7000;0.4306;-0.0495;
765.0000;0.4314;-0.0470;
765.3000;0.4306;-0.0520;
765.6000;0.4314;-0.0520;
765.9000;0.4314;-0.0520;
766.2000;0.4306;-0.0495;
766.5000;0.4306;-0.0545;
766.8000;0.4298;-0.0470;
767.1000;0.4322;-0.0446;
767.4000;0.4322;-0.0371;
767.7000;0.4306;-0.0396;
768.0000;0.4274;-0.0495;
768.3000;0.4290;-0.0545;
768.6000;0.4306;-0.0594;
768.9000;0.4314;-0.0594;
769.2000;0.4306;-0.0594;
769.5000;0.4290;-0.0619;
769.8000;0.4282;-0.0594;
770.1000;0.4339;-0.0446;
770.4000;0.4257;-0.0619;
770.7000;0.4290;-0.0570;
771.0000;0.4298;-0.0520;
771.3000;0.4290;-0.0619;
771.6000;0.4298;-0.0644;
771.9000;0.4241;-0.0718;
772.2000;0.4274;-0.0669;
772.5000;0.4274;-0.0718;
772.8000;0.4274;-0.0768;
773.1000;0.4298;-0.0743;
773.4000;0.4298;-0.0817;
773.7000;0.4265;-0.0817;
774.0000;0.4282;-0.0743;
774.3000;0.4314;-0.0669;
774.6000;0.4314;-0.0718;
774.9000;0.4330;-0.0594;
775.2000;0.4282;-0.0743;
775.5000;0.4282;-0.0792;
775.8000;0.4290;-0.0743;
776.1000;0.4290;-0.0718;
776.4000;0.4290;-0.0669;
776.7000;0.4282;-0.0693;
777.0000;0.4274;-0.0693;
777.3000;0.4306;-0.0570;
777.6000;0.4274;-0.0570;
777.9000;0.4274;-0.0545;
778.2000;0.4282;-0.0594;
778.5000;0.4298;-0.0570;
778.8000;0.4298;-0.0594;
779.1000;0.4265;-0.0644;
779.4000;0.4290;-0.0594;
779.7000;0.4257;-0.0644;
780.0000;0.4290;-0.0570;
780.3000;0.4274;-0.0669;
780.6000;0.4257;-0.0768;
780.9000;0.4282;-0.0792;
781.2000;0.4282;-0.0842;
781.5000;0.4298;-0.0817;
781.8000;0.4184;-0.1040;
782.1000;0.4282;-0.0817;
782.4000;0.4290;-0.0768;
782.7000;0.4282;-0.0842;
783.0000;0.4265;-0.0792;
783.3000;0.4306;-0.0768;
783.6000;0.4339;-0.0644;
783.9000;0.4282;-0.0693;
784.2000;0.4290;-0.0619;
784.5000;0.4282;-0.0644;
784.8000;0.4274;-0.0669;
785.1000;0.4274;-0.0693;
785.4000;0.4249;-0.0817;
785.7000;0.4274;-0.0891;
786.0000;0.4314;-0.0792;
786.3000;0.4298;-0.0718;
786.6000;0.4274;-0.0743;
786.9000;0.4274;-0.0792;
787.2000;0.4265;-0.0768;
787.5000;0.4290;-0.0669;
787.8000;0.4306;-0.0669;
788.1000;0.4274;-0.0718;
788.4000;0.4265;-0.0693;
788.7000;0.4274;-0.0718;
789.0000;0.4257;-0.0669;
789.3000;0.4265;-0.0743;
789.6000;0.4257;-0.0743;
789.9000;0.4257;-0.0817;
790.2000;0.4282;-0.0817;
790.5000;0.4265;-0.0768;
790.8000;0.4274;-0.0792;
791.1000;0.4265;-0.0792;
791.4000;0.4257;-0.0768;
791.7000;0.4265;-0.0768;
792.0000;0.4339;-0.0594;
792.3000;0.4274;-0.0619;
792.6000;0.4290;-0.0520;
792.9000;0.4274;-0.0495;
793.2000;0.4290;-0.0520;
793.5000;0.4274;-0.0545;
793.8000;0.4282;-0.0594;
794.1000;0.4282;-0.0718;
794.4000;0.4265;-0.0743;
794.7000;0.4282;-0.0743;
795.0000;0.4282;-0.0743;
795.3000;0.4265;-0.0743;
795.6000;0.4306;-0.0594;
795.9000;0.4241;-0.0594;
796.2000;0.4249;-0.0570;
796.5000;0.4257;-0.0570;
796.8000;0.4265;-0.0644;
797.1000;0.4282;-0.0693;
797.4000;0.4257;-0.0743;
797.7000;0.4192;-0.0966;
798.0000;0.4257;-0.0743;
798.3000;0.4265;-0.0792;
798.6000;0.4265;-0.0792;
798.9000;0.4265;-0.0743;
799.2000;0.4274;-0.0669;
799.5000;0.4249;-0.0718;
799.8000;0.4249;-0.0669;
800.1000;0.4347;-0.0396;
800.4000;0.4241;-0.0644;
800.7000;0.4265;-0.0619;
801.0000;0.4257;-0.0693;
801.3000;0.4225;-0.0718;
801.6000;0.4257;-0.0743;
801.9000;0.4257;-0.0669;
802.2000;0.4233;-0.0718;
802.5000;0.4249;-0.0718;
802.8000;0.4298;-0.0570;
803.1000;0.4265;-0.0619;
803.4000;0.4282;-0.0470;
803.7000;0.4257;-0.0495;
804.0000;0.4225;-0.0545;
804.3000;0.4265;-0.0396;
804.6000;0.4225;-0.0570;
804.9000;0.4306;-0.0446;
805.2000;0.4257;-0.0619;
805.5000;0.4274;-0.0570;
805.8000;0.4282;-0.0545;
806.1000;0.4274;-0.0570;
806.4000;0.4249;-0.0693;
806.7000;0.4257;-0.0718;
807.0000;0.4257;-0.0669;
807.3000;0.4225;-0.0768;
807.6000;0.4233;-0.0718;
807.9000;0.4241;-0.0693;
808.2000;0.4265;-0.0594;
808.5000;0.4265;-0.0594;
808.8000;0.4265;-0.0718;
809.1000;0.4241;-0.0669;
809.4000;0.4257;-0.0693;
809.7000;0.4249;-0.0669;
810.0000;0.4249;-0.0619;
810.3000;0.4257;-0.0545;
810.6000;0.4257;-0.0520;
810.9000;0.4306;-0.0396;
811.2000;0.4274;-0.0421;
811.5000;0.4241;-0.0396;
811.8000;0.4249;-0.0322;
812.1000;0.4225;-0.0272;
812.4000;0.4249;-0.0322;
812.7000;0.4233;-0.0347;
813.0000;0.4233;-0.0421;
813.3000;0.4249;-0.0446;
813.6000;0.4249;-0.0446;
813.9000;0.4249;-0.0446;
814.2000;0.4200;-0.0545;
814.5000;0.4233;-0.0421;
814.8000;0.4265;-0.0371;
815.1000;0.4200;-0.0594;
815.4000;0.4249;-0.0470;
815.7000;0.4241;-0.0495;
816.0000;0.4298;-0.0396;
816.3000;0.4241;-0.0495;
816.6000;0.4225;-0.0594;
816.9000;0.4192;-0.0594;
817.2000;0.4241;-0.0495;
817.5000;0.4241;-0.0570;
817.8000;0.4265;-0.0495;
818.1000;0.4241;-0.0594;
818.4000;0.4257;-0.0594;
818.7000;0.4257;-0.0644;
819.0000;0.4233;-0.0619;
819.3000;0.4241;-0.0619;
819.6000;0.4257;-0.0594;
819.9000;0.4257;-0.0570;
820.2000;0.4249;-0.0594;
820.5000;0.4233;-0.0669;
820.8000;0.4290;-0.0619;
821.1000;0.4249;-0.0693;
821.4000;0.4241;-0.0594;
821.7000;0.4217;-0.0545;
822.0000;0.4233;-0.0470;
822.3000;0.4249;-0.0421;
822.6000;0.4249;-0.0446;
822.9000;0.4249;-0.0495;
823.2000;0.4233;-0.0545;
823.5000;0.4217;-0.0545;
823.8000;0.4192;-0.0619;
824.1000;0.4241;-0.0570;
824.4000;0.4233;-0.0495;
824.7000;0.4241;-0.0545;
825.0000;0.4241;-0.0594;
825.3000;0.4249;-0.0545;
825.6000;0.4249;-0.0495;
825.9000;0.4184;-0.0619;
826.2000;0.4233;-0.0495;
826.5000;0.4249;-0.0495;
826.8000;0.4233;-0.0495;
827.1000;0.4225;-0.0495;
827.4000;0.4225;-0.0545;
827.7000;0.4225;-0.0570;
828.0000;0.4233;-0.0520;
828.3000;0.4225;-0.0594;
828.6000;0.4225;-0.0520;
828.9000;0.4241;-0.0446;
829.2000;0.4233;-0.0520;
829.5000;0.4217;-0.0594;
829.8000;0.4217;-0.0594;
830.1000;0.4225;-0.0520;
830.4000;0.4225;-0.0619;
830.7000;0.4249;-0.0644;
831.0000;0.4233;-0.0693;
831.3000;0.4241;-0.0594;
831.6000;0.4225;-0.0743;
831.9000;0.4322;-0.0396;
832.2000;0.4249;-0.0594;
832.5000;0.4241;-0.0495;
832.8000;0.4233;-0.0446;
833.1000;0.4225;-0.0470;
833.4000;0.4217;-0.0545;
833.7000;0.4208;-0.0545;
834.0000;0.4208;-0.0495;
834.3000;0.4225;-0.0421;
834.6000;0.4241;-0.0396;
834.9000;0.4225;-0.0470;
835.2000;0.4208;-0.0520;
835.5000;0.4225;-0.0545;
835.8000;0.4249;-0.0470;
836.1000;0.4184;-0.0669;
836.4000;0.4241;-0.0545;
836.7000;0.4217;-0.0570;
837.0000;0.4233;-0.0495;
837.3000;0.4217;-0.0495;
837.6000;0.4217;-0.0520;
837.9000;0.4225;-0.0421;
838.2000;0.4184;-0.0520;
838.5000;0.4217;-0.0495;
838.8000;0.4233;-0.0520;
839.1000;0.4298;-0.0446;
839.4000;0.4208;-0.0570;
839.7000;0.4233;-0.0495;
840.0000;0.4208;-0.0644;
840.3000;0.4217;-0.0619;
840.6000;0.4233;-0.0619;
840.9000;0.4233;-0.0570;
841.2000;0.4249;-0.0545;
841.5000;0.4217;-0.0594;
841.8000;0.4233;-0.0594;
842.1000;0.4225;-0.0545;
842.4000;0.4225;-0.0495;
842.7000;0.4208;-0.0470;
843.0000;0.4208;-0.0421;
843.3000;0.4249;-0.0396;
843.6000;0.4225;-0.0421;
843.9000;0.4208;-0.0470;
844.2000;0.4208;-0.0470;
844.5000;0.4257;-0.0396;
844.8000;0.4200;-0.0520;
845.1000;0.4200;-0.0495;
845.4000;0.4184;-0.0594;
845.7000;0.4208;-0.0520;
846.0000;0.4217;-0.0446;
846.3000;0.4160;-0.0545;
846.6000;0.4208;-0.0446;
846.9000;0.4233;-0.0446;
847.2000;0.4241;-0.0421;
847.5000;0.4217;-0.0470;
847.8000;0.4225;-0.0520;
848.1000;0.4217;-0.0495;
848.4000;0.4200;-0.0470;
848.7000;0.4225;-0.0396;
849.0000;0.4233;-0.0396;
849.3000;0.4225;-0.0570;
849.6000;0.4233;-0.0520;
849.9000;0.4233;-0.0495;
850.2000;0.4208;-0.0520;
850.5000;0.4200;-0.0495;
850.8000;0.4225;-0.0446;
851.1000;0.4217;-0.0495;
851.4000;0.4225;-0.0495;
851.7000;0.4200;-0.0545;
852.0000;0.4217;-0.0545;
852.3000;0.4217;-0.0371;
852.6000;0.4217;-0.0347;
852.9000;0.4217;-0.0347;
853.2000;0.4225;-0.0371;
853.5000;0.4200;-0.0470;
853.8000;0.4192;-0.0470;
854.1000;0.4208;-0.0446;
854.4000;0.4217;-0.0470;
854.7000;0.4225;-0.0446;
855.0000;0.4217;-0.0396;
855.3000;0.4200;-0.0446;
855.6000;0.4208;-0.0520;
855.9000;0.4176;-0.0619;
856.2000;0.4208;-0.0470;
856.5000;0.4192;-0.0495;
856.8000;0.4192;-0.0470;
857.1000;0.4192;-0.0495;
857.4000;0.4208;-0.0470;
857.7000;0.4192;-0.0520;
858.0000;0.4184;-0.0520;
858.3000;0.4217;-0.0421;
858.6000;0.4208;-0.0396;
858.9000;0.4184;-0.0371;
859.2000;0.4200;-0.0347;
859.5000;0.4192;-0.0446;
859.8000;0.4217;-0.0347;
860.1000;0.4208;-0.0396;
860.4000;0.4217;-0.0396;
860.7000;0.4192;-0.0520;
861.0000;0.4208;-0.0470;
861.3000;0.4217;-0.0470;
861.6000;0.4208;-0.0495;
861.9000;0.4192;-0.0495;
862.2000;0.4184;-0.0495;
862.5000;0.4192;-0.0520;
862.8000;0.4208;-0.0520;
863.1000;0.4200;-0.0470;
863.4000;0.4192;-0.0421;
863.7000;0.4200;-0.0297;
864.0000;0.4282;-0.0050;
864.3000;0.4225;-0.0223;
864.6000;0.4192;-0.0272;
864.9000;0.4192;-0.0223;
865.2000;0.4200;-0.0223;
865.5000;0.4200;-0.0248;
865.8000;0.4208;-0.0272;
866.1000;0.4192;-0.0347;
866.4000;0.4225;-0.0248;
866.7000;0.4208;-0.0297;
867.0000;0.4184;-0.0421;
867.3000;0.4200;-0.0371;
867.6000;0.4184;-0.0371;
867.9000;0.4200;-0.0297;
868.2000;0.4200;-0.0297;
868.5000;0.4192;-0.0396;
868.8000;0.4160;-0.0396;
869.1000;0.4176;-0.0347;
869.4000;0.4208;-0.0371;
869.7000;0.4282;-0.0099;
870.0000;0.4184;-0.0421;
870.3000;0.4200;-0.0371;
870.6000;0.4217;-0.0347;
870.9000;0.4200;-0.0396;
871.2000;0.4200;-0.0421;
871.5000;0.4208;-0.0371;
871.8000;0.4192;-0.0495;
872.1000;0.4217;-0.0495;
872.4000;0.4217;-0.0594;
872.7000;0.4192;-0.0693;
873.0000;0.4225;-0.0520;
873.3000;0.4176;-0.0619;
873.6000;0.4225;-0.0495;
873.9000;0.4184;-0.0594;
874.2000;0.4184;-0.0570;
874.5000;0.4184;-0.0545;
874.8000;0.4176;-0.0545;
875.1000;0.4192;-0.0495;
875.4000;0.4143;-0.0594;
875.7000;0.4192;-0.0421;
876.0000;0.4192;-0.0396;
876.3000;0.4217;-0.0322;
876.6000;0.4127;-0.0421;
876.9000;0.4184;-0.0322;
877.2000;0.4176;-0.0322;
877.5000;0.4160;-0.0322;
877.8000;0.4200;-0.0347;
878.1000;0.4184;-0.0495;
878.4000;0.4168;-0.0619;
878.7000;0.4184;-0.0644;
879.0000;0.4176;-0.0693;
879.3000;0.4184;-0.0693;
879.6000;0.4208;-0.0693;
879.9000;0.4184;-0.0718;
880.2000;0.4184;-0.0619;
880.5000;0.4184;-0.0520;
880.8000;0.4184;-0.0421;
881.1000;0.4241;-0.0371;
881.4000;0.4143;-0.0520;
881.7000;0.4168;-0.0322;
882.0000;0.4200;-0.0272;
882.3000;0.4192;-0.0322;
882.6000;0.4184;-0.0371;
882.9000;0.4151;-0.0495;
883.2000;0.4200;-0.0396;
883.5000;0.4200;-0.0396;
883.8000;0.4192;-0.0446;
884.1000;0.4217;-0.0347;
884.4000;0.4192;-0.0371;
884.7000;0.4192;-0.0396;
885.0000;0.4241;-0.0347;
885.3000;0.4184;-0.0495;
885.6000;0.4176;-0.0644;
885.9000;0.4184;-0.0594;
886.2000;0.4192;-0.0570;
886.5000;0.4176;-0.0594;
886.8000;0.4168;-0.0570;
887.1000;0.4184;-0.0545;
887.4000;0.4168;-0.0520;
887.7000;0.4168;-0.0421;
888.0000;0.4160;-0.0421;
888.3000;0.4184;-0.0396;
888.6000;0.4176;-0.0421;
888.9000;0.4160;-0.0446;
889.2000;0.4200;-0.0421;
889.5000;0.4160;-0.0446;
889.8000;0.4184;-0.0421;
890.1000;0.4160;-0.0470;
890.4000;0.4176;-0.0421;
890.7000;0.4168;-0.0520;
891.0000;0.4168;-0.0545;
891.3000;0.4184;-0.0446;
891.6000;0.4176;-0.0520;
891.9000;0.4160;-0.0495;
892.2000;0.4192;-0.0446;
892.5000;0.4151;-0.0495;
892.8000;0.4168;-0.0570;
893.1000;0.4200;-0.0644;
893.4000;0.4192;-0.0594;
893.7000;0.4176;-0.0619;
894.0000;0.4168;-0.0669;
894.3000;0.4200;-0.0669;
894.6000;0.4160;-0.0891;
894.9000;0.4233;-0.0644;
895.2000;0.4176;-0.0842;
895.5000;0.4143;-0.0941;
895.8000;0.4135;-0.0991;
896.1000;0.4160;-0.0891;
896.4000;0.4168;-0.0817;
896.7000;0.4168;-0.0743;
897.0000;0.4160;-0.0743;
897.3000;0.4176;-0.0718;
897.6000;0.4151;-0.0718;
897.9000;0.4176;-0.0644;
898.2000;0.4151;-0.0743;
898.5000;0.4176;-0.0693;
898.8000;0.4192;-0.0619;
899.1000;0.4184;-0.0619;
899.4000;0.4127;-0.0718;
899.7000;0.4103;-0.0891;
900.0000;0.4151;-0.0693;
900.3000;0.4160;-0.0644;
900.6000;0.4143;-0.0644;
900.9000;0.4160;-0.0669;
901.2000;0.4168;-0.0693;
901.5000;0.4151;-0.0718;
901.8000;0.4160;-0.0768;
902.1000;0.4176;-0.0817;
902.4000;0.4168;-0.0792;
902.7000;0.4151;-0.0792;
903.0000;0.4160;-0.0693;
903.3000;0.4160;-0.0619;
903.6000;0.4143;-0.0570;
903.9000;0.4111;-0.0743;
904.2000;0.4184;-0.0669;
904.5000;0.4176;-0.0743;
904.8000;0.4168;-0.0743;
905.1000;0.4176;-0.0693;
905.4000;0.4168;-0.0693;
905.7000;0.4168;-0.0644;
906.0000;0.4127;-0.0693;
906.3000;0.4160;-0.0644;
906.6000;0.4168;-0.0693;
906.9000;0.4168;-0.0619;
907.2000;0.4135;-0.0644;
907.5000;0.4151;-0.0594;
907.8000;0.4160;-0.0594;
908.1000;0.4094;-0.0718;
908.4000;0.4160;-0.0594;
908.7000;0.4184;-0.0545;
909.0000;0.4176;-0.0594;
909.3000;0.4160;-0.0669;
909.6000;0.4160;-0.0644;
909.9000;0.4143;-0.0669;
910.2000;0.4062;-0.0842;
910.5000;0.4160;-0.0570;
910.8000;0.4176;-0.0520;
911.1000;0.4143;-0.0594;
911.4000;0.4127;-0.0669;
911.7000;0.4160;-0.0718;
912.0000;0.4160;-0.0768;
912.3000;0.4151;-0.0743;
912.6000;0.4168;-0.0644;
912.9000;0.4168;-0.0669;
913.2000;0.4160;-0.0693;
913.5000;0.4160;-0.0644;
913.8000;0.4168;-0.0619;
914.1000;0.4168;-0.0619;
914.4000;0.4160;-0.0619;
914.7000;0.4160;-0.0669;
915.0000;0.4176;-0.0594;
915.3000;0.4200;-0.0495;
915.6000;0.4135;-0.0693;
915.9000;0.4135;-0.0669;
916.2000;0.4070;-0.0867;
916.5000;0.4054;-0.0891;
916.8000;0.4143;-0.0619;
917.1000;0.4168;-0.0495;
917.4000;0.4143;-0.0470;
917.7000;0.4135;-0.0446;
918.0000;0.4151;-0.0446;
918.3000;0.4151;-0.0371;
918.6000;0.4160;-0.0396;
918.9000;0.4119;-0.0470;
919.2000;0.4135;-0.0322;
919.5000;0.4119;-0.0470;
919.8000;0.4143;-0.0396;
920.1000;0.4151;-0.0470;
920.4000;0.4151;-0.0470;
920.7000;0.4184;-0.0446;
921.0000;0.4151;-0.0470;
921.3000;0.4168;-0.0470;
921.6000;0.4119;-0.0619;
921.9000;0.4151;-0.0421;
922.2000;0.4151;-0.0396;
922.5000;0.4135;-0.0495;
922.8000;0.4168;-0.0446;
923.1000;0.4143;-0.0545;
923.4000;0.4151;-0.0520;
923.7000;0.4143;-0.0470;
924.0000;0.4111;-0.0495;
924.3000;0.4151;-0.0470;
924.6000;0.4143;-0.0446;
924.9000;0.4119;-0.0470;
925.2000;0.4119;-0.0421;
925.5000;0.4127;-0.0446;
925.8000;0.4135;-0.0421;
926.1000;0.4151;-0.0371;
926.4000;0.4151;-0.0421;
926.7000;0.4127;-0.0495;
927.0000;0.4119;-0.0495;
927.3000;0.4111;-0.0470;
927.6000;0.4127;-0.0446;
927.9000;0.4119;-0.0545;
928.2000;0.4119;-0.0545;
928.5000;0.4127;-0.0446;
928.8000;0.4127;-0.0470;
929.1000;0.4127;-0.0446;
929.4000;0.4151;-0.0396;
929.7000;0.4127;-0.0470;
930.0000;0.4135;-0.0495;
930.3000;0.4151;-0.0495;
930.6000;0.4151;-0.0520;
930.9000;0.4143;-0.0470;
931.2000;0.4086;-0.0619;
931.5000;0.4176;-0.0322;
931.8000;0.4135;-0.0371;
932.1000;0.4135;-0.0421;
932.4000;0.4143;-0.0495;
932.7000;0.4151;-0.0570;
933.0000;0.4127;-0.0619;
933.3000;0.4135;-0.0594;
933.6000;0.4143;-0.0495;
933.9000;0.4160;-0.0371;
934.2000;0.4127;-0.0421;
934.5000;0.4143;-0.0371;
934.8000;0.4135;-0.0371;
935.1000;0.4135;-0.0347;
935.4000;0.4111;-0.0470;
935.7000;0.4135;-0.0421;
936.0000;0.4151;-0.0495;
936.3000;0.4135;-0.0520;
936.6000;0.4127;-0.0470;
936.9000;0.4119;-0.0446;
937.2000;0.4127;-0.0421;
937.5000;0.4135;-0.0421;
937.8000;0.4135;-0.0446;
938.1000;0.4160;-0.0470;
938.4000;0.4103;-0.0619;
938.7000;0.4135;-0.0520;
939.0000;0.4127;-0.0520;
939.3000;0.4160;-0.0371;
939.6000;0.4143;-0.0322;
939.9000;0.4135;-0.0248;
940.2000;0.4111;-0.0347;
940.5000;0.4135;-0.0297;
940.8000;0.4127;-0.0371;
941.1000;0.4192;-0.0173;
941.4000;0.4135;-0.0322;
941.7000;0.4127;-0.0371;
942.0000;0.4127;-0.0421;
942.3000;0.4119;-0.0470;
942.6000;0.4111;-0.0421;
942.9000;0.4151;-0.0272;
943.2000;0.4127;-0.0396;
943.5000;0.4086;-0.0570;
943.8000;0.4070;-0.0570;
944.1000;0.4119;-0.0347;
944.4000;0.4127;-0.0421;
944.7000;0.4111;-0.0470;
945.0000;0.4135;-0.0470;
945.3000;0.4184;-0.0371;
945.6000;0.4111;-0.0495;
945.9000;0.4119;-0.0421;
946.2000;0.4119;-0.0520;
946.5000;0.4111;-0.0495;
946.8000;0.4127;-0.0421;
947.1000;0.4119;-0.0322;
947.4000;0.4127;-0.0223;
947.7000;0.4127;-0.0272;
948.0000;0.4119;-0.0446;
948.3000;0.4127;-0.0470;
948.6000;0.4054;-0.0693;
948.9000;0.4119;-0.0520;
949.2000;0.4103;-0.0545;
949.5000;0.4086;-0.0594;
949.8000;0.4111;-0.0446;
950.1000;0.4111;-0.0396;
950.4000;0.4119;-0.0347;
950.7000;0.4119;-0.0297;
951.0000;0.4119;-0.0347;
951.3000;0.4103;-0.0421;
951.6000;0.4119;-0.0446;
951.9000;0.4111;-0.0446;
952.2000;0.4119;-0.0470;
952.5000;0.4119;-0.0446;
952.8000;0.4086;-0.0520;
953.1000;0.4127;-0.0470;
953.4000;0.4192;-0.0322;
953.7000;0.4127;-0.0446;
954.0000;0.4103;-0.0520;
954.3000;0.4094;-0.0619;
954.6000;0.4127;-0.0619;
954.9000;0.4094;-0.0669;
955.2000;0.4103;-0.0669;
955.5000;0.4111;-0.0619;
955.8000;0.4127;-0.0570;
956.1000;0.4111;-0.0594;
956.4000;0.4127;-0.0619;
956.7000;0.4111;-0.0594;
957.0000;0.4119;-0.0594;
957.3000;0.4111;-0.0669;
957.6000;0.4127;-0.0570;
957.9000;0.4103;-0.0545;
958.2000;0.4111;-0.0570;
958.5000;0.4119;-0.0619;
958.8000;0.4119;-0.0594;
959.1000;0.4143;-0.0446;
959.4000;0.4094;-0.0619;
959.7000;0.4086;-0.0669;
960.0000;0.4094;-0.0669;
960.3000;0.4111;-0.0594;
960.6000;0.4094;-0.0520;
960.9000;0.4103;-0.0347;
961.2000;0.4111;-0.0322;
961.5000;0.4086;-0.0347;
961.8000;0.4111;-0.0297;
962.1000;0.4103;-0.0223;
962.4000;0.4160;-0.0074;
962.7000;0.4103;-0.0198;
963.0000;0.4103;-0.0272;
963.3000;0.4111;-0.0347;
963.6000;0.4127;-0.0347;
963.9000;0.4094;-0.0470;
964.2000;0.4103;-0.0371;
964.5000;0.4103;-0.0347;
964.8000;0.4127;-0.0198;
965.1000;0.4094;-0.0173;
965.4000;0.4111;-0.0198;
965.7000;0.4103;-0.0173;
966.0000;0.4062;-0.0396;
966.3000;0.4127;-0.0198;
966.6000;0.4103;-0.0347;
966.9000;0.4037;-0.0570;
967.2000;0.4094;-0.0396;
967.5000;0.4103;-0.0421;
967.8000;0.4103;-0.0495;
968.1000;0.4103;-0.0545;
968.4000;0.4070;-0.0669;
968.7000;0.4111;-0.0594;
969.0000;0.4103;-0.0520;
969.3000;0.4103;-0.0570;
969.6000;0.4094;-0.0594;
969.9000;0.4103;-0.0594;
970.2000;0.4062;-0.0718;
970.5000;0.4078;-0.0594;
970.8000;0.4078;-0.0520;
971.1000;0.4078;-0.0421;
971.4000;0.4086;-0.0421;
971.7000;0.4094;-0.0421;
972.0000;0.4103;-0.0347;
972.3000;0.4127;-0.0272;
972.6000;0.4094;-0.0446;
972.9000;0.4111;-0.0421;
973.2000;0.4103;-0.0495;
973.5000;0.4094;-0.0520;
973.8000;0.4111;-0.0495;
974.1000;0.4119;-0.0520;
974.4000;0.4103;-0.0520;
974.7000;0.4103;-0.0545;
975.0000;0.4086;-0.0594;
975.3000;0.4111;-0.0545;
975.6000;0.4103;-0.0545;
975.9000;0.4062;-0.0619;
976.2000;0.4103;-0.0495;
976.5000;0.4086;-0.0520;
976.8000;0.4103;-0.0570;
977.1000;0.4103;-0.0594;
977.4000;0.4160;-0.0446;
977.7000;0.4143;-0.0446;
978.0000;0.4086;-0.0470;
978.3000;0.4094;-0.0495;
978.6000;0.4111;-0.0495;
978.9000;0.4119;-0.0495;
979.2000;0.4094;-0.0594;
979.5000;0.4103;-0.0570;
979.8000;0.4103;-0.0570;
980.1000;0.4094;-0.0520;
980.4000;0.4094;-0.0545;
980.7000;0.4094;-0.0470;
981.0000;0.4086;-0.0495;
981.3000;0.4103;-0.0545;
981.6000;0.4103;-0.0594;
981.9000;0.4054;-0.0619;
982.2000;0.4078;-0.0545;
982.5000;0.4103;-0.0520;
982.8000;0.4070;-0.0470;
983.1000;0.4046;-0.0446;
983.4000;0.4078;-0.0371;
983.7000;0.4094;-0.0322;
984.0000;0.4078;-0.0347;
984.3000;0.4078;-0.0322;
984.6000;0.4078;-0.0347;
984.9000;0.4078;-0.0421;
985.2000;0.4086;-0.0371;
985.5000;0.4094;-0.0470;
985.8000;0.4086;-0.0470;
986.1000;0.4046;-0.0570;
986.4000;0.4111;-0.0347;
986.7000;0.4078;-0.0421;
987.0000;0.4094;-0.0272;
987.3000;0.3989;-0.0644;
987.6000;0.4078;-0.0495;
987.9000;0.4103;-0.0371;
988.2000;0.4013;-0.0520;
988.5000;0.4070;-0.0371;
988.8000;0.4070;-0.0421;
989.1000;0.4054;-0.0446;
989.4000;0.4151;-0.0099;
989.7000;0.4078;-0.0322;
990.0000;0.4086;-0.0272;
990.3000;0.4070;-0.0297;
990.6000;0.4086;-0.0272;
990.9000;0.4086;-0.0248;
991.2000;0.4094;-0.0297;
991.5000;0.4070;-0.0421;
991.8000;0.4070;-0.0371;
992.1000;0.4086;-0.0371;
992.4000;0.4037;-0.0570;
992.7000;0.4070;-0.0470;
993.0000;0.4037;-0.0520;
993.3000;0.4070;-0.0322;
993.6000;0.4078;-0.0421;
993.9000;0.4078;-0.0347;
994.2000;0.4070;-0.0347;
994.5000;0.4070;-0.0371;
994.8000;0.4062;-0.0371;
995.1000;0.4070;-0.0322;
995.4000;0.4037;-0.0371;
995.7000;0.4094;-0.0347;
996.0000;0.4078;-0.0371;
996.3000;0.4078;-0.0322;
996.6000;0.4078;-0.0347;
996.9000;0.4078;-0.0272;
997.2000;0.4111;-0.0198;
997.5000;0.4078;-0.0272;
997.8000;0.4078;-0.0248;
998.1000;0.4070;-0.0223;
998.4000;0.4070;-0.0149;
998.7000;0.4078;-0.0223;
999.0000;0.4070;-0.0297;
999.3000;0.4070;-0.0248;
999.6000;0.4054;-0.0396;
999.9000;0.4029;-0.0421;
1000.2000;0.4062;-0.0495;
1000.5000;0.4078;-0.0421;
1000.8000;0.4062;-0.0396;
1001.1000;0.4054;-0.0421;
1001.4000;0.4078;-0.0322;
1001.7000;0.4070;-0.0396;
1002.0000;0.4046;-0.0520;
1002.3000;0.4062;-0.0470;
1002.6000;0.4103;-0.0371;
1002.9000;0.4078;-0.0371;
1003.2000;0.4046;-0.0371;
1003.5000;0.4062;-0.0322;
1003.8000;0.4054;-0.0272;
1004.1000;0.4103;-0.0198;
1004.4000;0.4062;-0.0347;
1004.7000;0.4046;-0.0297;
1005.0000;0.4103;-0.0248;
1005.3000;0.4062;-0.0322;
1005.6000;0.4054;-0.0272;
1005.9000;0.4054;-0.0272;
1006.2000;0.4078;-0.0371;
1006.5000;0.4070;-0.0495;
1006.8000;0.4054;-0.0347;
1007.1000;0.4046;-0.0421;
1007.4000;0.4078;-0.0396;
1007.7000;0.4086;-0.0421;
1008.0000;0.4111;-0.0322;
1008.3000;0.3989;-0.0644;
1008.6000;0.4054;-0.0421;
1008.9000;0.4086;-0.0248;
1009.2000;0.4062;-0.0272;
1009.5000;0.4070;-0.0248;
1009.8000;0.4054;-0.0322;
1010.1000;0.4151;-0.0173;
1010.4000;0.4070;-0.0396;
1010.7000;0.4070;-0.0223;
1011.0000;0.4062;-0.0347;
1011.3000;0.4029;-0.0446;
1011.6000;0.4005;-0.0470;
1011.9000;0.4086;-0.0198;
1012.2000;0.4037;-0.0297;
1012.5000;0.4070;-0.0322;
1012.8000;0.4078;-0.0297;
1013.1000;0.4086;-0.0371;
1013.4000;0.4013;-0.0545;
1013.7000;0.4094;-0.0446;
1014.0000;0.4070;-0.0545;
1014.3000;0.4046;-0.0669;
1014.6000;0.4070;-0.0495;
1014.9000;0.4078;-0.0446;
1015.2000;0.4054;-0.0470;
1015.5000;0.4062;-0.0470;
1015.8000;0.4062;-0.0421;
1016.1000;0.4070;-0.0446;
1016.4000;0.4103;-0.0421;
1016.7000;0.4062;-0.0570;
1017.0000;0.4062;-0.0619;
1017.3000;0.4070;-0.0718;
1017.6000;0.4103;-0.0619;
1017.9000;0.4070;-0.0570;
1018.2000;0.4078;-0.0545;
1018.5000;0.4062;-0.0545;
1018.8000;0.4054;-0.0520;
1019.1000;0.4062;-0.0446;
1019.4000;0.4054;-0.0470;
1019.7000;0.4054;-0.0446;
1020.0000;0.4062;-0.0421;
1020.3000;0.4054;-0.0421;
1020.6000;0.4054;-0.0421;
1020.9000;0.4078;-0.0347;
1021.2000;0.4046;-0.0396;
1021.5000;0.4062;-0.0322;
1021.8000;0.4062;-0.0347;
1022.1000;0.4070;-0.0396;
1022.4000;0.4037;-0.0495;
1022.7000;0.4070;-0.0470;
1023.0000;0.4054;-0.0545;
1023.3000;0.4054;-0.0520;
1023.6000;0.4046;-0.0619;
1023.9000;0.4054;-0.0495;
1024.2000;0.4037;-0.0570;
1024.5000;0.4046;-0.0545;
1024.8000;0.4046;-0.0570;
1025.1000;0.4070;-0.0495;
1025.4000;0.4046;-0.0644;
1025.7000;0.4062;-0.0594;
1026.0000;0.4029;-0.0644;
1026.3000;0.4037;-0.0693;
1026.6000;0.4029;-0.0693;
1026.9000;0.4037;-0.0669;
1027.2000;0.4046;-0.0669;
1027.5000;0.4046;-0.0669;
1027.8000;0.4037;-0.0693;
1028.1000;0.4029;-0.0718;
1028.4000;0.4046;-0.0669;
1028.7000;0.4037;-0.0594;
1029.0000;0.3964;-0.0768;
1029.3000;0.4046;-0.0421;
1029.6000;0.4046;-0.0520;
1029.9000;0.4021;-0.0570;
1030.2000;0.4046;-0.0446;
1030.5000;0.4037;-0.0421;
1030.8000;0.4046;-0.0396;
1031.1000;0.4070;-0.0347;
1031.4000;0.4029;-0.0421;
1031.7000;0.4013;-0.0446;
1032.0000;0.4037;-0.0446;
1032.3000;0.4054;-0.0347;
1032.6000;0.4037;-0.0322;
1032.9000;0.4046;-0.0347;
1033.2000;0.4046;-0.0396;
1033.5000;0.4062;-0.0322;
1033.8000;0.4062;-0.0347;
1034.1000;0.3997;-0.0495;
1034.4000;0.4037;-0.0347;
1034.7000;0.3964;-0.0470;
1035.0000;0.4046;-0.0396;
1035.3000;0.3980;-0.0570;
1035.6000;0.4029;-0.0446;
1035.9000;0.4021;-0.0421;
1036.2000;0.4021;-0.0470;
1036.5000;0.4037;-0.0396;
1036.8000;0.4029;-0.0322;
1037.1000;0.4029;-0.0297;
1037.4000;0.4037;-0.0272;
1037.7000;0.4013;-0.0322;
1038.0000;0.4013;-0.0322;
1038.3000;0.4029;-0.0347;
1038.6000;0.4062;-0.0198;
1038.9000;0.4029;-0.0347;
1039.2000;0.4021;-0.0297;
1039.5000;0.3989;-0.0396;
1039.8000;0.4029;-0.0272;
1040.1000;0.4021;-0.0248;
1040.4000;0.4029;-0.0297;
1040.7000;0.4029;-0.0297;
1041.0000;0.4021;-0.0322;
1041.3000;0.4029;-0.0421;
1041.6000;0.4037;-0.0322;
1041.9000;0.4029;-0.0371;
1042.2000;0.4013;-0.0371;
1042.5000;0.4029;-0.0322;
1042.8000;0.4037;-0.0347;
1043.1000;0.4029;-0.0371;
1043.4000;0.4013;-0.0396;
1043.7000;0.4029;-0.0297;
1044.0000;0.4037;-0.0248;
1044.3000;0.4013;-0.0248;
1044.6000;0.4046;-0.0198;
1044.9000;0.3997;-0.0272;
1045.2000;0.4037;-0.0124;
1045.5000;0.4029;-0.0173;
1045.8000;0.4013;-0.0223;
1046.1000;0.4021;-0.0272;
1046.4000;0.4021;-0.0198;
1046.7000;0.4029;-0.0149;
1047.0000;0.4037;-0.0099;
1047.3000;0.4021;-0.0074;
1047.6000;0.4021;0.0050;
1047.9000;0.4021;-0.0050;
1048.2000;0.4046;-0.0099;
1048.5000;0.4037;-0.0198;
1048.8000;0.4013;-0.0248;
1049.1000;0.3980;-0.0347;
1049.4000;0.4037;-0.0248;
1049.7000;0.4070;-0.0124;
1050.0000;0.4013;-0.0272;
1050.3000;0.4021;-0.0272;
1050.6000;0.4021;-0.0248;
1050.9000;0.4037;-0.0297;
1051.2000;0.4054;-0.0272;
1051.5000;0.4021;-0.0347;
1051.8000;0.4037;-0.0322;
1052.1000;0.4021;-0.0396;
1052.4000;0.4046;-0.0396;
1052.7000;0.4013;-0.0322;
1053.0000;0.4111;-0.0124;
1053.3000;0.4021;-0.0371;
1053.6000;0.4013;-0.0396;
1053.9000;0.4013;-0.0446;
1054.2000;0.4021;-0.0396;
1054.5000;0.4005;-0.0470;
1054.8000;0.4005;-0.0322;
1055.1000;0.4013;-0.0272;
1055.4000;0.4029;-0.0248;
1055.7000;0.4021;-0.0322;
1056.0000;0.4005;-0.0396;
1056.3000;0.3997;-0.0421;
1056.6000;0.4013;-0.0322;
1056.9000;0.4029;-0.0322;
1057.2000;0.4029;-0.0248;
1057.5000;0.4013;-0.0347;
1057.8000;0.4029;-0.0297;
1058.1000;0.4013;-0.0248;
1058.4000;0.4021;-0.0198;
1058.7000;0.3997;-0.0248;
1059.0000;0.4005;-0.0248;
1059.3000;0.4013;-0.0198;
1059.6000;0.4005;-0.0198;
1059.9000;0.4013;-0.0223;
1060.2000;0.3989;-0.0297;
1060.5000;0.3989;-0.0322;
1060.8000;0.3997;-0.0347;
1061.1000;0.4005;-0.0421;
1061.4000;0.4013;-0.0322;
1061.7000;0.4013;-0.0371;
1062.0000;0.4021;-0.0347;
1062.3000;0.4005;-0.0347;
1062.6000;0.3997;-0.0347;
1062.9000;0.4005;-0.0396;
1063.2000;0.4013;-0.0223;
1063.5000;0.4037;-0.0198;
1063.8000;0.4021;-0.0272;
1064.1000;0.4013;-0.0223;
1064.4000;0.3980;-0.0322;
1064.7000;0.4005;-0.0198;
1065.0000;0.4005;-0.0198;
1065.3000;0.3989;-0.0173;
1065.6000;0.4005;-0.0099;
1065.9000;0.4005;-0.0124;
1066.2000;0.4005;-0.0149;
1066.5000;0.3997;-0.0272;
1066.8000;0.4005;-0.0297;
1067.1000;0.4021;-0.0248;
1067.4000;0.4046;-0.0173;
1067.7000;0.4005;-0.0322;
1068.0000;0.4021;-0.0272;
1068.3000;0.3997;-0.0223;
1068.6000;0.4046;-0.0099;
1068.9000;0.4013;-0.0149;
1069.2000;0.3997;-0.0074;
1069.5000;0.3997;0.0000;
1069.8000;0.4021;-0.0025;
1070.1000;0.4005;-0.0074;
1070.4000;0.4013;-0.0099;
1070.7000;0.4005;-0.0074;
1071.0000;0.4021;0.0000;
1071.3000;0.4013;-0.0099;
1071.6000;0.3997;-0.0272;
1071.9000;0.3997;-0.0347;
1072.2000;0.4013;-0.0322;
1072.5000;0.4013;-0.0396;
1072.8000;0.4086;-0.0149;
1073.1000;0.4021;-0.0297;
1073.4000;0.3997;-0.0198;
1073.7000;0.4005;-0.0050;
1074.0000;0.4086;0.0124;
1074.3000;0.4005;-0.0173;
1074.6000;0.4005;-0.0198;
1074.9000;0.4005;-0.0149;
1075.2000;0.4021;-0.0173;
1075.5000;0.3997;-0.0272;
1075.8000;0.4086;0.0050;
1076.1000;0.4021;-0.0198;
1076.4000;0.3989;-0.0272;
1076.7000;0.3997;-0.0297;
1077.0000;0.3989;-0.0223;
1077.3000;0.3989;-0.0297;
1077.6000;0.3997;-0.0223;
1077.9000;0.3997;-0.0297;
1078.2000;0.3980;-0.0297;
1078.5000;0.3972;-0.0272;
1078.8000;0.3964;-0.0322;
1079.1000;0.4005;-0.0173;
1079.4000;0.4013;-0.0149;
1079.7000;0.4013;-0.0173;
1080.0000;0.4005;-0.0025;
1080.3000;0.4013;0.0074;
1080.6000;0.4021;0.0099;
1080.9000;0.4013;0.0198;
1081.2000;0.4013;0.0074;
1081.5000;0.4013;-0.0025;
1081.8000;0.4005;-0.0074;
1082.1000;0.4005;-0.0124;
1082.4000;0.3956;-0.0248;
1082.7000;0.4005;-0.0099;
1083.0000;0.3997;-0.0050;
1083.3000;0.3997;-0.0025;
1083.6000;0.3989;-0.0074;
1083.9000;0.3997;-0.0099;
1084.2000;0.3989;-0.0173;
1084.5000;0.4005;-0.0099;
1084.8000;0.3989;-0.0124;
1085.1000;0.4013;-0.0149;
1085.4000;0.3989;-0.0198;
1085.7000;0.4021;-0.0223;
1086.0000;0.3972;-0.0322;
1086.3000;0.3997;-0.0149;
1086.6000;0.3997;-0.0149;
1086.9000;0.4037;-0.0149;
1087.2000;0.3989;-0.0198;
1087.5000;0.4013;-0.0099;
1087.8000;0.3997;-0.0099;
1088.1000;0.3989;-0.0198;
1088.4000;0.3980;-0.0223;
1088.7000;0.4046;-0.0050;
1089.0000;0.3989;-0.0099;
1089.3000;0.3997;-0.0124;
1089.6000;0.3980;-0.0173;
1089.9000;0.3923;-0.0396;
1090.2000;0.3972;-0.0198;
1090.5000;0.3964;-0.0198;
1090.8000;0.3989;-0.0099;
1091.1000;0.3980;-0.0173;
1091.4000;0.3980;-0.0173;
1091.7000;0.3964;-0.0149;
1092.0000;0.3964;-0.0198;
1092.3000;0.3989;-0.0272;
1092.6000;0.3972;-0.0371;
1092.9000;0.3980;-0.0297;
1093.2000;0.3989;-0.0272;
1093.5000;0.3964;-0.0223;
1093.8000;0.3972;-0.0272;
1094.1000;0.3972;-0.0272;
1094.4000;0.3980;-0.0248;
1094.7000;0.3964;-0.0248;
1095.0000;0.3980;-0.0248;
1095.3000;0.4005;-0.0322;
1095.6000;0.4005;-0.0322;
1095.9000;0.4005;-0.0347;
1096.2000;0.3875;-0.0693;
1096.5000;0.3980;-0.0371;
1096.8000;0.4021;-0.0198;
1097.1000;0.3997;-0.0223;
1097.4000;0.4013;-0.0223;
1097.7000;0.3989;-0.0322;
1098.0000;0.3989;-0.0272;
1098.3000;0.4013;-0.0223;
1098.6000;0.3972;-0.0347;
1098.9000;0.3989;-0.0223;
1099.2000;0.3980;-0.0198;
1099.5000;0.3980;-0.0173;
1099.8000;0.3907;-0.0347;
1100.1000;0.3989;-0.0198;
1100.4000;0.3972;-0.0223;
1100.7000;0.3980;-0.0248;
1101.0000;0.3980;-0.0272;
1101.3000;0.3997;-0.0248;
1101.6000;0.3989;-0.0297;
1101.9000;0.3980;-0.0297;
1102.2000;0.3989;-0.0272;
1102.5000;0.3948;-0.0396;
1102.8000;0.3972;-0.0297;
1103.1000;0.3989;-0.0297;
1103.4000;0.3972;-0.0371;
1103.7000;0.3972;-0.0396;
1104.0000;0.3972;-0.0248;
1104.3000;0.3948;-0.0248;
1104.6000;0.3972;-0.0223;
1104.9000;0.3972;-0.0248;
1105.2000;0.3972;-0.0297;
1105.5000;0.3923;-0.0446;
1105.8000;0.3972;-0.0297;
1106.1000;0.4037;-0.0173;
1106.4000;0.3989;-0.0421;
1106.7000;0.3997;-0.0396;
1107.0000;0.3980;-0.0470;
1107.3000;0.3980;-0.0520;
1107.6000;0.3932;-0.0520;
1107.9000;0.3964;-0.0446;
1108.2000;0.3972;-0.0396;
1108.5000;0.3964;-0.0371;
1108.8000;0.3972;-0.0371;
1109.1000;0.3964;-0.0396;
1109.4000;0.3972;-0.0371;
1109.7000;0.3964;-0.0223;
1110.0000;0.4021;-0.0050;
1110.3000;0.3956;-0.0149;
1110.6000;0.3972;-0.0074;
1110.9000;0.3980;-0.0074;
1111.2000;0.3980;-0.0099;
1111.5000;0.3980;-0.0149;
1111.8000;0.3972;-0.0124;
1112.1000;0.3997;-0.0124;
1112.4000;0.3997;-0.0223;
1112.7000;0.3997;-0.0297;
1113.0000;0.3980;-0.0198;
1113.3000;0.3964;-0.0198;
1113.6000;0.3964;-0.0223;
1113.9000;0.3972;-0.0297;
1114.2000;0.3940;-0.0248;
1114.5000;0.3964;-0.0272;
1114.8000;0.3980;-0.0272;
1115.1000;0.3972;-0.0248;
1115.4000;0.3964;-0.0173;
1115.7000;0.3956;-0.0198;
1116.0000;0.3972;-0.0198;
1116.3000;0.3989;-0.0173;
1116.6000;0.3980;-0.0272;
1116.9000;0.4029;-0.0223;
1117.2000;0.3989;-0.0223;
1117.5000;0.3956;-0.0347;
1117.8000;0.3972;-0.0272;
1118.1000;0.3964;-0.0322;
1118.4000;0.4021;-0.0173;
1118.7000;0.3932;-0.0371;
1119.0000;0.4046;-0.0025;
1119.3000;0.3964;-0.0297;
1119.6000;0.3972;-0.0149;
1119.9000;0.3956;-0.0223;
1120.2000;0.3980;-0.0248;
1120.5000;0.3940;-0.0297;
1120.8000;0.3972;-0.0223;
1121.1000;0.3980;-0.0223;
1121.4000;0.3964;-0.0272;
1121.7000;0.3964;-0.0347;
1122.0000;0.3948;-0.0421;
1122.3000;0.3972;-0.0297;
1122.6000;0.3964;-0.0223;
1122.9000;0.4029;0.0000;
1123.2000;0.3972;-0.0099;
1123.5000;0.3956;-0.0223;
1123.8000;0.3972;-0.0173;
1124.1000;0.3964;-0.0248;
1124.4000;0.3964;-0.0272;
1124.7000;0.3956;-0.0272;
1125.0000;0.3940;-0.0297;
1125.3000;0.3956;-0.0223;
1125.6000;0.3948;-0.0272;
1125.9000;0.3948;-0.0322;
1126.2000;0.3940;-0.0371;
1126.5000;0.3972;-0.0322;
1126.8000;0.3989;-0.0371;
1127.1000;0.3989;-0.0272;
1127.4000;0.3948;-0.0421;
1127.7000;0.3972;-0.0371;
1128.0000;0.3972;-0.0347;
1128.3000;0.3956;-0.0322;
1128.6000;0.3948;-0.0347;
1128.9000;0.3956;-0.0297;
1129.2000;0.3948;-0.0322;
1129.5000;0.3964;-0.0322;
1129.8000;0.3907;-0.0470;
1130.1000;0.3956;-0.0396;
1130.4000;0.3932;-0.0446;
1130.7000;0.3932;-0.0446;
1131.0000;0.3948;-0.0347;
1131.3000;0.3948;-0.0297;
1131.6000;0.3948;-0.0173;
1131.9000;0.3956;-0.0173;
1132.2000;0.3964;-0.0198;
1132.5000;0.3964;-0.0198;
1132.8000;0.3980;-0.0223;
1133.1000;0.3940;-0.0322;
1133.4000;0.3964;-0.0322;
1133.7000;0.3956;-0.0371;
1134.0000;0.3940;-0.0446;
1134.3000;0.3948;-0.0322;
1134.6000;0.3940;-0.0322;
1134.9000;0.3940;-0.0371;
1135.2000;0.3956;-0.0272;
1135.5000;0.3956;-0.0297;
1135.8000;0.3972;-0.0248;
1136.1000;0.3956;-0.0297;
1136.4000;0.3964;-0.0322;
1136.7000;0.3948;-0.0272;
1137.0000;0.3964;-0.0248;
1137.3000;0.3948;-0.0297;
1137.6000;0.3948;-0.0421;
1137.9000;0.3948;-0.0371;
1138.2000;0.3972;-0.0297;
1138.5000;0.3948;-0.0322;
1138.8000;0.3956;-0.0272;
1139.1000;0.3948;-0.0371;
1139.4000;0.3956;-0.0347;
1139.7000;0.3940;-0.0396;
1140.0000;0.3948;-0.0347;
1140.3000;0.3923;-0.0371;
1140.6000;0.3932;-0.0371;
1140.9000;0.3948;-0.0396;
1141.2000;0.3948;-0.0371;
1141.5000;0.3964;-0.0297;
1141.8000;0.3932;-0.0297;
1142.1000;0.3980;-0.0198;
1142.4000;0.3972;-0.0248;
1142.7000;0.3932;-0.0421;
1143.0000;0.3956;-0.0371;
1143.3000;0.3972;-0.0272;
1143.6000;0.3956;-0.0297;
1143.9000;0.3940;-0.0272;
1144.2000;0.3948;-0.0173;
1144.5000;0.3923;-0.0272;
1144.8000;0.3948;-0.0272;
1145.1000;0.3964;-0.0198;
1145.4000;0.3899;-0.0347;
1145.7000;0.3956;-0.0173;
1146.0000;0.3948;-0.0198;
1146.3000;0.3948;-0.0248;
1146.6000;0.3956;-0.0149;
1146.9000;0.3956;-0.0173;
1147.2000;0.3964;-0.0198;
1147.5000;0.3940;-0.0248;
1147.8000;0.3964;-0.0223;
1148.1000;0.3907;-0.0421;
1148.4000;0.3948;-0.0396;
1148.7000;0.3948;-0.0396;
1149.0000;0.3932;-0.0371;
1149.3000;0.3948;-0.0297;
1149.6000;0.3940;-0.0396;
1149.9000;0.3964;-0.0371;
1150.2000;0.3972;-0.0470;
1150.5000;0.3940;-0.0520;
1150.8000;0.3932;-0.0470;
1151.1000;0.3915;-0.0570;
1151.4000;0.3932;-0.0495;
1151.7000;0.3948;-0.0520;
1152.0000;0.3923;-0.0594;
1152.3000;0.3932;-0.0495;
1152.6000;0.3956;-0.0371;
1152.9000;0.3948;-0.0470;
1153.2000;0.3923;-0.0594;
1153.5000;0.3940;-0.0594;
1153.8000;0.3948;-0.0644;
1154.1000;0.3940;-0.0594;
1154.4000;0.3915;-0.0570;
1154.7000;0.3940;-0.0446;
1155.0000;0.3940;-0.0371;
1155.3000;0.3940;-0.0396;
1155.6000;0.3940;-0.0421;
1155.9000;0.3932;-0.0446;
1156.2000;0.3923;-0.0470;
1156.5000;0.3940;-0.0421;
1156.8000;0.3923;-0.0371;
1157.1000;0.3948;-0.0272;
1157.4000;0.3923;-0.0347;
1157.7000;0.3940;-0.0322;
1158.0000;0.3956;-0.0347;
1158.3000;0.3932;-0.0297;
1158.6000;0.3923;-0.0272;
1158.9000;0.3948;-0.0297;
1159.2000;0.3940;-0.0297;
1159.5000;0.3940;-0.0297;
1159.8000;0.3923;-0.0223;
1160.1000;0.3989;-0.0099;
1160.4000;0.3940;-0.0223;
1160.7000;0.3923;-0.0272;
1161.0000;0.3932;-0.0297;
1161.3000;0.3923;-0.0347;
1161.6000;0.3956;-0.0272;
1161.9000;0.3940;-0.0371;
1162.2000;0.3923;-0.0470;
1162.5000;0.3932;-0.0545;
1162.8000;0.3964;-0.0495;
1163.1000;0.3948;-0.0619;
1163.4000;0.3932;-0.0594;
1163.7000;0.3923;-0.0545;
1164.0000;0.3923;-0.0520;
1164.3000;0.3948;-0.0495;
1164.6000;0.3907;-0.0570;
1164.9000;0.3891;-0.0594;
1165.2000;0.3907;-0.0570;
1165.5000;0.3923;-0.0545;
1165.8000;0.3875;-0.0743;
1166.1000;0.3891;-0.0644;
1166.4000;0.3907;-0.0594;
1166.7000;0.3964;-0.0396;
1167.0000;0.3899;-0.0520;
1167.3000;0.3923;-0.0421;
1167.6000;0.3932;-0.0446;
1167.9000;0.3940;-0.0396;
1168.2000;0.3842;-0.0693;
1168.5000;0.3923;-0.0446;
1168.8000;0.3907;-0.0470;
1169.1000;0.3915;-0.0371;
1169.4000;0.3940;-0.0149;
1169.7000;0.3923;-0.0248;
1170.0000;0.3923;-0.0198;
1170.3000;0.3932;-0.0223;
1170.6000;0.3923;-0.0248;
1170.9000;0.3923;-0.0248;
1171.2000;0.3940;-0.0124;
1171.5000;0.3907;-0.0322;
1171.8000;0.4013;0.0000;
1172.1000;0.3940;-0.0297;
1172.4000;0.3940;-0.0272;
1172.7000;0.3915;-0.0322;
1173.0000;0.3923;-0.0396;
1173.3000;0.3932;-0.0396;
1173.6000;0.3932;-0.0470;
1173.9000;0.3940;-0.0446;
1174.2000;0.3932;-0.0446;
1174.5000;0.3923;-0.0396;
1174.8000;0.3867;-0.0570;
1175.1000;0.3915;-0.0421;
1175.4000;0.3899;-0.0421;
1175.7000;0.3923;-0.0322;
1176.0000;0.3940;-0.0371;
1176.3000;0.3915;-0.0446;
1176.6000;0.3923;-0.0421;
1176.9000;0.3923;-0.0371;
1177.2000;0.3932;-0.0396;
1177.5000;0.3932;-0.0396;
1177.8000;0.3932;-0.0396;
1178.1000;0.3907;-0.0396;
1178.4000;0.3940;-0.0272;
1178.7000;0.3915;-0.0248;
1179.0000;0.3956;-0.0198;
1179.3000;0.3923;-0.0297;
1179.6000;0.3964;-0.0371;
1179.9000;0.3980;-0.0396;
1180.2000;0.3907;-0.0644;
1180.5000;0.3907;-0.0594;
1180.8000;0.3923;-0.0470;
1181.1000;0.3932;-0.0446;
1181.4000;0.3932;-0.0396;
1181.7000;0.3891;-0.0322;
1182.0000;0.3891;-0.0248;
1182.3000;0.3923;-0.0173;
1182.6000;0.3948;-0.0124;
1182.9000;0.3923;-0.0223;
1183.2000;0.3915;-0.0198;
1183.5000;0.3915;-0.0050;
1183.8000;0.3923;-0.0025;
1184.1000;0.3923;0.0074;
1184.4000;0.3915;0.0025;
1184.7000;0.3899;-0.0025;
1185.0000;0.3915;0.0000;
1185.3000;0.3907;-0.0124;
1185.6000;0.3907;-0.0198;
1185.9000;0.3932;-0.0149;
1186.2000;0.3932;-0.0272;
1186.5000;0.3923;-0.0272;
1186.8000;0.3858;-0.0371;
1187.1000;0.3948;-0.0124;
1187.4000;0.3932;-0.0248;
1187.7000;0.3891;-0.0396;
1188.0000;0.3915;-0.0322;
1188.3000;0.3956;-0.0149;
1188.6000;0.3907;-0.0396;
1188.9000;0.3932;-0.0297;
1189.2000;0.3891;-0.0371;
1189.5000;0.3883;-0.0470;
1189.8000;0.3915;-0.0396;
1190.1000;0.3907;-0.0396;
1190.4000;0.3875;-0.0470;
1190.7000;0.3891;-0.0421;
1191.0000;0.3915;-0.0396;
1191.3000;0.3907;-0.0396;
1191.6000;0.3899;-0.0322;
1191.9000;0.3915;-0.0297;
1192.2000;0.3899;-0.0248;
1192.5000;0.3923;-0.0149;
1192.8000;0.3907;-0.0173;
1193.1000;0.3915;-0.0297;
1193.4000;0.3891;-0.0322;
1193.7000;0.3907;-0.0322;
1194.0000;0.3907;-0.0347;
1194.3000;0.3915;-0.0495;
1194.6000;0.3907;-0.0470;
1194.9000;0.3891;-0.0446;
1195.2000;0.3891;-0.0570;
1195.5000;0.3923;-0.0470;
1195.8000;0.3915;-0.0446;
1196.1000;0.3883;-0.0470;
1196.4000;0.3899;-0.0347;
1196.7000;0.3899;-0.0297;
1197.0000;0.3899;-0.0248;
1197.3000;0.3915;-0.0198;
1197.6000;0.3899;-0.0223;
1197.9000;0.3891;-0.0297;
1198.2000;0.3858;-0.0396;
1198.5000;0.3907;-0.0272;
1198.8000;0.3980;0.0000;
1199.1000;0.3915;-0.0124;
1199.4000;0.3907;-0.0074;
1199.7000;0.3891;-0.0149;
1200.0000;0.3891;-0.0149;
1200.3000;0.4005;0.0198;
1200.6000;0.3915;-0.0050;
1200.9000;0.3899;-0.0050;
1201.2000;0.3923;-0.0025;
1201.5000;0.3842;-0.0198;
1201.8000;0.3948;0.0074;
1202.1000;0.3883;-0.0050;
1202.4000;0.3899;-0.0099;
1202.7000;0.3899;-0.0050;
1203.0000;0.3899;-0.0074;
1203.3000;0.3907;-0.0099;
1203.6000;0.3899;-0.0198;
1203.9000;0.3907;-0.0198;
1204.2000;0.3899;-0.0322;
1204.5000;0.3915;-0.0223;
1204.8000;0.3875;-0.0297;
1205.1000;0.3907;-0.0149;
1205.4000;0.3899;-0.0074;
1205.7000;0.3932;-0.0025;
1206.0000;0.3883;-0.0074;
1206.3000;0.3891;-0.0149;
1206.6000;0.3891;-0.0173;
1206.9000;0.3923;-0.0074;
1207.2000;0.3883;-0.0198;
1207.5000;0.3891;-0.0223;
1207.8000;0.3883;-0.0248;
1208.1000;0.3997;-0.0025;
1208.4000;0.3907;-0.0272;
1208.7000;0.3948;-0.0198;
1209.0000;0.3891;-0.0297;
1209.3000;0.3899;-0.0272;
1209.6000;0.3915;-0.0173;
1209.9000;0.3923;-0.0149;
1210.2000;0.3899;-0.0248;
1210.5000;0.3907;-0.0223;
1210.8000;0.3883;-0.0173;
1211.1000;0.3891;-0.0198;
1211.4000;0.3907;-0.0198;
1211.7000;0.3899;-0.0223;
1212.0000;0.3883;-0.0173;
1212.3000;0.3883;-0.0198;
1212.6000;0.3891;-0.0173;
1212.9000;0.3818;-0.0322;
1213.2000;0.3907;-0.0074;
1213.5000;0.3842;-0.0223;
1213.8000;0.3899;-0.0074;
1214.1000;0.3858;-0.0198;
1214.4000;0.3891;-0.0173;
1214.7000;0.3907;-0.0149;
1215.0000;0.3883;-0.0198;
1215.3000;0.3883;-0.0173;
1215.6000;0.3891;-0.0173;
1215.9000;0.3883;-0.0223;
1216.2000;0.3883;-0.0223;
1216.5000;0.3891;-0.0173;
1216.8000;0.3891;-0.0223;
1217.1000;0.3891;-0.0149;
1217.4000;0.3899;-0.0198;
1217.7000;0.3891;-0.0272;
1218.0000;0.3891;-0.0322;
1218.3000;0.3899;-0.0248;
1218.6000;0.3875;-0.0223;
1218.9000;0.3907;-0.0173;
1219.2000;0.3891;-0.0198;
1219.5000;0.3891;-0.0223;
1219.8000;0.3850;-0.0322;
1220.1000;0.3964;-0.0124;
1220.4000;0.3875;-0.0272;
1220.7000;0.3858;-0.0347;
1221.0000;0.3891;-0.0322;
1221.3000;0.3907;-0.0322;
1221.6000;0.3834;-0.0545;
1221.9000;0.3883;-0.0470;
1222.2000;0.3810;-0.0693;
1222.5000;0.3883;-0.0594;
1222.8000;0.3907;-0.0520;
1223.1000;0.3875;-0.0693;
1223.4000;0.3907;-0.0570;
1223.7000;0.3923;-0.0495;
1224.0000;0.3891;-0.0570;
1224.3000;0.3818;-0.0743;
1224.6000;0.3867;-0.0644;
1224.9000;0.3875;-0.0594;
1225.2000;0.3891;-0.0570;
1225.5000;0.3867;-0.0495;
1225.8000;0.3875;-0.0446;
1226.1000;0.3891;-0.0347;
1226.4000;0.3883;-0.0322;
1226.7000;0.3883;-0.0272;
1227.0000;0.3850;-0.0421;
1227.3000;0.3899;-0.0297;
1227.6000;0.3883;-0.0396;
1227.9000;0.3932;-0.0297;
1228.2000;0.3883;-0.0396;
1228.5000;0.3891;-0.0371;
1228.8000;0.3883;-0.0421;
1229.1000;0.3875;-0.0446;
1229.4000;0.3867;-0.0545;
1229.7000;0.3858;-0.0495;
1230.0000;0.3818;-0.0594;
1230.3000;0.3875;-0.0371;
1230.6000;0.3867;-0.0371;
1230.9000;0.3875;-0.0371;
1231.2000;0.3875;-0.0396;
1231.5000;0.3850;-0.0545;
1231.8000;0.3891;-0.0371;
1232.1000;0.3867;-0.0446;
1232.4000;0.3883;-0.0470;
1232.7000;0.3891;-0.0421;
1233.0000;0.3891;-0.0495;
1233.3000;0.3867;-0.0644;
1233.6000;0.3858;-0.0520;
1233.9000;0.3875;-0.0347;
1234.2000;0.3867;-0.0347;
1234.5000;0.3875;-0.0322;
1234.8000;0.3875;-0.0297;
1235.1000;0.3883;-0.0297;
1235.4000;0.3883;-0.0248;
1235.7000;0.3899;-0.0223;
1236.0000;0.3883;-0.0297;
1236.3000;0.3883;-0.0248;
1236.6000;0.3858;-0.0396;
1236.9000;0.3875;-0.0371;
1237.2000;0.3899;-0.0272;
1237.5000;0.3858;-0.0347;
1237.8000;0.3850;-0.0470;
1238.1000;0.3850;-0.0421;
1238.4000;0.3810;-0.0520;
1238.7000;0.3875;-0.0322;
1239.0000;0.3883;-0.0173;
1239.3000;0.3858;-0.0198;
1239.6000;0.3883;-0.0173;
1239.9000;0.3867;-0.0173;
1240.2000;0.3867;-0.0099;
1240.5000;0.3883;-0.0099;
1240.8000;0.3891;-0.0099;
1241.1000;0.3907;0.0000;
1241.4000;0.3858;-0.0198;
1241.7000;0.3842;-0.0198;
1242.0000;0.3858;-0.0149;
1242.3000;0.3867;-0.0074;
1242.6000;0.3858;-0.0025;
1242.9000;0.3875;0.0025;
1243.2000;0.3850;-0.0050;
1243.5000;0.3867;-0.0050;
1243.8000;0.3826;-0.0248;
1244.1000;0.3899;-0.0173;
1244.4000;0.3858;-0.0322;
1244.7000;0.3899;-0.0149;
1245.0000;0.3858;-0.0223;
1245.3000;0.3842;-0.0198;
1245.6000;0.3842;-0.0248;
1245.9000;0.3858;-0.0124;
1246.2000;0.3842;-0.0124;
1246.5000;0.3867;-0.0074;
1246.8000;0.3834;-0.0074;
1247.1000;0.3867;0.0050;
1247.4000;0.3899;0.0050;
1247.7000;0.3842;-0.0050;
1248.0000;0.3875;0.0025;
1248.3000;0.3858;0.0050;
1248.6000;0.3850;-0.0025;
1248.9000;0.3883;0.0050;
1249.2000;0.3834;-0.0074;
1249.5000;0.3883;0.0000;
1249.8000;0.3867;-0.0050;
1250.1000;0.3867;-0.0173;
1250.4000;0.3850;-0.0223;
1250.7000;0.3858;-0.0149;
1251.0000;0.3875;-0.0050;
1251.3000;0.3850;-0.0074;
1251.6000;0.3867;-0.0050;
1251.9000;0.3842;-0.0149;
1252.2000;0.3858;-0.0099;
1252.5000;0.3850;-0.0173;
1252.8000;0.3875;-0.0223;
1253.1000;0.3899;-0.0124;
1253.4000;0.3826;-0.0248;
1253.7000;0.3858;-0.0272;
1254.0000;0.3850;-0.0248;
1254.3000;0.3858;-0.0322;
1254.6000;0.3883;-0.0173;
1254.9000;0.3867;-0.0099;
1255.2000;0.3867;-0.0099;
1255.5000;0.3826;-0.0149;
1255.8000;0.3858;-0.0124;
1256.1000;0.3907;0.0099;
1256.4000;0.3858;-0.0025;
1256.7000;0.3850;-0.0099;
1257.0000;0.3867;-0.0173;
1257.3000;0.3867;-0.0074;
1257.6000;0.3858;-0.0025;
1257.9000;0.3858;0.0000;
1258.2000;0.3842;-0.0124;
1258.5000;0.3834;-0.0149;
1258.8000;0.3850;-0.0149;
1259.1000;0.3842;-0.0149;
1259.4000;0.3875;-0.0074;
1259.7000;0.3875;-0.0099;
1260.0000;0.3940;0.0050;
1260.3000;0.3899;-0.0149;
1260.6000;0.3850;-0.0347;
1260.9000;0.3858;-0.0297;
1261.2000;0.3899;-0.0223;
1261.5000;0.3858;-0.0347;
1261.8000;0.3867;-0.0396;
1262.1000;0.3769;-0.0644;
1262.4000;0.3810;-0.0495;
1262.7000;0.3858;-0.0297;
1263.0000;0.3842;-0.0322;
1263.3000;0.3842;-0.0272;
1263.6000;0.3858;-0.0173;
1263.9000;0.3850;-0.0149;
1264.2000;0.3842;-0.0124;
1264.5000;0.3842;-0.0173;
1264.8000;0.3850;-0.0149;
1265.1000;0.3867;-0.0149;
1265.4000;0.3867;-0.0149;
1265.7000;0.3858;-0.0198;
1266.0000;0.3858;-0.0149;
1266.3000;0.3858;-0.0149;
1266.6000;0.3850;-0.0198;
1266.9000;0.3867;-0.0149;
1267.2000;0.3858;-0.0173;
1267.5000;0.3867;-0.0099;
1267.8000;0.3842;-0.0149;
1268.1000;0.3891;-0.0124;
1268.4000;0.3883;-0.0124;
1268.7000;0.3867;-0.0124;
1269.0000;0.3834;-0.0223;
1269.3000;0.3842;-0.0149;
1269.6000;0.3842;-0.0149;
1269.9000;0.3858;-0.0050;
1270.2000;0.3867;-0.0025;
1270.5000;0.3850;-0.0050;
1270.8000;0.3867;0.0050;
1271.1000;0.3850;0.0025;
1271.4000;0.3858;0.0000;
1271.7000;0.3867;-0.0025;
1272.0000;0.3850;0.0025;
1272.3000;0.3850;-0.0050;
1272.6000;0.3842;-0.0149;
1272.9000;0.3899;-0.0074;
1273.2000;0.3850;-0.0173;
1273.5000;0.3891;-0.0050;
1273.8000;0.3867;-0.0099;
1274.1000;0.3826;-0.0099;
1274.4000;0.3850;-0.0099;
1274.7000;0.3850;-0.0124;
1275.0000;0.3810;-0.0173;
1275.3000;0.3826;0.0025;
1275.6000;0.3850;0.0050;
1275.9000;0.3834;-0.0099;
1276.2000;0.3834;-0.0050;
1276.5000;0.3842;-0.0025;
1276.8000;0.3834;-0.0149;
1277.1000;0.3842;-0.0149;
1277.4000;0.3826;-0.0198;
1277.7000;0.3834;-0.0099;
1278.0000;0.3883;0.0000;
1278.3000;0.3850;-0.0099;
1278.6000;0.3793;-0.0272;
1278.9000;0.3850;-0.0223;
1279.2000;0.3842;-0.0198;
1279.5000;0.3850;-0.0124;
1279.8000;0.3834;-0.0099;
1280.1000;0.3850;-0.0025;
1280.4000;0.3842;0.0000;
1280.7000;0.3842;0.0025;
1281.0000;0.3834;-0.0050;
1281.3000;0.3842;-0.0025;
1281.6000;0.3842;-0.0074;
1281.9000;0.3858;0.0000;
1282.2000;0.3850;0.0149;
1282.5000;0.3842;0.0074;
1282.8000;0.3850;0.0074;
1283.1000;0.3834;0.0124;
1283.4000;0.3875;0.0173;
1283.7000;0.3867;0.0099;
1284.0000;0.3850;0.0025;
1284.3000;0.3842;0.0000;
1284.6000;0.3842;0.0025;
1284.9000;0.3818;-0.0099;
1285.2000;0.3834;-0.0124;
1285.5000;0.3867;-0.0025;
1285.8000;0.3842;-0.0025;
1286.1000;0.3867;-0.0099;
1286.4000;0.3834;-0.0248;
1286.7000;0.3842;-0.0223;
1287.0000;0.3842;-0.0198;
1287.3000;0.3850;-0.0198;
1287.6000;0.3850;-0.0124;
1287.9000;0.3850;-0.0173;
1288.2000;0.3842;-0.0173;
1288.5000;0.3850;-0.0198;
1288.8000;0.3842;-0.0149;
1289.1000;0.3834;-0.0272;
1289.4000;0.3867;-0.0248;
1289.7000;0.3834;-0.0322;
1290.0000;0.3842;-0.0173;
1290.3000;0.3818;-0.0149;
1290.6000;0.3826;-0.0124;
1290.9000;0.3818;0.0000;
1291.2000;0.3801;0.0050;
1291.5000;0.3834;0.0025;
1291.8000;0.3850;0.0025;
1292.1000;0.3842;0.0025;
1292.4000;0.3834;-0.0050;
1292.7000;0.3834;-0.0050;
1293.0000;0.3793;-0.0124;
1293.3000;0.3875;-0.0025;
1293.6000;0.3850;-0.0025;
1293.9000;0.3842;0.0000;
1294.2000;0.3850;-0.0050;
1294.5000;0.3801;-0.0173;
1294.8000;0.3826;-0.0050;
1295.1000;0.3834;-0.0074;
1295.4000;0.3826;-0.0099;
1295.7000;0.3810;-0.0248;
1296.0000;0.3826;-0.0173;
1296.3000;0.3826;-0.0124;
1296.6000;0.3826;-0.0074;
1296.9000;0.3801;-0.0173;
1297.2000;0.3915;0.0124;
1297.5000;0.3883;0.0050;
1297.8000;0.3834;-0.0099;
1298.1000;0.3875;-0.0074;
1298.4000;0.3858;-0.0099;
1298.7000;0.3842;-0.0149;
1299.0000;0.3810;-0.0173;
1299.3000;0.3826;-0.0198;
1299.6000;0.3858;-0.0173;
1299.9000;0.3948;0.0050;
1300.2000;0.3818;-0.0297;
1300.5000;0.3891;-0.0124;
1300.8000;0.3818;-0.0272;
1301.1000;0.3867;-0.0124;
1301.4000;0.3744;-0.0446;
1301.7000;0.3818;-0.0149;
1302.0000;0.3801;-0.0248;
1302.3000;0.3826;-0.0198;
1302.6000;0.3842;-0.0173;
1302.9000;0.3858;-0.0173;
1303.2000;0.3826;-0.0272;
1303.5000;0.3834;-0.0173;
1303.8000;0.3826;-0.0173;
1304.1000;0.3826;-0.0124;
1304.4000;0.3826;-0.0025;
1304.7000;0.3826;-0.0025;
1305.0000;0.3834;0.0025;
1305.3000;0.3850;0.0099;
1305.6000;0.3826;-0.0074;
1305.9000;0.3826;-0.0074;
1306.2000;0.3834;-0.0124;
1306.5000;0.3826;-0.0074;
1306.8000;0.3818;-0.0074;
1307.1000;0.3826;-0.0099;
1307.4000;0.3826;-0.0074;
1307.7000;0.3810;-0.0124;
1308.0000;0.3842;-0.0124;
1308.3000;0.3818;-0.0173;
1308.6000;0.3810;-0.0124;
1308.9000;0.3801;-0.0124;
1309.2000;0.3818;-0.0124;
1309.5000;0.3801;-0.0050;
1309.8000;0.3826;0.0025;
1310.1000;0.3818;0.0000;
1310.4000;0.3834;0.0099;
1310.7000;0.3818;-0.0025;
1311.0000;0.3810;-0.0074;
1311.3000;0.3818;-0.0149;
1311.6000;0.3826;-0.0149;
1311.9000;0.3801;-0.0173;
1312.2000;0.3818;-0.0149;
1312.5000;0.3818;-0.0223;
1312.8000;0.3826;-0.0149;
1313.1000;0.3810;-0.0223;
1313.4000;0.3818;-0.0198;
1313.7000;0.3793;-0.0198;
1314.0000;0.3834;-0.0074;
1314.3000;0.3875;0.0025;
1314.6000;0.3818;-0.0025;
1314.9000;0.3818;-0.0050;
1315.2000;0.3785;-0.0124;
1315.5000;0.3842;0.0099;
1315.8000;0.3810;0.0074;
1316.1000;0.3785;0.0099;
1316.4000;0.3761;0.0124;
1316.7000;0.3842;0.0074;
1317.0000;0.3810;-0.0025;
1317.3000;0.3842;-0.0025;
1317.6000;0.3834;0.0025;
1317.9000;0.3810;0.0025;
1318.2000;0.3793;-0.0074;
1318.5000;0.3818;-0.0025;
1318.8000;0.3793;-0.0099;
1319.1000;0.3801;0.0000;
1319.4000;0.3810;0.0000;
1319.7000;0.3793;-0.0099;
1320.0000;0.3801;-0.0050;
1320.3000;0.3810;0.0000;
1320.6000;0.3793;0.0050;
1320.9000;0.3810;0.0074;
1321.2000;0.3801;0.0099;
1321.5000;0.3785;0.0074;
1321.8000;0.3810;0.0149;
1322.1000;0.3818;0.0074;
1322.4000;0.3744;-0.0124;
1322.7000;0.3834;0.0099;
1323.0000;0.3810;0.0050;
1323.3000;0.3818;0.0050;
1323.6000;0.3834;0.0124;
1323.9000;0.3867;0.0272;
1324.2000;0.3801;0.0099;
1324.5000;0.3818;0.0149;
1324.8000;0.3818;0.0272;
1325.1000;0.3810;0.0248;
1325.4000;0.3712;-0.0025;
1325.7000;0.3810;0.0149;
1326.0000;0.3793;0.0124;
1326.3000;0.3793;0.0124;
1326.6000;0.3810;0.0050;
1326.9000;0.3785;0.0025;
1327.2000;0.3801;0.0050;
1327.5000;0.3818;-0.0050;
1327.8000;0.3818;-0.0050;
1328.1000;0.3826;-0.0025;
1328.4000;0.3826;-0.0025;
1328.7000;0.3818;0.0050;
1329.0000;0.3793;-0.0025;
1329.3000;0.3793;-0.0025;
1329.6000;0.3818;0.0025;
1329.9000;0.3810;0.0025;
1330.2000;0.3858;0.0124;
1330.5000;0.3801;-0.0099;
1330.8000;0.3801;-0.0099;
1331.1000;0.3793;-0.0124;
1331.4000;0.3818;-0.0124;
1331.7000;0.3801;-0.0099;
1332.0000;0.3834;-0.0074;
1332.3000;0.3834;-0.0074;
1332.6000;0.3793;-0.0099;
1332.9000;0.3818;-0.0099;
1333.2000;0.3834;-0.0050;
1333.5000;0.3793;-0.0173;
1333.8000;0.3801;-0.0173;
1334.1000;0.3777;-0.0198;
1334.4000;0.3810;-0.0099;
1334.7000;0.3810;-0.0050;
1335.0000;0.3818;-0.0074;
1335.3000;0.3801;-0.0099;
1335.6000;0.3810;-0.0074;
1335.9000;0.3810;0.0050;
1336.2000;0.3826;0.0099;
1336.5000;0.3785;-0.0074;
1336.8000;0.3801;-0.0050;
1337.1000;0.3818;-0.0099;
1337.4000;0.3826;-0.0050;
1337.7000;0.3818;-0.0099;
1338.0000;0.3818;-0.0074;
1338.3000;0.3826;-0.0074;
1338.6000;0.3801;-0.0149;
1338.9000;0.3793;-0.0074;
1339.2000;0.3801;-0.0124;
1339.5000;0.3744;-0.0272;
1339.8000;0.3777;-0.0149;
1340.1000;0.3769;-0.0149;
1340.4000;0.3753;-0.0248;
1340.7000;0.3785;-0.0074;
1341.0000;0.3785;-0.0050;
1341.3000;0.3793;-0.0025;
1341.6000;0.3801;0.0025;
1341.9000;0.3810;0.0050;
1342.2000;0.3801;-0.0050;
1342.5000;0.3810;-0.0124;
1342.8000;0.3801;-0.0099;
1343.1000;0.3793;-0.0099;
1343.4000;0.3793;-0.0099;
1343.7000;0.3818;0.0025;
1344.0000;0.3793;-0.0050;
1344.3000;0.3810;0.0025;
1344.6000;0.3785;-0.0025;
1344.9000;0.3818;0.0000;
1345.2000;0.3818;-0.0050;
1345.5000;0.3793;-0.0074;
1345.8000;0.3785;-0.0074;
1346.1000;0.3793;-0.0099;
1346.4000;0.3801;-0.0149;
1346.7000;0.3801;-0.0050;
1347.0000;0.3801;0.0000;
1347.3000;0.3801;0.0074;
1347.6000;0.3834;0.0173;
1347.9000;0.3818;0.0124;
1348.2000;0.3801;0.0149;
1348.5000;0.3801;0.0124;
1348.8000;0.3801;0.0173;
1349.1000;0.3793;0.0124;
1349.4000;0.3736;0.0000;
1349.7000;0.3826;0.0248;
1350.0000;0.3785;0.0198;
1350.3000;0.3810;0.0272;
1350.6000;0.3769;0.0173;
1350.9000;0.3793;0.0124;
1351.2000;0.3777;0.0050;
1351.5000;0.3793;0.0074;
1351.8000;0.3810;0.0099;
1352.1000;0.3818;0.0074;
1352.4000;0.3761;-0.0124;
1352.7000;0.3785;-0.0050;
1353.0000;0.3801;0.0050;
1353.3000;0.3810;0.0000;
1353.6000;0.3810;-0.0025;
1353.9000;0.3793;-0.0074;
1354.2000;0.3826;0.0000;
1354.5000;0.3801;-0.0050;
1354.8000;0.3793;-0.0050;
1355.1000;0.3801;0.0099;
1355.4000;0.3842;0.0223;
1355.7000;0.3777;0.0099;
1356.0000;0.3810;0.0124;
1356.3000;0.3696;-0.0124;
1356.6000;0.3818;0.0223;
1356.9000;0.3810;0.0173;
1357.2000;0.3761;-0.0050;
1357.5000;0.3801;0.0025;
1357.8000;0.3793;0.0000;
1358.1000;0.3801;0.0025;
1358.4000;0.3793;-0.0025;
1358.7000;0.3801;0.0050;
1359.0000;0.3793;0.0050;
1359.3000;0.3777;0.0050;
1359.6000;0.3793;0.0173;
1359.9000;0.3785;0.0124;
1360.2000;0.3793;0.0074;
1360.5000;0.3761;0.0050;
1360.8000;0.3769;0.0050;
1361.1000;0.3777;0.0000;
1361.4000;0.3801;-0.0025;
1361.7000;0.3761;-0.0074;
1362.0000;0.3793;0.0050;
1362.3000;0.3801;-0.0050;
1362.6000;0.3793;-0.0149;
1362.9000;0.3793;-0.0050;
1363.2000;0.3801;-0.0099;
1363.5000;0.3777;-0.0099;
1363.8000;0.3793;-0.0025;
1364.1000;0.3793;-0.0074;
1364.4000;0.3777;-0.0124;
1364.7000;0.3793;-0.0149;
1365.0000;0.3728;-0.0322;
1365.3000;0.3777;-0.0198;
1365.6000;0.3793;-0.0272;
1365.9000;0.3712;-0.0396;
1366.2000;0.3769;-0.0223;
1366.5000;0.3801;-0.0248;
1366.8000;0.3769;-0.0396;
1367.1000;0.3785;-0.0371;
1367.4000;0.3793;-0.0272;
1367.7000;0.3712;-0.0446;
1368.0000;0.3777;-0.0223;
1368.3000;0.3777;-0.0272;
1368.6000;0.3785;-0.0223;
1368.9000;0.3785;-0.0173;
1369.2000;0.3777;-0.0272;
1369.5000;0.3785;-0.0223;
1369.8000;0.3826;-0.0124;
1370.1000;0.3793;-0.0173;
1370.4000;0.3793;-0.0173;
1370.7000;0.3777;-0.0124;
1371.0000;0.3834;0.0074;
1371.3000;0.3793;-0.0050;
1371.6000;0.3777;-0.0074;
1371.9000;0.3753;-0.0149;
1372.2000;0.3801;-0.0050;
1372.5000;0.3793;-0.0074;
1372.8000;0.3785;-0.0050;
1373.1000;0.3720;-0.0198;
1373.4000;0.3785;-0.0025;
1373.7000;0.3753;-0.0050;
1374.0000;0.3785;-0.0074;
1374.3000;0.3793;-0.0124;
1374.6000;0.3777;-0.0074;
1374.9000;0.3769;-0.0149;
1375.2000;0.3753;-0.0223;
1375.5000;0.3793;-0.0149;
1375.8000;0.3761;-0.0173;
1376.1000;0.3769;-0.0124;
1376.4000;0.3777;-0.0124;
1376.7000;0.3761;-0.0198;
1377.0000;0.3777;-0.0198;
1377.3000;0.3777;-0.0223;
1377.6000;0.3826;-0.0149;
1377.9000;0.3785;-0.0322;
1378.2000;0.3736;-0.0446;
1378.5000;0.3777;-0.0248;
1378.8000;0.3744;-0.0248;
1379.1000;0.3777;-0.0173;
1379.4000;0.3777;-0.0173;
1379.7000;0.3801;-0.0198;
1380.0000;0.3785;-0.0248;
1380.3000;0.3753;-0.0248;
1380.6000;0.3761;-0.0297;
1380.9000;0.3736;-0.0371;
1381.2000;0.3769;-0.0297;
1381.5000;0.3785;-0.0272;
1381.8000;0.3793;-0.0173;
1382.1000;0.3761;-0.0124;
1382.4000;0.3769;-0.0124;
1382.7000;0.3769;-0.0124;
1383.0000;0.3785;-0.0124;
1383.3000;0.3769;-0.0124;
1383.6000;0.3785;-0.0149;
1383.9000;0.3793;-0.0099;
1384.2000;0.3785;-0.0124;
1384.5000;0.3769;-0.0050;
1384.8000;0.3785;0.0050;
1385.1000;0.3777;0.0074;
1385.4000;0.3785;0.0000;
1385.7000;0.3785;-0.0074;
1386.0000;0.3761;-0.0198;
1386.3000;0.3801;-0.0050;
1386.6000;0.3777;-0.0025;
1386.9000;0.3777;0.0050;
1387.2000;0.3777;0.0074;
1387.5000;0.3761;0.0025;
1387.8000;0.3761;0.0000;
1388.1000;0.3777;0.0000;
1388.4000;0.3777;0.0025;
1388.7000;0.3769;0.0074;
1389.0000;0.3785;0.0099;
1389.3000;0.3769;0.0074;
1389.6000;0.3769;0.0074;
1389.9000;0.3761;-0.0074;
1390.2000;0.3769;-0.0074;
1390.5000;0.3769;0.0000;
1390.8000;0.3769;0.0050;
1391.1000;0.3777;0.0149;
1391.4000;0.3785;0.0124;
1391.7000;0.3769;0.0025;
1392.0000;0.3777;-0.0025;
1392.3000;0.3793;0.0000;
1392.6000;0.3777;-0.0099;
1392.9000;0.3777;0.0050;
1393.2000;0.3801;0.0099;
1393.5000;0.3777;0.0074;
1393.8000;0.3850;0.0173;
1394.1000;0.3769;-0.0099;
1394.4000;0.3761;-0.0124;
1394.7000;0.3769;-0.0149;
1395.0000;0.3744;-0.0223;
1395.3000;0.3744;-0.0272;
1395.6000;0.3769;-0.0198;
1395.9000;0.3785;-0.0149;
1396.2000;0.3785;-0.0149;
1396.5000;0.3793;-0.0124;
1396.8000;0.3785;-0.0124;
1397.1000;0.3761;-0.0149;
1397.4000;0.3769;-0.0074;
1397.7000;0.3769;-0.0074;
1398.0000;0.3761;-0.0050;
1398.3000;0.3785;0.0124;
1398.6000;0.3777;0.0025;
1398.9000;0.3777;0.0000;
1399.2000;0.3777;0.0050;
1399.5000;0.3761;0.0050;
1399.8000;0.3744;0.0000;
