time/ms;Fluo/V;P700 deltaI/I x10³;
-199.8000;0.4453;0.0223;
-199.5000;0.4526;0.0470;
-199.2000;0.4526;0.0495;
-198.9000;0.4526;0.0470;
-198.6000;0.4518;0.0520;
-198.3000;0.4526;0.0520;
-198.0000;0.4485;0.0446;
-197.7000;0.4558;0.0644;
-197.4000;0.4583;0.0743;
-197.1000;0.4526;0.0570;
-196.8000;0.4542;0.0570;
-196.5000;0.4510;0.0495;
-196.2000;0.4526;0.0520;
-195.9000;0.4518;0.0520;
-195.6000;0.4550;0.0545;
-195.3000;0.4526;0.0520;
-195.0000;0.4534;0.0545;
-194.7000;0.4526;0.0570;
-194.4000;0.4518;0.0644;
-194.1000;0.4526;0.0644;
-193.8000;0.4558;0.0693;
-193.5000;0.4542;0.0669;
-193.2000;0.4518;0.0545;
-192.9000;0.4550;0.0644;
-192.6000;0.4526;0.0570;
-192.3000;0.4510;0.0693;
-192.0000;0.4526;0.0693;
-191.7000;0.4493;0.0545;
-191.4000;0.4518;0.0594;
-191.1000;0.4534;0.0644;
-190.8000;0.4510;0.0594;
-190.5000;0.4550;0.0619;
-190.2000;0.4518;0.0545;
-189.9000;0.4501;0.0421;
-189.6000;0.4526;0.0421;
-189.3000;0.4518;0.0446;
-189.0000;0.4510;0.0371;
-188.7000;0.4534;0.0347;
-188.4000;0.4526;0.0371;
-188.1000;0.4526;0.0421;
-187.8000;0.4510;0.0371;
-187.5000;0.4550;0.0446;
-187.2000;0.4534;0.0446;
-186.9000;0.4526;0.0421;
-186.6000;0.4518;0.0371;
-186.3000;0.4518;0.0347;
-186.0000;0.4477;0.0223;
-185.7000;0.4493;0.0322;
-185.4000;0.4477;0.0223;
-185.1000;0.4510;0.0347;
-184.8000;0.4518;0.0371;
-184.5000;0.4493;0.0272;
-184.2000;0.4518;0.0297;
-183.9000;0.4526;0.0347;
-183.6000;0.4542;0.0347;
-183.3000;0.4542;0.0495;
-183.0000;0.4510;0.0470;
-182.7000;0.4526;0.0470;
-182.4000;0.4501;0.0446;
-182.1000;0.4518;0.0545;
-181.8000;0.4510;0.0619;
-181.5000;0.4526;0.0669;
-181.2000;0.4510;0.0570;
-180.9000;0.4558;0.0718;
-180.6000;0.4567;0.0718;
-180.3000;0.4510;0.0520;
-180.0000;0.4591;0.0743;
-179.7000;0.4526;0.0470;
-179.4000;0.4510;0.0470;
-179.1000;0.4518;0.0545;
-178.8000;0.4510;0.0619;
-178.5000;0.4485;0.0495;
-178.2000;0.4534;0.0594;
-177.9000;0.4526;0.0470;
-177.6000;0.4599;0.0644;
-177.3000;0.4542;0.0446;
-177.0000;0.4518;0.0446;
-176.7000;0.4542;0.0570;
-176.4000;0.4510;0.0520;
-176.1000;0.4526;0.0545;
-175.8000;0.4518;0.0495;
-175.5000;0.4428;0.0322;
-175.2000;0.4501;0.0495;
-174.9000;0.4510;0.0594;
-174.6000;0.4518;0.0619;
-174.3000;0.4518;0.0619;
-174.0000;0.4526;0.0644;
-173.7000;0.4510;0.0545;
-173.4000;0.4526;0.0594;
-173.1000;0.4518;0.0619;
-172.8000;0.4518;0.0594;
-172.5000;0.4501;0.0495;
-172.2000;0.4518;0.0594;
-171.9000;0.4526;0.0619;
-171.6000;0.4542;0.0619;
-171.3000;0.4518;0.0520;
-171.0000;0.4518;0.0570;
-170.7000;0.4550;0.0718;
-170.4000;0.4534;0.0619;
-170.1000;0.4510;0.0570;
-169.8000;0.4485;0.0446;
-169.5000;0.4510;0.0644;
-169.2000;0.4461;0.0470;
-168.9000;0.4510;0.0619;
-168.6000;0.4534;0.0718;
-168.3000;0.4567;0.0669;
-168.0000;0.4518;0.0495;
-167.7000;0.4501;0.0470;
-167.4000;0.4510;0.0446;
-167.1000;0.4526;0.0470;
-166.8000;0.4542;0.0520;
-166.5000;0.4534;0.0470;
-166.2000;0.4526;0.0446;
-165.9000;0.4510;0.0446;
-165.6000;0.4526;0.0446;
-165.3000;0.4534;0.0371;
-165.0000;0.4510;0.0248;
-164.7000;0.4550;0.0396;
-164.4000;0.4526;0.0396;
-164.1000;0.4493;0.0421;
-163.8000;0.4542;0.0495;
-163.5000;0.4510;0.0421;
-163.2000;0.4534;0.0495;
-162.9000;0.4518;0.0396;
-162.6000;0.4518;0.0322;
-162.3000;0.4510;0.0248;
-162.0000;0.4477;0.0198;
-161.7000;0.4501;0.0421;
-161.4000;0.4526;0.0470;
-161.1000;0.4485;0.0223;
-160.8000;0.4518;0.0272;
-160.5000;0.4518;0.0322;
-160.2000;0.4534;0.0421;
-159.9000;0.4510;0.0421;
-159.6000;0.4526;0.0470;
-159.3000;0.4534;0.0520;
-159.0000;0.4526;0.0594;
-158.7000;0.4493;0.0446;
-158.4000;0.4510;0.0371;
-158.1000;0.4501;0.0322;
-157.8000;0.4534;0.0446;
-157.5000;0.4526;0.0371;
-157.2000;0.4542;0.0520;
-156.9000;0.4518;0.0495;
-156.6000;0.4542;0.0594;
-156.3000;0.4534;0.0619;
-156.0000;0.4550;0.0619;
-155.7000;0.4534;0.0669;
-155.4000;0.4575;0.0792;
-155.1000;0.4526;0.0619;
-154.8000;0.4534;0.0669;
-154.5000;0.4518;0.0693;
-154.2000;0.4501;0.0594;
-153.9000;0.4526;0.0619;
-153.6000;0.4510;0.0545;
-153.3000;0.4510;0.0570;
-153.0000;0.4526;0.0570;
-152.7000;0.4526;0.0570;
-152.4000;0.4518;0.0495;
-152.1000;0.4526;0.0495;
-151.8000;0.4542;0.0619;
-151.5000;0.4534;0.0644;
-151.2000;0.4534;0.0619;
-150.9000;0.4501;0.0570;
-150.6000;0.4518;0.0619;
-150.3000;0.4501;0.0520;
-150.0000;0.4534;0.0619;
-149.7000;0.4550;0.0669;
-149.4000;0.4501;0.0520;
-149.1000;0.4518;0.0545;
-148.8000;0.4534;0.0545;
-148.5000;0.4485;0.0520;
-148.2000;0.4510;0.0594;
-147.9000;0.4510;0.0520;
-147.6000;0.4567;0.0594;
-147.3000;0.4526;0.0470;
-147.0000;0.4518;0.0421;
-146.7000;0.4510;0.0396;
-146.4000;0.4518;0.0421;
-146.1000;0.4534;0.0396;
-145.8000;0.4534;0.0396;
-145.5000;0.4510;0.0421;
-145.2000;0.4526;0.0520;
-144.9000;0.4501;0.0495;
-144.6000;0.4501;0.0520;
-144.3000;0.4501;0.0570;
-144.0000;0.4510;0.0446;
-143.7000;0.4518;0.0446;
-143.4000;0.4518;0.0470;
-143.1000;0.4501;0.0470;
-142.8000;0.4501;0.0421;
-142.5000;0.4501;0.0371;
-142.2000;0.4501;0.0223;
-141.9000;0.4518;0.0322;
-141.6000;0.4518;0.0421;
-141.3000;0.4501;0.0396;
-141.0000;0.4510;0.0470;
-140.7000;0.4501;0.0520;
-140.4000;0.4518;0.0495;
-140.1000;0.4558;0.0669;
-139.8000;0.4518;0.0619;
-139.5000;0.4550;0.0594;
-139.2000;0.4518;0.0545;
-138.9000;0.4518;0.0446;
-138.6000;0.4558;0.0470;
-138.3000;0.4534;0.0470;
-138.0000;0.4526;0.0495;
-137.7000;0.4485;0.0371;
-137.4000;0.4518;0.0470;
-137.1000;0.4542;0.0520;
-136.8000;0.4518;0.0545;
-136.5000;0.4510;0.0421;
-136.2000;0.4510;0.0371;
-135.9000;0.4518;0.0396;
-135.6000;0.4510;0.0272;
-135.3000;0.4518;0.0396;
-135.0000;0.4510;0.0322;
-134.7000;0.4485;0.0248;
-134.4000;0.4567;0.0470;
-134.1000;0.4550;0.0396;
-133.8000;0.4518;0.0371;
-133.5000;0.4518;0.0371;
-133.2000;0.4526;0.0371;
-132.9000;0.4518;0.0371;
-132.6000;0.4542;0.0470;
-132.3000;0.4510;0.0371;
-132.0000;0.4510;0.0347;
-131.7000;0.4526;0.0371;
-131.4000;0.4510;0.0347;
-131.1000;0.4510;0.0248;
-130.8000;0.4518;0.0248;
-130.5000;0.4493;0.0223;
-130.2000;0.4518;0.0347;
-129.9000;0.4526;0.0297;
-129.6000;0.4510;0.0272;
-129.3000;0.4526;0.0272;
-129.0000;0.4526;0.0272;
-128.7000;0.4493;0.0149;
-128.4000;0.4518;0.0173;
-128.1000;0.4526;0.0223;
-127.8000;0.4526;0.0248;
-127.5000;0.4526;0.0297;
-127.2000;0.4501;0.0223;
-126.9000;0.4510;0.0297;
-126.6000;0.4526;0.0272;
-126.3000;0.4518;0.0198;
-126.0000;0.4501;0.0248;
-125.7000;0.4493;0.0297;
-125.4000;0.4501;0.0322;
-125.1000;0.4501;0.0322;
-124.8000;0.4542;0.0495;
-124.5000;0.4550;0.0495;
-124.2000;0.4558;0.0421;
-123.9000;0.4534;0.0297;
-123.6000;0.4518;0.0223;
-123.3000;0.4510;0.0297;
-123.0000;0.4526;0.0396;
-122.7000;0.4501;0.0396;
-122.4000;0.4518;0.0495;
-122.1000;0.4518;0.0446;
-121.8000;0.4542;0.0520;
-121.5000;0.4526;0.0446;
-121.2000;0.4510;0.0470;
-120.9000;0.4510;0.0470;
-120.6000;0.4501;0.0421;
-120.3000;0.4510;0.0446;
-120.0000;0.4518;0.0371;
-119.7000;0.4518;0.0297;
-119.4000;0.4518;0.0248;
-119.1000;0.4526;0.0149;
-118.8000;0.4526;0.0198;
-118.5000;0.4534;0.0173;
-118.2000;0.4526;0.0272;
-117.9000;0.4518;0.0297;
-117.6000;0.4550;0.0347;
-117.3000;0.4534;0.0272;
-117.0000;0.4526;0.0272;
-116.7000;0.4518;0.0347;
-116.4000;0.4534;0.0371;
-116.1000;0.4534;0.0347;
-115.8000;0.4526;0.0371;
-115.5000;0.4518;0.0322;
-115.2000;0.4526;0.0297;
-114.9000;0.4534;0.0198;
-114.6000;0.4485;0.0124;
-114.3000;0.4534;0.0272;
-114.0000;0.4518;0.0297;
-113.7000;0.4485;0.0248;
-113.4000;0.4501;0.0347;
-113.1000;0.4493;0.0371;
-112.8000;0.4558;0.0495;
-112.5000;0.4510;0.0371;
-112.2000;0.4526;0.0347;
-111.9000;0.4518;0.0446;
-111.6000;0.4510;0.0520;
-111.3000;0.4518;0.0545;
-111.0000;0.4493;0.0470;
-110.7000;0.4493;0.0421;
-110.4000;0.4518;0.0446;
-110.1000;0.4501;0.0371;
-109.8000;0.4518;0.0446;
-109.5000;0.4518;0.0495;
-109.2000;0.4510;0.0470;
-108.9000;0.4518;0.0495;
-108.6000;0.4607;0.0817;
-108.3000;0.4550;0.0619;
-108.0000;0.4534;0.0545;
-107.7000;0.4558;0.0520;
-107.4000;0.4526;0.0495;
-107.1000;0.4526;0.0446;
-106.8000;0.4518;0.0396;
-106.5000;0.4485;0.0248;
-106.2000;0.4510;0.0272;
-105.9000;0.4526;0.0347;
-105.6000;0.4510;0.0272;
-105.3000;0.4518;0.0272;
-105.0000;0.4526;0.0297;
-104.7000;0.4534;0.0347;
-104.4000;0.4518;0.0223;
-104.1000;0.4526;0.0248;
-103.8000;0.4526;0.0297;
-103.5000;0.4534;0.0347;
-103.2000;0.4518;0.0371;
-102.9000;0.4501;0.0297;
-102.6000;0.4510;0.0347;
-102.3000;0.4518;0.0421;
-102.0000;0.4526;0.0396;
-101.7000;0.4518;0.0347;
-101.4000;0.4534;0.0347;
-101.1000;0.4501;0.0248;
-100.8000;0.4526;0.0149;
-100.5000;0.4526;0.0099;
-100.2000;0.4510;0.0099;
-99.9000;0.4567;0.0297;
-99.6000;0.4518;0.0223;
-99.3000;0.4510;0.0173;
-99.0000;0.4518;0.0223;
-98.7000;0.4501;0.0272;
-98.4000;0.4534;0.0322;
-98.1000;0.4534;0.0396;
-97.8000;0.4461;0.0248;
-97.5000;0.4510;0.0421;
-97.2000;0.4526;0.0495;
-96.9000;0.4518;0.0520;
-96.6000;0.4518;0.0545;
-96.3000;0.4510;0.0570;
-96.0000;0.4501;0.0545;
-95.7000;0.4510;0.0520;
-95.4000;0.4526;0.0570;
-95.1000;0.4510;0.0520;
-94.8000;0.4518;0.0421;
-94.5000;0.4510;0.0446;
-94.2000;0.4526;0.0421;
-93.9000;0.4526;0.0446;
-93.6000;0.4526;0.0446;
-93.3000;0.4550;0.0396;
-93.0000;0.4534;0.0347;
-92.7000;0.4518;0.0421;
-92.4000;0.4518;0.0347;
-92.1000;0.4453;0.0223;
-91.8000;0.4550;0.0495;
-91.5000;0.4526;0.0371;
-91.2000;0.4526;0.0446;
-90.9000;0.4534;0.0446;
-90.6000;0.4493;0.0322;
-90.3000;0.4526;0.0446;
-90.0000;0.4518;0.0421;
-89.7000;0.4567;0.0520;
-89.4000;0.4518;0.0371;
-89.1000;0.4558;0.0421;
-88.8000;0.4518;0.0248;
-88.5000;0.4510;0.0223;
-88.2000;0.4518;0.0297;
-87.9000;0.4526;0.0297;
-87.6000;0.4518;0.0297;
-87.3000;0.4518;0.0272;
-87.0000;0.4510;0.0396;
-86.7000;0.4534;0.0396;
-86.4000;0.4518;0.0322;
-86.1000;0.4518;0.0396;
-85.8000;0.4518;0.0371;
-85.5000;0.4518;0.0322;
-85.2000;0.4534;0.0248;
-84.9000;0.4518;0.0223;
-84.6000;0.4518;0.0074;
-84.3000;0.4518;0.0074;
-84.0000;0.4526;0.0025;
-83.7000;0.4518;0.0124;
-83.4000;0.4534;0.0173;
-83.1000;0.4518;0.0173;
-82.8000;0.4510;0.0248;
-82.5000;0.4510;0.0149;
-82.2000;0.4518;0.0074;
-81.9000;0.4510;0.0050;
-81.6000;0.4542;0.0272;
-81.3000;0.4526;0.0248;
-81.0000;0.4518;0.0297;
-80.7000;0.4534;0.0347;
-80.4000;0.4518;0.0371;
-80.1000;0.4534;0.0446;
-79.8000;0.4542;0.0495;
-79.5000;0.4518;0.0396;
-79.2000;0.4526;0.0371;
-78.9000;0.4550;0.0371;
-78.6000;0.4518;0.0297;
-78.3000;0.4518;0.0322;
-78.0000;0.4501;0.0297;
-77.7000;0.4526;0.0371;
-77.4000;0.4501;0.0248;
-77.1000;0.4526;0.0173;
-76.8000;0.4477;0.0000;
-76.5000;0.4526;0.0149;
-76.2000;0.4518;0.0124;
-75.9000;0.4510;0.0149;
-75.6000;0.4518;0.0173;
-75.3000;0.4510;0.0248;
-75.0000;0.4493;0.0223;
-74.7000;0.4607;0.0520;
-74.4000;0.4510;0.0272;
-74.1000;0.4510;0.0173;
-73.8000;0.4518;0.0173;
-73.5000;0.4599;0.0470;
-73.2000;0.4501;0.0149;
-72.9000;0.4542;0.0223;
-72.6000;0.4510;0.0272;
-72.3000;0.4534;0.0297;
-72.0000;0.4510;0.0223;
-71.7000;0.4493;0.0248;
-71.4000;0.4526;0.0248;
-71.1000;0.4526;0.0272;
-70.8000;0.4599;0.0446;
-70.5000;0.4518;0.0149;
-70.2000;0.4534;0.0223;
-69.9000;0.4518;0.0248;
-69.6000;0.4510;0.0149;
-69.3000;0.4510;0.0223;
-69.0000;0.4550;0.0322;
-68.7000;0.4526;0.0248;
-68.4000;0.4526;0.0297;
-68.1000;0.4542;0.0347;
-67.8000;0.4510;0.0272;
-67.5000;0.4526;0.0248;
-67.2000;0.4510;0.0248;
-66.9000;0.4518;0.0347;
-66.6000;0.4493;0.0272;
-66.3000;0.4518;0.0322;
-66.0000;0.4583;0.0421;
-65.7000;0.4501;0.0124;
-65.4000;0.4526;0.0173;
-65.1000;0.4518;0.0124;
-64.8000;0.4534;0.0173;
-64.5000;0.4518;0.0124;
-64.2000;0.4518;0.0099;
-63.9000;0.4501;0.0074;
-63.6000;0.4510;0.0124;
-63.3000;0.4518;0.0173;
-63.0000;0.4518;0.0297;
-62.7000;0.4526;0.0322;
-62.4000;0.4510;0.0272;
-62.1000;0.4510;0.0297;
-61.8000;0.4518;0.0297;
-61.5000;0.4501;0.0272;
-61.2000;0.4518;0.0297;
-60.9000;0.4558;0.0396;
-60.6000;0.4518;0.0322;
-60.3000;0.4510;0.0297;
-60.0000;0.4461;0.0124;
-59.7000;0.4518;0.0248;
-59.4000;0.4469;0.0124;
-59.1000;0.4510;0.0297;
-58.8000;0.4518;0.0322;
-58.5000;0.4436;0.0050;
-58.2000;0.4534;0.0272;
-57.9000;0.4501;0.0173;
-57.6000;0.4518;0.0272;
-57.3000;0.4493;0.0198;
-57.0000;0.4444;0.0025;
-56.7000;0.4526;0.0099;
-56.4000;0.4510;0.0074;
-56.1000;0.4510;0.0099;
-55.8000;0.4518;0.0099;
-55.5000;0.4510;0.0025;
-55.2000;0.4501;0.0074;
-54.9000;0.4501;0.0074;
-54.6000;0.4542;0.0248;
-54.3000;0.4526;0.0124;
-54.0000;0.4510;-0.0025;
-53.7000;0.4518;-0.0025;
-53.4000;0.4526;0.0050;
-53.1000;0.4526;-0.0074;
-52.8000;0.4542;-0.0025;
-52.5000;0.4485;-0.0025;
-52.2000;0.4510;0.0050;
-51.9000;0.4518;0.0099;
-51.6000;0.4567;0.0297;
-51.3000;0.4518;0.0198;
-51.0000;0.4493;0.0198;
-50.7000;0.4534;0.0446;
-50.4000;0.4542;0.0396;
-50.1000;0.4501;0.0272;
-49.8000;0.4510;0.0371;
-49.5000;0.4526;0.0371;
-49.2000;0.4526;0.0248;
-48.9000;0.4510;0.0173;
-48.6000;0.4501;0.0173;
-48.3000;0.4510;0.0248;
-48.0000;0.4493;0.0272;
-47.7000;0.4518;0.0297;
-47.4000;0.4510;0.0198;
-47.1000;0.4477;0.0124;
-46.8000;0.4518;0.0248;
-46.5000;0.4534;0.0322;
-46.2000;0.4558;0.0371;
-45.9000;0.4534;0.0297;
-45.6000;0.4518;0.0223;
-45.3000;0.4518;0.0223;
-45.0000;0.4526;0.0248;
-44.7000;0.4534;0.0322;
-44.4000;0.4518;0.0297;
-44.1000;0.4501;0.0248;
-43.8000;0.4518;0.0297;
-43.5000;0.4534;0.0322;
-43.2000;0.4518;0.0347;
-42.9000;0.4542;0.0322;
-42.6000;0.4575;0.0421;
-42.3000;0.4583;0.0421;
-42.0000;0.4526;0.0272;
-41.7000;0.4510;0.0248;
-41.4000;0.4526;0.0272;
-41.1000;0.4534;0.0272;
-40.8000;0.4518;0.0149;
-40.5000;0.4510;0.0198;
-40.2000;0.4526;0.0297;
-39.9000;0.4501;0.0248;
-39.6000;0.4501;0.0272;
-39.3000;0.4542;0.0396;
-39.0000;0.4542;0.0421;
-38.7000;0.4542;0.0396;
-38.4000;0.4518;0.0396;
-38.1000;0.4518;0.0371;
-37.8000;0.4534;0.0371;
-37.5000;0.4526;0.0396;
-37.2000;0.4526;0.0446;
-36.9000;0.4501;0.0322;
-36.6000;0.4550;0.0322;
-36.3000;0.4518;0.0272;
-36.0000;0.4550;0.0371;
-35.7000;0.4526;0.0297;
-35.4000;0.4501;0.0223;
-35.1000;0.4485;0.0272;
-34.8000;0.4518;0.0347;
-34.5000;0.4526;0.0297;
-34.2000;0.4510;0.0272;
-33.9000;0.4534;0.0297;
-33.6000;0.4558;0.0371;
-33.3000;0.4518;0.0347;
-33.0000;0.4518;0.0421;
-32.7000;0.4493;0.0248;
-32.4000;0.4526;0.0347;
-32.1000;0.4501;0.0248;
-31.8000;0.4477;0.0149;
-31.5000;0.4469;0.0173;
-31.2000;0.4518;0.0248;
-30.9000;0.4542;0.0297;
-30.6000;0.4550;0.0347;
-30.3000;0.4510;0.0297;
-30.0000;0.4526;0.0297;
-29.7000;0.4501;0.0248;
-29.4000;0.4526;0.0322;
-29.1000;0.4518;0.0272;
-28.8000;0.4510;0.0223;
-28.5000;0.4510;0.0223;
-28.2000;0.4518;0.0272;
-27.9000;0.4567;0.0297;
-27.6000;0.4534;0.0198;
-27.3000;0.4510;0.0198;
-27.0000;0.4510;0.0198;
-26.7000;0.4526;0.0223;
-26.4000;0.4526;0.0124;
-26.1000;0.4542;0.0248;
-25.8000;0.4534;0.0297;
-25.5000;0.4526;0.0322;
-25.2000;0.4510;0.0248;
-24.9000;0.4518;0.0322;
-24.6000;0.4534;0.0396;
-24.3000;0.4510;0.0322;
-24.0000;0.4510;0.0248;
-23.7000;0.4518;0.0173;
-23.4000;0.4526;0.0149;
-23.1000;0.4510;0.0223;
-22.8000;0.4567;0.0371;
-22.5000;0.4526;0.0272;
-22.2000;0.4510;0.0322;
-21.9000;0.4510;0.0297;
-21.6000;0.4518;0.0248;
-21.3000;0.4510;0.0297;
-21.0000;0.4526;0.0322;
-20.7000;0.4534;0.0272;
-20.4000;0.4526;0.0322;
-20.1000;0.4526;0.0371;
-19.8000;0.4534;0.0347;
-19.5000;0.4534;0.0322;
-19.2000;0.4534;0.0272;
-18.9000;0.4550;0.0248;
-18.6000;0.4518;0.0149;
-18.3000;0.4542;0.0272;
-18.0000;0.4526;0.0347;
-17.7000;0.4469;0.0173;
-17.4000;0.4501;0.0248;
-17.1000;0.4461;0.0099;
-16.8000;0.4518;0.0347;
-16.5000;0.4542;0.0272;
-16.2000;0.4518;0.0297;
-15.9000;0.4518;0.0297;
-15.6000;0.4510;0.0248;
-15.3000;0.4567;0.0421;
-15.0000;0.4518;0.0198;
-14.7000;0.4534;0.0223;
-14.4000;0.4526;0.0173;
-14.1000;0.4510;0.0074;
-13.8000;0.4542;0.0124;
-13.5000;0.4518;0.0099;
-13.2000;0.4526;0.0173;
-12.9000;0.4501;0.0025;
-12.6000;0.4485;-0.0124;
-12.3000;0.4526;0.0025;
-12.0000;0.4518;-0.0050;
-11.7000;0.4469;-0.0149;
-11.4000;0.4518;0.0025;
-11.1000;0.4534;0.0099;
-10.8000;0.4493;0.0074;
-10.5000;0.4510;0.0124;
-10.2000;0.4526;0.0173;
-9.9000;0.4518;0.0198;
-9.6000;0.4526;0.0149;
-9.3000;0.4501;0.0149;
-9.0000;0.4510;0.0149;
-8.7000;0.4526;0.0099;
-8.4000;0.4526;0.0149;
-8.1000;0.4526;0.0149;
-7.8000;0.4526;0.0099;
-7.5000;0.4526;0.0000;
-7.2000;0.4510;-0.0025;
-6.9000;0.4550;0.0124;
-6.6000;0.4518;0.0025;
-6.3000;0.4526;0.0074;
-6.0000;0.4534;0.0149;
-5.7000;0.4542;0.0173;
-5.4000;0.4534;0.0248;
-5.1000;0.4518;0.0223;
-4.8000;0.4526;0.0124;
-4.5000;0.4501;0.0050;
-4.2000;0.4518;0.0074;
-3.9000;0.4591;0.0396;
-3.6000;0.4518;0.0198;
-3.3000;0.4510;0.0223;
-3.0000;0.4526;0.0248;
-2.7000;0.4518;0.0248;
-2.4000;0.4510;0.0248;
-2.1000;0.4501;0.0173;
-1.8000;0.4518;0.0173;
-1.5000;0.4518;0.0149;
-1.2000;0.4518;0.0223;
-0.9000;0.4526;0.0272;
-0.6000;0.4510;0.0248;
-0.3000;0.4518;0.0297;
0.0000;0.4518;0.0297;
0.3000;0.4542;0.0124;
0.6000;0.4510;0.0124;
0.9000;0.4526;0.0272;
1.2000;0.4534;0.0446;
1.5000;0.4518;0.0470;
1.8000;0.4558;0.0718;
2.1000;0.4510;0.0619;
2.4000;0.4510;0.0693;
2.7000;0.4558;0.0916;
3.0000;0.4550;0.1065;
3.3000;0.4501;0.0991;
3.6000;0.4510;0.1040;
3.9000;0.4534;0.1090;
4.2000;0.4534;0.1040;
4.5000;0.4518;0.1015;
4.8000;0.4526;0.1040;
5.1000;0.4510;0.1090;
5.4000;0.4542;0.1213;
5.7000;0.4510;0.1114;
6.0000;0.4526;0.1065;
6.3000;0.4534;0.1090;
6.6000;0.4567;0.1139;
6.9000;0.4558;0.1189;
7.2000;0.4558;0.1164;
7.5000;0.4567;0.1213;
7.8000;0.4542;0.1189;
8.1000;0.4550;0.1337;
8.4000;0.4567;0.1387;
8.7000;0.4599;0.1486;
9.0000;0.4558;0.1387;
9.3000;0.4583;0.1461;
9.6000;0.4558;0.1337;
9.9000;0.4542;0.1312;
10.2000;0.4542;0.1337;
10.5000;0.4550;0.1486;
10.8000;0.4567;0.1461;
11.1000;0.4542;0.1337;
11.4000;0.4558;0.1337;
11.7000;0.4567;0.1436;
12.0000;0.4583;0.1486;
12.3000;0.4550;0.1411;
12.6000;0.4558;0.1486;
12.9000;0.4558;0.1535;
13.2000;0.4567;0.1535;
13.5000;0.4567;0.1535;
13.8000;0.4567;0.1634;
14.1000;0.4575;0.1709;
14.4000;0.4550;0.1709;
14.7000;0.4558;0.1659;
15.0000;0.4567;0.1610;
15.3000;0.4583;0.1610;
15.6000;0.4575;0.1560;
15.9000;0.4567;0.1511;
16.2000;0.4575;0.1610;
16.5000;0.4575;0.1610;
16.8000;0.4583;0.1560;
17.1000;0.4567;0.1511;
17.4000;0.4583;0.1461;
17.7000;0.4583;0.1411;
18.0000;0.4542;0.1436;
18.3000;0.4591;0.1659;
18.6000;0.4583;0.1585;
18.9000;0.4567;0.1535;
19.2000;0.4575;0.1560;
19.5000;0.4591;0.1585;
19.8000;0.4583;0.1610;
20.1000;0.4567;0.1585;
20.4000;0.4583;0.1585;
20.7000;0.4567;0.1610;
21.0000;0.4567;0.1560;
21.3000;0.4583;0.1560;
21.6000;0.4575;0.1684;
21.9000;0.4575;0.1733;
22.2000;0.4607;0.1783;
22.5000;0.4575;0.1659;
22.8000;0.4591;0.1585;
23.1000;0.4591;0.1634;
23.4000;0.4583;0.1634;
23.7000;0.4575;0.1585;
24.0000;0.4591;0.1610;
24.3000;0.4632;0.1659;
24.6000;0.4599;0.1511;
24.9000;0.4599;0.1486;
25.2000;0.4567;0.1436;
25.5000;0.4583;0.1461;
25.8000;0.4583;0.1461;
26.1000;0.4583;0.1436;
26.4000;0.4558;0.1486;
26.7000;0.4583;0.1436;
27.0000;0.4599;0.1436;
27.3000;0.4542;0.1337;
27.6000;0.4575;0.1461;
27.9000;0.4624;0.1610;
28.2000;0.4558;0.1436;
28.5000;0.4583;0.1585;
28.8000;0.4591;0.1560;
29.1000;0.4575;0.1486;
29.4000;0.4583;0.1436;
29.7000;0.4583;0.1436;
30.0000;0.4591;0.1387;
30.3000;0.4599;0.1461;
30.6000;0.4583;0.1461;
30.9000;0.4550;0.1337;
31.2000;0.4591;0.1436;
31.5000;0.4583;0.1362;
31.8000;0.4501;0.1139;
32.1000;0.4591;0.1461;
32.4000;0.4591;0.1461;
32.7000;0.4591;0.1461;
33.0000;0.4591;0.1387;
33.3000;0.4583;0.1461;
33.6000;0.4599;0.1535;
33.9000;0.4591;0.1535;
34.2000;0.4615;0.1610;
34.5000;0.4583;0.1634;
34.8000;0.4599;0.1733;
35.1000;0.4664;0.1832;
35.4000;0.4607;0.1709;
35.7000;0.4591;0.1684;
36.0000;0.4599;0.1709;
36.3000;0.4624;0.1783;
36.6000;0.4607;0.1659;
36.9000;0.4607;0.1610;
37.2000;0.4615;0.1659;
37.5000;0.4599;0.1684;
37.8000;0.4599;0.1634;
38.1000;0.4591;0.1535;
38.4000;0.4599;0.1535;
38.7000;0.4591;0.1610;
39.0000;0.4607;0.1585;
39.3000;0.4583;0.1535;
39.6000;0.4599;0.1511;
39.9000;0.4591;0.1511;
40.2000;0.4615;0.1610;
40.5000;0.4615;0.1659;
40.8000;0.4607;0.1709;
41.1000;0.4640;0.1808;
41.4000;0.4615;0.1758;
41.7000;0.4591;0.1709;
42.0000;0.4599;0.1610;
42.3000;0.4599;0.1560;
42.6000;0.4599;0.1634;
42.9000;0.4607;0.1684;
43.2000;0.4697;0.1882;
43.5000;0.4599;0.1684;
43.8000;0.4607;0.1684;
44.1000;0.4615;0.1684;
44.4000;0.4615;0.1783;
44.7000;0.4599;0.1783;
45.0000;0.4599;0.1832;
45.3000;0.4615;0.1808;
45.6000;0.4599;0.1758;
45.9000;0.4615;0.1758;
46.2000;0.4599;0.1733;
46.5000;0.4607;0.1857;
46.8000;0.4599;0.1832;
47.1000;0.4583;0.1733;
47.4000;0.4624;0.1758;
47.7000;0.4591;0.1709;
48.0000;0.4607;0.1832;
48.3000;0.4624;0.1907;
48.6000;0.4599;0.1832;
48.9000;0.4607;0.1832;
49.2000;0.4607;0.1808;
49.5000;0.4607;0.1783;
49.8000;0.4615;0.1733;
50.1000;0.4591;0.1709;
50.4000;0.4607;0.1659;
50.7000;0.4607;0.1709;
51.0000;0.4607;0.1709;
51.3000;0.4624;0.1709;
51.6000;0.4697;0.1956;
51.9000;0.4624;0.1758;
52.2000;0.4599;0.1684;
52.5000;0.4632;0.1783;
52.8000;0.4607;0.1684;
53.1000;0.4624;0.1610;
53.4000;0.4607;0.1560;
53.7000;0.4599;0.1461;
54.0000;0.4607;0.1461;
54.3000;0.4648;0.1560;
54.6000;0.4599;0.1486;
54.9000;0.4591;0.1461;
55.2000;0.4591;0.1436;
55.5000;0.4624;0.1535;
55.8000;0.4607;0.1486;
56.1000;0.4599;0.1486;
56.4000;0.4615;0.1585;
56.7000;0.4607;0.1634;
57.0000;0.4632;0.1684;
57.3000;0.4591;0.1535;
57.6000;0.4599;0.1535;
57.9000;0.4615;0.1535;
58.2000;0.4624;0.1684;
58.5000;0.4632;0.1585;
58.8000;0.4583;0.1511;
59.1000;0.4615;0.1659;
59.4000;0.4615;0.1659;
59.7000;0.4624;0.1684;
60.0000;0.4599;0.1585;
60.3000;0.4615;0.1634;
60.6000;0.4599;0.1709;
60.9000;0.4599;0.1758;
61.2000;0.4615;0.1832;
61.5000;0.4607;0.1783;
61.8000;0.4648;0.1857;
62.1000;0.4632;0.1758;
62.4000;0.4672;0.1783;
62.7000;0.4615;0.1610;
63.0000;0.4591;0.1585;
63.3000;0.4632;0.1585;
63.6000;0.4615;0.1585;
63.9000;0.4615;0.1535;
64.2000;0.4615;0.1634;
64.5000;0.4607;0.1684;
64.8000;0.4607;0.1659;
65.1000;0.4567;0.1560;
65.4000;0.4599;0.1634;
65.7000;0.4599;0.1560;
66.0000;0.4615;0.1610;
66.3000;0.4607;0.1659;
66.6000;0.4599;0.1709;
66.9000;0.4607;0.1709;
67.2000;0.4607;0.1709;
67.5000;0.4599;0.1733;
67.8000;0.4591;0.1733;
68.1000;0.4615;0.1733;
68.4000;0.4615;0.1758;
68.7000;0.4632;0.1733;
69.0000;0.4624;0.1733;
69.3000;0.4607;0.1758;
69.6000;0.4591;0.1758;
69.9000;0.4615;0.1733;
70.2000;0.4615;0.1709;
70.5000;0.4591;0.1634;
70.8000;0.4607;0.1684;
71.1000;0.4583;0.1659;
71.4000;0.4591;0.1684;
71.7000;0.4599;0.1684;
72.0000;0.4615;0.1758;
72.3000;0.4615;0.1709;
72.6000;0.4615;0.1709;
72.9000;0.4615;0.1758;
73.2000;0.4583;0.1709;
73.5000;0.4615;0.1758;
73.8000;0.4632;0.1808;
74.1000;0.4607;0.1709;
74.4000;0.4672;0.1907;
74.7000;0.4599;0.1634;
75.0000;0.4615;0.1634;
75.3000;0.4607;0.1610;
75.6000;0.4607;0.1610;
75.9000;0.4615;0.1634;
76.2000;0.4615;0.1684;
76.5000;0.4599;0.1634;
76.8000;0.4607;0.1535;
77.1000;0.4591;0.1535;
77.4000;0.4607;0.1535;
77.7000;0.4615;0.1535;
78.0000;0.4599;0.1511;
78.3000;0.4591;0.1436;
78.6000;0.4599;0.1436;
78.9000;0.4591;0.1387;
79.2000;0.4615;0.1486;
79.5000;0.4575;0.1411;
79.8000;0.4567;0.1362;
80.1000;0.4624;0.1362;
80.4000;0.4583;0.1263;
80.7000;0.4599;0.1189;
81.0000;0.4591;0.1114;
81.3000;0.4558;0.1040;
81.6000;0.4591;0.1139;
81.9000;0.4607;0.1164;
82.2000;0.4591;0.1238;
82.5000;0.4599;0.1238;
82.8000;0.4599;0.1238;
83.1000;0.4575;0.1189;
83.4000;0.4599;0.1288;
83.7000;0.4607;0.1387;
84.0000;0.4615;0.1486;
84.3000;0.4615;0.1461;
84.6000;0.4599;0.1461;
84.9000;0.4615;0.1461;
85.2000;0.4624;0.1411;
85.5000;0.4591;0.1312;
85.8000;0.4615;0.1337;
86.1000;0.4640;0.1411;
86.4000;0.4607;0.1387;
86.7000;0.4591;0.1288;
87.0000;0.4599;0.1263;
87.3000;0.4591;0.1238;
87.6000;0.4599;0.1312;
87.9000;0.4632;0.1337;
88.2000;0.4632;0.1411;
88.5000;0.4607;0.1337;
88.8000;0.4615;0.1312;
89.1000;0.4615;0.1337;
89.4000;0.4607;0.1436;
89.7000;0.4607;0.1461;
90.0000;0.4607;0.1511;
90.3000;0.4567;0.1461;
90.6000;0.4624;0.1585;
90.9000;0.4599;0.1560;
91.2000;0.4607;0.1659;
91.5000;0.4575;0.1535;
91.8000;0.4583;0.1511;
92.1000;0.4615;0.1634;
92.4000;0.4591;0.1659;
92.7000;0.4599;0.1783;
93.0000;0.4615;0.1808;
93.3000;0.4607;0.1832;
93.6000;0.4599;0.1783;
93.9000;0.4599;0.1758;
94.2000;0.4575;0.1684;
94.5000;0.4599;0.1709;
94.8000;0.4615;0.1684;
95.1000;0.4591;0.1634;
95.4000;0.4591;0.1634;
95.7000;0.4615;0.1659;
96.0000;0.4656;0.1758;
96.3000;0.4615;0.1684;
96.6000;0.4526;0.1436;
96.9000;0.4550;0.1461;
97.2000;0.4558;0.1436;
97.5000;0.4599;0.1610;
97.8000;0.4526;0.1387;
98.1000;0.4607;0.1684;
98.4000;0.4615;0.1783;
98.7000;0.4599;0.1783;
99.0000;0.4583;0.1783;
99.3000;0.4591;0.1709;
99.6000;0.4624;0.1783;
99.9000;0.4607;0.1758;
100.2000;0.4599;0.1907;
100.5000;0.4607;0.1931;
100.8000;0.4599;0.1783;
101.1000;0.4599;0.1783;
101.4000;0.4567;0.1709;
101.7000;0.4583;0.1709;
102.0000;0.4624;0.1758;
102.3000;0.4599;0.1659;
102.6000;0.4599;0.1585;
102.9000;0.4599;0.1535;
103.2000;0.4607;0.1585;
103.5000;0.4591;0.1585;
103.8000;0.4591;0.1634;
104.1000;0.4607;0.1585;
104.4000;0.4567;0.1535;
104.7000;0.4558;0.1511;
105.0000;0.4599;0.1659;
105.3000;0.4518;0.1461;
105.6000;0.4599;0.1709;
105.9000;0.4575;0.1610;
106.2000;0.4624;0.1758;
106.5000;0.4624;0.1659;
106.8000;0.4615;0.1585;
107.1000;0.4607;0.1610;
107.4000;0.4624;0.1585;
107.7000;0.4624;0.1585;
108.0000;0.4624;0.1585;
108.3000;0.4599;0.1585;
108.6000;0.4607;0.1585;
108.9000;0.4607;0.1659;
109.2000;0.4591;0.1634;
109.5000;0.4599;0.1659;
109.8000;0.4599;0.1684;
110.1000;0.4599;0.1634;
110.4000;0.4599;0.1709;
110.7000;0.4599;0.1659;
111.0000;0.4607;0.1634;
111.3000;0.4607;0.1659;
111.6000;0.4607;0.1610;
111.9000;0.4607;0.1634;
112.2000;0.4607;0.1610;
112.5000;0.4599;0.1486;
112.8000;0.4624;0.1560;
113.1000;0.4624;0.1610;
113.4000;0.4615;0.1585;
113.7000;0.4607;0.1610;
114.0000;0.4648;0.1733;
114.3000;0.4599;0.1610;
114.6000;0.4615;0.1634;
114.9000;0.4607;0.1634;
115.2000;0.4599;0.1659;
115.5000;0.4615;0.1610;
115.8000;0.4599;0.1560;
116.1000;0.4607;0.1461;
116.4000;0.4624;0.1486;
116.7000;0.4615;0.1511;
117.0000;0.4607;0.1486;
117.3000;0.4624;0.1535;
117.6000;0.4607;0.1511;
117.9000;0.4607;0.1610;
118.2000;0.4624;0.1684;
118.5000;0.4615;0.1709;
118.8000;0.4599;0.1684;
119.1000;0.4615;0.1709;
119.4000;0.4656;0.1783;
119.7000;0.4607;0.1585;
120.0000;0.4656;0.1733;
120.3000;0.4591;0.1634;
120.6000;0.4607;0.1684;
120.9000;0.4583;0.1560;
121.2000;0.4672;0.1832;
121.5000;0.4615;0.1709;
121.8000;0.4624;0.1733;
122.1000;0.4615;0.1709;
122.4000;0.4624;0.1733;
122.7000;0.4607;0.1783;
123.0000;0.4615;0.1758;
123.3000;0.4624;0.1758;
123.6000;0.4607;0.1832;
123.9000;0.4607;0.1857;
124.2000;0.4607;0.1907;
124.5000;0.4567;0.1758;
124.8000;0.4599;0.1832;
125.1000;0.4583;0.1758;
125.4000;0.4591;0.1684;
125.7000;0.4640;0.1783;
126.0000;0.4591;0.1733;
126.3000;0.4583;0.1733;
126.6000;0.4591;0.1684;
126.9000;0.4607;0.1709;
127.2000;0.4607;0.1684;
127.5000;0.4591;0.1634;
127.8000;0.4591;0.1585;
128.1000;0.4607;0.1659;
128.4000;0.4599;0.1659;
128.7000;0.4607;0.1684;
129.0000;0.4591;0.1634;
129.3000;0.4599;0.1733;
129.6000;0.4648;0.1758;
129.9000;0.4591;0.1659;
130.2000;0.4591;0.1634;
130.5000;0.4607;0.1684;
130.8000;0.4599;0.1634;
131.1000;0.4599;0.1684;
131.4000;0.4607;0.1634;
131.7000;0.4607;0.1634;
132.0000;0.4599;0.1684;
132.3000;0.4591;0.1585;
132.6000;0.4591;0.1634;
132.9000;0.4599;0.1659;
133.2000;0.4615;0.1758;
133.5000;0.4607;0.1659;
133.8000;0.4599;0.1610;
134.1000;0.4591;0.1634;
134.4000;0.4607;0.1659;
134.7000;0.4607;0.1560;
135.0000;0.4575;0.1511;
135.3000;0.4615;0.1634;
135.6000;0.4607;0.1684;
135.9000;0.4599;0.1659;
136.2000;0.4550;0.1560;
136.5000;0.4591;0.1709;
136.8000;0.4599;0.1733;
137.1000;0.4575;0.1659;
137.4000;0.4607;0.1709;
137.7000;0.4591;0.1560;
138.0000;0.4599;0.1511;
138.3000;0.4624;0.1560;
138.6000;0.4591;0.1461;
138.9000;0.4583;0.1461;
139.2000;0.4591;0.1486;
139.5000;0.4632;0.1560;
139.8000;0.4591;0.1535;
140.1000;0.4591;0.1461;
140.4000;0.4567;0.1486;
140.7000;0.4607;0.1634;
141.0000;0.4656;0.1808;
141.3000;0.4583;0.1634;
141.6000;0.4591;0.1659;
141.9000;0.4607;0.1709;
142.2000;0.4599;0.1610;
142.5000;0.4599;0.1610;
142.8000;0.4599;0.1560;
143.1000;0.4599;0.1486;
143.4000;0.4615;0.1535;
143.7000;0.4607;0.1461;
144.0000;0.4599;0.1486;
144.3000;0.4599;0.1511;
144.6000;0.4550;0.1486;
144.9000;0.4624;0.1634;
145.2000;0.4607;0.1634;
145.5000;0.4607;0.1733;
145.8000;0.4607;0.1610;
146.1000;0.4599;0.1610;
146.4000;0.4607;0.1610;
146.7000;0.4607;0.1535;
147.0000;0.4575;0.1486;
147.3000;0.4599;0.1560;
147.6000;0.4607;0.1535;
147.9000;0.4607;0.1535;
148.2000;0.4607;0.1585;
148.5000;0.4607;0.1684;
148.8000;0.4689;0.1931;
149.1000;0.4607;0.1634;
149.4000;0.4615;0.1659;
149.7000;0.4607;0.1560;
150.0000;0.4615;0.1585;
150.3000;0.4607;0.1535;
150.6000;0.4591;0.1486;
150.9000;0.4624;0.1511;
151.2000;0.4615;0.1535;
151.5000;0.4607;0.1560;
151.8000;0.4615;0.1560;
152.1000;0.4591;0.1634;
152.4000;0.4599;0.1659;
152.7000;0.4599;0.1733;
153.0000;0.4591;0.1709;
153.3000;0.4599;0.1684;
153.6000;0.4599;0.1684;
153.9000;0.4615;0.1684;
154.2000;0.4607;0.1709;
154.5000;0.4599;0.1634;
154.8000;0.4607;0.1684;
155.1000;0.4624;0.1783;
155.4000;0.4607;0.1857;
155.7000;0.4599;0.1857;
156.0000;0.4599;0.1882;
156.3000;0.4607;0.1808;
156.6000;0.4615;0.1783;
156.9000;0.4632;0.1808;
157.2000;0.4599;0.1733;
157.5000;0.4599;0.1808;
157.8000;0.4624;0.1783;
158.1000;0.4518;0.1535;
158.4000;0.4591;0.1733;
158.7000;0.4575;0.1684;
159.0000;0.4558;0.1610;
159.3000;0.4567;0.1634;
159.6000;0.4599;0.1709;
159.9000;0.4599;0.1758;
160.2000;0.4558;0.1585;
160.5000;0.4615;0.1684;
160.8000;0.4567;0.1461;
161.1000;0.4599;0.1511;
161.4000;0.4615;0.1511;
161.7000;0.4615;0.1634;
162.0000;0.4599;0.1610;
162.3000;0.4607;0.1709;
162.6000;0.4583;0.1659;
162.9000;0.4599;0.1684;
163.2000;0.4599;0.1709;
163.5000;0.4599;0.1733;
163.8000;0.4624;0.1857;
164.1000;0.4591;0.1758;
164.4000;0.4575;0.1733;
164.7000;0.4583;0.1709;
165.0000;0.4550;0.1535;
165.3000;0.4591;0.1634;
165.6000;0.4591;0.1709;
165.9000;0.4599;0.1832;
166.2000;0.4607;0.1808;
166.5000;0.4599;0.1857;
166.8000;0.4599;0.1907;
167.1000;0.4607;0.1832;
167.4000;0.4607;0.1783;
167.7000;0.4624;0.1783;
168.0000;0.4575;0.1733;
168.3000;0.4607;0.1783;
168.6000;0.4591;0.1535;
168.9000;0.4591;0.1511;
169.2000;0.4607;0.1585;
169.5000;0.4591;0.1585;
169.8000;0.4583;0.1560;
170.1000;0.4599;0.1610;
170.4000;0.4591;0.1634;
170.7000;0.4599;0.1659;
171.0000;0.4632;0.1758;
171.3000;0.4591;0.1610;
171.6000;0.4599;0.1585;
171.9000;0.4607;0.1610;
172.2000;0.4599;0.1585;
172.5000;0.4599;0.1560;
172.8000;0.4599;0.1511;
173.1000;0.4583;0.1461;
173.4000;0.4615;0.1659;
173.7000;0.4583;0.1634;
174.0000;0.4583;0.1709;
174.3000;0.4599;0.1783;
174.6000;0.4607;0.1882;
174.9000;0.4599;0.1882;
175.2000;0.4583;0.1808;
175.5000;0.4607;0.1857;
175.8000;0.4624;0.1832;
176.1000;0.4615;0.1733;
176.4000;0.4534;0.1535;
176.7000;0.4583;0.1659;
177.0000;0.4640;0.1783;
177.3000;0.4607;0.1709;
177.6000;0.4607;0.1758;
177.9000;0.4607;0.1783;
178.2000;0.4607;0.1882;
178.5000;0.4607;0.1907;
178.8000;0.4607;0.1758;
179.1000;0.4640;0.1832;
179.4000;0.4599;0.1659;
179.7000;0.4591;0.1684;
180.0000;0.4615;0.1709;
180.3000;0.4599;0.1733;
180.6000;0.4599;0.1634;
180.9000;0.4542;0.1535;
181.2000;0.4599;0.1733;
181.5000;0.4599;0.1832;
181.8000;0.4583;0.1907;
182.1000;0.4591;0.1931;
182.4000;0.4607;0.1882;
182.7000;0.4615;0.1857;
183.0000;0.4607;0.1709;
183.3000;0.4510;0.1461;
183.6000;0.4599;0.1684;
183.9000;0.4599;0.1709;
184.2000;0.4656;0.1857;
184.5000;0.4591;0.1610;
184.8000;0.4624;0.1684;
185.1000;0.4607;0.1659;
185.4000;0.4599;0.1709;
185.7000;0.4599;0.1709;
186.0000;0.4599;0.1783;
186.3000;0.4640;0.1931;
186.6000;0.4591;0.1709;
186.9000;0.4599;0.1684;
187.2000;0.4583;0.1758;
187.5000;0.4591;0.1758;
187.8000;0.4599;0.1709;
188.1000;0.4599;0.1659;
188.4000;0.4567;0.1560;
188.7000;0.4599;0.1585;
189.0000;0.4689;0.1832;
189.3000;0.4599;0.1535;
189.6000;0.4591;0.1486;
189.9000;0.4583;0.1486;
190.2000;0.4599;0.1411;
190.5000;0.4607;0.1411;
190.8000;0.4615;0.1461;
191.1000;0.4591;0.1511;
191.4000;0.4542;0.1436;
191.7000;0.4607;0.1585;
192.0000;0.4583;0.1585;
192.3000;0.4599;0.1511;
192.6000;0.4615;0.1535;
192.9000;0.4599;0.1560;
193.2000;0.4591;0.1535;
193.5000;0.4591;0.1486;
193.8000;0.4632;0.1585;
194.1000;0.4607;0.1560;
194.4000;0.4583;0.1511;
194.7000;0.4591;0.1535;
195.0000;0.4591;0.1535;
195.3000;0.4607;0.1610;
195.6000;0.4591;0.1560;
195.9000;0.4591;0.1486;
196.2000;0.4591;0.1585;
196.5000;0.4615;0.1659;
196.8000;0.4607;0.1535;
197.1000;0.4640;0.1659;
197.4000;0.4640;0.1709;
197.7000;0.4550;0.1436;
198.0000;0.4599;0.1585;
198.3000;0.4583;0.1634;
198.6000;0.4550;0.1560;
198.9000;0.4583;0.1634;
199.2000;0.4591;0.1758;
199.5000;0.4607;0.1832;
199.8000;0.4575;0.1684;
200.1000;0.4599;0.1783;
200.4000;0.4583;0.1783;
200.7000;0.4599;0.1857;
201.0000;0.4526;0.1684;
201.3000;0.4607;0.1857;
201.6000;0.4591;0.1733;
201.9000;0.4583;0.1684;
202.2000;0.4591;0.1758;
202.5000;0.4567;0.1808;
202.8000;0.4591;0.1907;
203.1000;0.4591;0.1981;
203.4000;0.4599;0.1882;
203.7000;0.4599;0.1857;
204.0000;0.4599;0.1832;
204.3000;0.4599;0.1907;
204.6000;0.4607;0.1907;
204.9000;0.4575;0.1832;
205.2000;0.4615;0.1882;
205.5000;0.4599;0.1808;
205.8000;0.4599;0.1783;
206.1000;0.4567;0.1709;
206.4000;0.4607;0.1832;
206.7000;0.4607;0.1783;
207.0000;0.4599;0.1733;
207.3000;0.4575;0.1585;
207.6000;0.4583;0.1535;
207.9000;0.4607;0.1610;
208.2000;0.4599;0.1610;
208.5000;0.4607;0.1684;
208.8000;0.4575;0.1610;
209.1000;0.4558;0.1511;
209.4000;0.4591;0.1659;
209.7000;0.4599;0.1659;
210.0000;0.4583;0.1634;
210.3000;0.4583;0.1634;
210.6000;0.4599;0.1783;
210.9000;0.4607;0.1758;
211.2000;0.4632;0.1832;
211.5000;0.4591;0.1634;
211.8000;0.4615;0.1659;
212.1000;0.4607;0.1610;
212.4000;0.4640;0.1733;
212.7000;0.4591;0.1684;
213.0000;0.4583;0.1709;
213.3000;0.4615;0.1783;
213.6000;0.4607;0.1733;
213.9000;0.4607;0.1758;
214.2000;0.4591;0.1733;
214.5000;0.4591;0.1808;
214.8000;0.4632;0.1882;
215.1000;0.4591;0.1783;
215.4000;0.4558;0.1733;
215.7000;0.4615;0.1857;
216.0000;0.4567;0.1733;
216.3000;0.4575;0.1659;
216.6000;0.4599;0.1733;
216.9000;0.4575;0.1709;
217.2000;0.4607;0.1857;
217.5000;0.4624;0.1931;
217.8000;0.4607;0.1931;
218.1000;0.4607;0.1981;
218.4000;0.4599;0.1981;
218.7000;0.4599;0.1931;
219.0000;0.4583;0.1882;
219.3000;0.4599;0.1882;
219.6000;0.4591;0.1857;
219.9000;0.4599;0.1758;
220.2000;0.4599;0.1758;
220.5000;0.4599;0.1709;
220.8000;0.4599;0.1808;
221.1000;0.4599;0.1808;
221.4000;0.4615;0.1882;
221.7000;0.4591;0.1783;
222.0000;0.4575;0.1783;
222.3000;0.4591;0.1857;
222.6000;0.4591;0.1956;
222.9000;0.4599;0.1907;
223.2000;0.4640;0.1981;
223.5000;0.4583;0.1857;
223.8000;0.4583;0.1832;
224.1000;0.4648;0.1907;
224.4000;0.4583;0.1758;
224.7000;0.4583;0.1709;
225.0000;0.4591;0.1684;
225.3000;0.4591;0.1659;
225.6000;0.4575;0.1610;
225.9000;0.4599;0.1709;
226.2000;0.4575;0.1634;
226.5000;0.4583;0.1610;
226.8000;0.4599;0.1709;
227.1000;0.4550;0.1634;
227.4000;0.4591;0.1808;
227.7000;0.4607;0.1832;
228.0000;0.4591;0.1733;
228.3000;0.4664;0.1956;
228.6000;0.4591;0.1634;
228.9000;0.4591;0.1610;
229.2000;0.4591;0.1684;
229.5000;0.4599;0.1535;
229.8000;0.4591;0.1610;
230.1000;0.4599;0.1535;
230.4000;0.4607;0.1535;
230.7000;0.4591;0.1511;
231.0000;0.4583;0.1634;
231.3000;0.4615;0.1659;
231.6000;0.4591;0.1634;
231.9000;0.4607;0.1733;
232.2000;0.4575;0.1684;
232.5000;0.4599;0.1709;
232.8000;0.4599;0.1709;
233.1000;0.4599;0.1709;
233.4000;0.4615;0.1758;
233.7000;0.4591;0.1733;
234.0000;0.4591;0.1808;
234.3000;0.4575;0.1758;
234.6000;0.4591;0.1832;
234.9000;0.4550;0.1709;
235.2000;0.4591;0.1857;
235.5000;0.4583;0.1733;
235.8000;0.4575;0.1808;
236.1000;0.4599;0.1956;
236.4000;0.4558;0.1907;
236.7000;0.4591;0.1882;
237.0000;0.4591;0.1808;
237.3000;0.4550;0.1709;
237.6000;0.4558;0.1832;
237.9000;0.4542;0.1758;
238.2000;0.4591;0.2006;
238.5000;0.4583;0.2130;
238.8000;0.4575;0.2105;
239.1000;0.4534;0.1907;
239.4000;0.4591;0.2006;
239.7000;0.4599;0.1981;
240.0000;0.4591;0.2006;
240.3000;0.4599;0.1956;
240.6000;0.4599;0.1956;
240.9000;0.4615;0.1907;
241.2000;0.4591;0.1882;
241.5000;0.4599;0.1931;
241.8000;0.4591;0.1882;
242.1000;0.4607;0.1882;
242.4000;0.4599;0.1808;
242.7000;0.4607;0.1857;
243.0000;0.4591;0.1931;
243.3000;0.4591;0.2006;
243.6000;0.4640;0.2031;
243.9000;0.4583;0.1882;
244.2000;0.4615;0.1931;
244.5000;0.4599;0.1808;
244.8000;0.4599;0.1832;
245.1000;0.4607;0.1783;
245.4000;0.4591;0.1733;
245.7000;0.4599;0.1808;
246.0000;0.4640;0.1931;
246.3000;0.4591;0.1808;
246.6000;0.4607;0.1733;
246.9000;0.4591;0.1758;
247.2000;0.4599;0.1832;
247.5000;0.4583;0.1783;
247.8000;0.4575;0.1709;
248.1000;0.4624;0.1857;
248.4000;0.4599;0.1808;
248.7000;0.4591;0.1783;
249.0000;0.4591;0.1832;
249.3000;0.4591;0.1808;
249.6000;0.4591;0.1783;
249.9000;0.4599;0.1758;
250.2000;0.4599;0.1733;
250.5000;0.4591;0.1733;
250.8000;0.4591;0.1733;
251.1000;0.4567;0.1585;
251.4000;0.4583;0.1610;
251.7000;0.4591;0.1585;
252.0000;0.4575;0.1585;
252.3000;0.4591;0.1684;
252.6000;0.4599;0.1684;
252.9000;0.4640;0.1808;
253.2000;0.4583;0.1659;
253.5000;0.4607;0.1758;
253.8000;0.4607;0.1832;
254.1000;0.4599;0.1907;
254.4000;0.4607;0.1956;
254.7000;0.4615;0.2055;
255.0000;0.4591;0.2006;
255.3000;0.4607;0.1931;
255.6000;0.4599;0.1907;
255.9000;0.4599;0.1907;
256.2000;0.4591;0.1857;
256.5000;0.4583;0.1758;
256.8000;0.4575;0.1758;
257.1000;0.4567;0.1758;
257.4000;0.4591;0.1882;
257.7000;0.4575;0.1857;
258.0000;0.4591;0.1956;
258.3000;0.4575;0.1931;
258.6000;0.4583;0.1956;
258.9000;0.4591;0.2006;
259.2000;0.4583;0.1931;
259.5000;0.4583;0.1783;
259.8000;0.4607;0.1857;
260.1000;0.4591;0.1882;
260.4000;0.4510;0.1659;
260.7000;0.4599;0.1832;
261.0000;0.4591;0.1832;
261.3000;0.4591;0.1882;
261.6000;0.4591;0.1758;
261.9000;0.4591;0.1684;
262.2000;0.4558;0.1560;
262.5000;0.4624;0.1758;
262.8000;0.4599;0.1733;
263.1000;0.4534;0.1659;
263.4000;0.4583;0.1783;
263.7000;0.4591;0.1783;
264.0000;0.4591;0.1783;
264.3000;0.4599;0.1808;
264.6000;0.4607;0.1733;
264.9000;0.4607;0.1733;
265.2000;0.4624;0.1758;
265.5000;0.4583;0.1659;
265.8000;0.4575;0.1610;
266.1000;0.4615;0.1634;
266.4000;0.4583;0.1659;
266.7000;0.4558;0.1585;
267.0000;0.4615;0.1758;
267.3000;0.4575;0.1659;
267.6000;0.4558;0.1634;
267.9000;0.4550;0.1659;
268.2000;0.4583;0.1684;
268.5000;0.4526;0.1535;
268.8000;0.4575;0.1684;
269.1000;0.4615;0.1832;
269.4000;0.4599;0.1808;
269.7000;0.4575;0.1857;
270.0000;0.4591;0.1832;
270.3000;0.4591;0.1832;
270.6000;0.4583;0.1857;
270.9000;0.4591;0.1882;
271.2000;0.4583;0.1808;
271.5000;0.4599;0.1882;
271.8000;0.4567;0.1783;
272.1000;0.4575;0.1634;
272.4000;0.4583;0.1709;
272.7000;0.4583;0.1733;
273.0000;0.4599;0.1758;
273.3000;0.4591;0.1783;
273.6000;0.4583;0.1832;
273.9000;0.4632;0.2055;
274.2000;0.4575;0.1758;
274.5000;0.4664;0.1956;
274.8000;0.4583;0.1634;
275.1000;0.4607;0.1684;
275.4000;0.4591;0.1709;
275.7000;0.4599;0.1733;
276.0000;0.4656;0.1931;
276.3000;0.4607;0.1832;
276.6000;0.4591;0.1808;
276.9000;0.4607;0.1709;
277.2000;0.4591;0.1659;
277.5000;0.4583;0.1684;
277.8000;0.4583;0.1684;
278.1000;0.4599;0.1684;
278.4000;0.4583;0.1634;
278.7000;0.4599;0.1585;
279.0000;0.4550;0.1511;
279.3000;0.4591;0.1610;
279.6000;0.4575;0.1659;
279.9000;0.4575;0.1733;
280.2000;0.4583;0.1659;
280.5000;0.4599;0.1709;
280.8000;0.4599;0.1733;
281.1000;0.4583;0.1684;
281.4000;0.4567;0.1634;
281.7000;0.4583;0.1634;
282.0000;0.4575;0.1634;
282.3000;0.4575;0.1684;
282.6000;0.4575;0.1684;
282.9000;0.4583;0.1684;
283.2000;0.4591;0.1808;
283.5000;0.4591;0.1684;
283.8000;0.4591;0.1733;
284.1000;0.4591;0.1733;
284.4000;0.4591;0.1733;
284.7000;0.4599;0.1758;
285.0000;0.4575;0.1684;
285.3000;0.4591;0.1733;
285.6000;0.4583;0.1733;
285.9000;0.4607;0.1733;
286.2000;0.4599;0.1733;
286.5000;0.4583;0.1709;
286.8000;0.4591;0.1733;
287.1000;0.4607;0.1684;
287.4000;0.4599;0.1684;
287.7000;0.4607;0.1709;
288.0000;0.4599;0.1808;
288.3000;0.4599;0.1709;
288.6000;0.4599;0.1733;
288.9000;0.4632;0.1907;
289.2000;0.4567;0.1684;
289.5000;0.4550;0.1486;
289.8000;0.4615;0.1659;
290.1000;0.4599;0.1585;
290.4000;0.4550;0.1436;
290.7000;0.4607;0.1709;
291.0000;0.4518;0.1511;
291.3000;0.4558;0.1585;
291.6000;0.4575;0.1560;
291.9000;0.4591;0.1659;
292.2000;0.4583;0.1560;
292.5000;0.4648;0.1857;
292.8000;0.4583;0.1659;
293.1000;0.4681;0.1956;
293.4000;0.4624;0.1808;
293.7000;0.4591;0.1808;
294.0000;0.4583;0.1882;
294.3000;0.4607;0.1981;
294.6000;0.4591;0.1907;
294.9000;0.4599;0.1907;
295.2000;0.4583;0.1808;
295.5000;0.4599;0.1832;
295.8000;0.4575;0.1808;
296.1000;0.4575;0.1907;
296.4000;0.4615;0.1931;
296.7000;0.4607;0.1981;
297.0000;0.4591;0.1931;
297.3000;0.4583;0.2006;
297.6000;0.4583;0.2031;
297.9000;0.4558;0.2031;
298.2000;0.4583;0.2080;
298.5000;0.4591;0.2130;
298.8000;0.4599;0.2080;
299.1000;0.4624;0.2080;
299.4000;0.4599;0.1907;
299.7000;0.4575;0.1808;
300.0000;0.4591;0.1907;
300.3000;0.4632;0.2031;
300.6000;0.4591;0.1882;
300.9000;0.4575;0.1832;
301.2000;0.4518;0.1758;
301.5000;0.4591;0.1981;
301.8000;0.4591;0.1931;
302.1000;0.4575;0.1882;
302.4000;0.4591;0.1956;
302.7000;0.4607;0.1931;
303.0000;0.4599;0.1857;
303.3000;0.4583;0.1758;
303.6000;0.4599;0.1808;
303.9000;0.4591;0.1808;
304.2000;0.4583;0.1808;
304.5000;0.4558;0.1709;
304.8000;0.4583;0.1783;
305.1000;0.4591;0.1733;
305.4000;0.4615;0.1758;
305.7000;0.4583;0.1684;
306.0000;0.4575;0.1709;
306.3000;0.4591;0.1907;
306.6000;0.4575;0.1857;
306.9000;0.4591;0.1882;
307.2000;0.4640;0.2006;
307.5000;0.4575;0.1857;
307.8000;0.4575;0.1808;
308.1000;0.4599;0.1832;
308.4000;0.4583;0.1808;
308.7000;0.4583;0.1783;
309.0000;0.4583;0.1808;
309.3000;0.4632;0.1931;
309.6000;0.4567;0.1882;
309.9000;0.4583;0.1857;
310.2000;0.4591;0.1758;
310.5000;0.4632;0.1907;
310.8000;0.4591;0.1783;
311.1000;0.4558;0.1684;
311.4000;0.4591;0.1733;
311.7000;0.4591;0.1733;
312.0000;0.4599;0.1808;
312.3000;0.4607;0.1758;
312.6000;0.4583;0.1758;
312.9000;0.4599;0.1733;
313.2000;0.4558;0.1585;
313.5000;0.4583;0.1610;
313.8000;0.4599;0.1610;
314.1000;0.4599;0.1535;
314.4000;0.4672;0.1783;
314.7000;0.4624;0.1733;
315.0000;0.4607;0.1709;
315.3000;0.4615;0.1733;
315.6000;0.4599;0.1659;
315.9000;0.4624;0.1684;
316.2000;0.4583;0.1585;
316.5000;0.4558;0.1511;
316.8000;0.4583;0.1659;
317.1000;0.4542;0.1610;
317.4000;0.4542;0.1634;
317.7000;0.4550;0.1659;
318.0000;0.4591;0.1832;
318.3000;0.4599;0.1956;
318.6000;0.4575;0.1882;
318.9000;0.4567;0.1882;
319.2000;0.4599;0.1907;
319.5000;0.4591;0.1981;
319.8000;0.4583;0.1981;
320.1000;0.4599;0.1931;
320.4000;0.4599;0.1981;
320.7000;0.4615;0.2055;
321.0000;0.4591;0.1931;
321.3000;0.4591;0.1907;
321.6000;0.4591;0.1907;
321.9000;0.4591;0.1956;
322.2000;0.4583;0.1907;
322.5000;0.4583;0.1931;
322.8000;0.4583;0.1882;
323.1000;0.4583;0.1882;
323.4000;0.4583;0.1907;
323.7000;0.4518;0.1733;
324.0000;0.4583;0.1882;
324.3000;0.4583;0.1882;
324.6000;0.4607;0.1981;
324.9000;0.4591;0.1931;
325.2000;0.4599;0.1857;
325.5000;0.4607;0.1857;
325.8000;0.4591;0.1857;
326.1000;0.4591;0.1857;
326.4000;0.4591;0.1882;
326.7000;0.4567;0.1832;
327.0000;0.4607;0.1882;
327.3000;0.4583;0.1882;
327.6000;0.4583;0.1832;
327.9000;0.4640;0.2031;
328.2000;0.4591;0.1907;
328.5000;0.4575;0.1956;
328.8000;0.4550;0.1808;
329.1000;0.4575;0.1783;
329.4000;0.4624;0.1882;
329.7000;0.4591;0.1783;
330.0000;0.4583;0.1684;
330.3000;0.4583;0.1585;
330.6000;0.4583;0.1585;
330.9000;0.4583;0.1585;
331.2000;0.4615;0.1659;
331.5000;0.4599;0.1610;
331.8000;0.4607;0.1684;
332.1000;0.4591;0.1634;
332.4000;0.4550;0.1585;
332.7000;0.4599;0.1758;
333.0000;0.4591;0.1783;
333.3000;0.4624;0.1882;
333.6000;0.4640;0.1956;
333.9000;0.4599;0.1832;
334.2000;0.4583;0.1808;
334.5000;0.4583;0.1832;
334.8000;0.4567;0.1808;
335.1000;0.4591;0.1808;
335.4000;0.4583;0.1758;
335.7000;0.4583;0.1783;
336.0000;0.4591;0.1758;
336.3000;0.4615;0.1857;
336.6000;0.4583;0.1808;
336.9000;0.4591;0.1857;
337.2000;0.4591;0.1783;
337.5000;0.4615;0.1857;
337.8000;0.4575;0.1758;
338.1000;0.4583;0.1758;
338.4000;0.4583;0.1684;
338.7000;0.4591;0.1659;
339.0000;0.4591;0.1709;
339.3000;0.4583;0.1684;
339.6000;0.4583;0.1709;
339.9000;0.4583;0.1684;
340.2000;0.4591;0.1709;
340.5000;0.4583;0.1709;
340.8000;0.4599;0.1758;
341.1000;0.4640;0.1882;
341.4000;0.4599;0.1758;
341.7000;0.4648;0.1956;
342.0000;0.4575;0.1684;
342.3000;0.4575;0.1733;
342.6000;0.4583;0.1659;
342.9000;0.4583;0.1684;
343.2000;0.4591;0.1808;
343.5000;0.4575;0.1857;
343.8000;0.4591;0.1857;
344.1000;0.4599;0.1758;
344.4000;0.4591;0.1758;
344.7000;0.4583;0.1684;
345.0000;0.4583;0.1634;
345.3000;0.4583;0.1610;
345.6000;0.4583;0.1535;
345.9000;0.4607;0.1634;
346.2000;0.4583;0.1733;
346.5000;0.4607;0.1733;
346.8000;0.4599;0.1758;
347.1000;0.4550;0.1560;
347.4000;0.4599;0.1684;
347.7000;0.4632;0.1857;
348.0000;0.4599;0.1783;
348.3000;0.4583;0.1783;
348.6000;0.4575;0.1758;
348.9000;0.4681;0.2006;
349.2000;0.4575;0.1808;
349.5000;0.4591;0.1832;
349.8000;0.4575;0.1832;
350.1000;0.4599;0.1907;
350.4000;0.4583;0.1857;
350.7000;0.4591;0.1857;
351.0000;0.4567;0.1808;
351.3000;0.4575;0.1832;
351.6000;0.4591;0.1783;
351.9000;0.4575;0.1882;
352.2000;0.4583;0.1808;
352.5000;0.4583;0.1733;
352.8000;0.4591;0.1709;
353.1000;0.4591;0.1808;
353.4000;0.4624;0.1832;
353.7000;0.4583;0.1758;
354.0000;0.4591;0.1808;
354.3000;0.4591;0.1857;
354.6000;0.4591;0.1808;
354.9000;0.4575;0.1733;
355.2000;0.4575;0.1610;
355.5000;0.4591;0.1684;
355.8000;0.4591;0.1709;
356.1000;0.4534;0.1659;
356.4000;0.4558;0.1783;
356.7000;0.4591;0.1857;
357.0000;0.4575;0.1808;
357.3000;0.4575;0.1709;
357.6000;0.4575;0.1733;
357.9000;0.4583;0.1808;
358.2000;0.4599;0.1808;
358.5000;0.4591;0.1832;
358.8000;0.4607;0.1783;
359.1000;0.4583;0.1610;
359.4000;0.4591;0.1684;
359.7000;0.4591;0.1659;
360.0000;0.4583;0.1709;
360.3000;0.4575;0.1808;
360.6000;0.4583;0.1808;
360.9000;0.4583;0.1808;
361.2000;0.4575;0.1832;
361.5000;0.4575;0.1808;
361.8000;0.4583;0.1758;
362.1000;0.4583;0.1832;
362.4000;0.4575;0.1907;
362.7000;0.4575;0.1882;
363.0000;0.4583;0.1857;
363.3000;0.4591;0.1783;
363.6000;0.4591;0.1758;
363.9000;0.4591;0.1832;
364.2000;0.4664;0.2055;
364.5000;0.4607;0.1882;
364.8000;0.4591;0.1808;
365.1000;0.4656;0.2006;
365.4000;0.4599;0.1882;
365.7000;0.4591;0.1857;
366.0000;0.4591;0.1857;
366.3000;0.4599;0.1882;
366.6000;0.4575;0.1832;
366.9000;0.4567;0.1808;
367.2000;0.4664;0.2080;
367.5000;0.4575;0.1857;
367.8000;0.4575;0.1832;
368.1000;0.4575;0.1733;
368.4000;0.4591;0.1733;
368.7000;0.4624;0.1783;
369.0000;0.4599;0.1684;
369.3000;0.4615;0.1709;
369.6000;0.4599;0.1758;
369.9000;0.4583;0.1709;
370.2000;0.4607;0.1684;
370.5000;0.4583;0.1684;
370.8000;0.4591;0.1709;
371.1000;0.4567;0.1659;
371.4000;0.4599;0.1733;
371.7000;0.4567;0.1634;
372.0000;0.4558;0.1560;
372.3000;0.4518;0.1486;
372.6000;0.4591;0.1659;
372.9000;0.4591;0.1733;
373.2000;0.4591;0.1758;
373.5000;0.4591;0.1808;
373.8000;0.4599;0.1783;
374.1000;0.4599;0.1758;
374.4000;0.4583;0.1758;
374.7000;0.4583;0.1758;
375.0000;0.4575;0.1758;
375.3000;0.4550;0.1709;
375.6000;0.4567;0.1808;
375.9000;0.4575;0.1783;
376.2000;0.4550;0.1634;
376.5000;0.4567;0.1758;
376.8000;0.4575;0.1808;
377.1000;0.4567;0.1783;
377.4000;0.4534;0.1659;
377.7000;0.4591;0.1832;
378.0000;0.4575;0.1758;
378.3000;0.4575;0.1659;
378.6000;0.4575;0.1684;
378.9000;0.4575;0.1733;
379.2000;0.4583;0.1758;
379.5000;0.4558;0.1808;
379.8000;0.4583;0.1907;
380.1000;0.4558;0.1882;
380.4000;0.4624;0.2006;
380.7000;0.4575;0.1857;
381.0000;0.4575;0.1907;
381.3000;0.4583;0.1956;
381.6000;0.4607;0.2006;
381.9000;0.4583;0.1907;
382.2000;0.4583;0.1857;
382.5000;0.4583;0.1832;
382.8000;0.4607;0.1808;
383.1000;0.4591;0.1709;
383.4000;0.4575;0.1659;
383.7000;0.4591;0.1758;
384.0000;0.4591;0.1832;
384.3000;0.4583;0.1832;
384.6000;0.4583;0.1857;
384.9000;0.4575;0.1907;
385.2000;0.4583;0.1956;
385.5000;0.4583;0.2006;
385.8000;0.4575;0.1907;
386.1000;0.4575;0.1907;
386.4000;0.4583;0.1931;
386.7000;0.4656;0.2055;
387.0000;0.4583;0.1907;
387.3000;0.4567;0.1832;
387.6000;0.4640;0.2080;
387.9000;0.4591;0.1981;
388.2000;0.4591;0.1956;
388.5000;0.4583;0.1981;
388.8000;0.4583;0.1857;
389.1000;0.4591;0.1857;
389.4000;0.4591;0.1931;
389.7000;0.4591;0.1956;
390.0000;0.4583;0.1956;
390.3000;0.4558;0.1857;
390.6000;0.4567;0.1931;
390.9000;0.4575;0.1907;
391.2000;0.4575;0.1808;
391.5000;0.4583;0.1783;
391.8000;0.4583;0.1783;
392.1000;0.4615;0.1783;
392.4000;0.4591;0.1733;
392.7000;0.4583;0.1709;
393.0000;0.4591;0.1758;
393.3000;0.4591;0.1808;
393.6000;0.4583;0.1733;
393.9000;0.4567;0.1709;
394.2000;0.4583;0.1758;
394.5000;0.4575;0.1783;
394.8000;0.4583;0.1832;
395.1000;0.4567;0.1783;
395.4000;0.4567;0.1832;
395.7000;0.4575;0.1907;
396.0000;0.4575;0.1907;
396.3000;0.4599;0.1931;
396.6000;0.4583;0.1808;
396.9000;0.4607;0.1832;
397.2000;0.4583;0.1733;
397.5000;0.4575;0.1733;
397.8000;0.4583;0.1808;
398.1000;0.4575;0.1783;
398.4000;0.4567;0.1808;
398.7000;0.4567;0.1832;
399.0000;0.4518;0.1659;
399.3000;0.4583;0.1808;
399.6000;0.4591;0.1832;
399.9000;0.4583;0.1709;
400.2000;0.4558;0.1684;
400.5000;0.4615;0.1808;
400.8000;0.4591;0.1808;
401.1000;0.4583;0.1882;
401.4000;0.4534;0.1758;
401.7000;0.4558;0.1857;
402.0000;0.4575;0.1907;
402.3000;0.4583;0.1931;
402.6000;0.4534;0.1783;
402.9000;0.4591;0.1956;
403.2000;0.4575;0.1832;
403.5000;0.4591;0.1758;
403.8000;0.4591;0.1758;
404.1000;0.4575;0.1733;
404.4000;0.4567;0.1733;
404.7000;0.4567;0.1808;
405.0000;0.4567;0.1808;
405.3000;0.4583;0.1832;
405.6000;0.4575;0.1832;
405.9000;0.4550;0.1733;
406.2000;0.4599;0.1907;
406.5000;0.4599;0.1907;
406.8000;0.4567;0.1907;
407.1000;0.4583;0.1907;
407.4000;0.4591;0.1907;
407.7000;0.4583;0.1783;
408.0000;0.4640;0.1907;
408.3000;0.4575;0.1733;
408.6000;0.4575;0.1832;
408.9000;0.4567;0.1882;
409.2000;0.4599;0.1882;
409.5000;0.4607;0.2006;
409.8000;0.4567;0.1857;
410.1000;0.4575;0.1808;
410.4000;0.4575;0.1832;
410.7000;0.4534;0.1659;
411.0000;0.4501;0.1610;
411.3000;0.4567;0.1882;
411.6000;0.4575;0.1907;
411.9000;0.4558;0.1882;
412.2000;0.4583;0.1907;
412.5000;0.4583;0.1857;
412.8000;0.4591;0.1907;
413.1000;0.4575;0.1956;
413.4000;0.4583;0.1931;
413.7000;0.4567;0.1857;
414.0000;0.4534;0.1783;
414.3000;0.4575;0.1808;
414.6000;0.4599;0.1783;
414.9000;0.4583;0.1783;
415.2000;0.4583;0.1882;
415.5000;0.4567;0.1956;
415.8000;0.4550;0.1931;
416.1000;0.4567;0.2006;
416.4000;0.4583;0.1956;
416.7000;0.4607;0.1981;
417.0000;0.4591;0.1882;
417.3000;0.4575;0.1832;
417.6000;0.4583;0.1857;
417.9000;0.4591;0.1808;
418.2000;0.4575;0.1758;
418.5000;0.4583;0.1758;
418.8000;0.4599;0.1758;
419.1000;0.4583;0.1733;
419.4000;0.4575;0.1758;
419.7000;0.4567;0.1758;
420.0000;0.4575;0.1808;
420.3000;0.4567;0.1709;
420.6000;0.4567;0.1808;
420.9000;0.4567;0.1832;
421.2000;0.4558;0.1857;
421.5000;0.4567;0.1882;
421.8000;0.4567;0.1832;
422.1000;0.4599;0.1931;
422.4000;0.4567;0.1758;
422.7000;0.4648;0.1981;
423.0000;0.4583;0.1857;
423.3000;0.4583;0.1832;
423.6000;0.4558;0.1684;
423.9000;0.4534;0.1684;
424.2000;0.4591;0.1783;
424.5000;0.4599;0.1709;
424.8000;0.4656;0.1931;
425.1000;0.4583;0.1659;
425.4000;0.4518;0.1511;
425.7000;0.4575;0.1610;
426.0000;0.4591;0.1610;
426.3000;0.4575;0.1585;
426.6000;0.4591;0.1585;
426.9000;0.4591;0.1634;
427.2000;0.4583;0.1634;
427.5000;0.4615;0.1783;
427.8000;0.4583;0.1659;
428.1000;0.4542;0.1511;
428.4000;0.4599;0.1709;
428.7000;0.4591;0.1733;
429.0000;0.4615;0.1857;
429.3000;0.4575;0.1783;
429.6000;0.4558;0.1733;
429.9000;0.4599;0.1758;
430.2000;0.4624;0.1857;
430.5000;0.4591;0.1783;
430.8000;0.4575;0.1808;
431.1000;0.4542;0.1758;
431.4000;0.4583;0.1857;
431.7000;0.4607;0.1832;
432.0000;0.4591;0.1783;
432.3000;0.4575;0.1659;
432.6000;0.4575;0.1709;
432.9000;0.4599;0.1709;
433.2000;0.4591;0.1659;
433.5000;0.4567;0.1610;
433.8000;0.4583;0.1709;
434.1000;0.4558;0.1585;
434.4000;0.4575;0.1659;
434.7000;0.4542;0.1585;
435.0000;0.4567;0.1634;
435.3000;0.4567;0.1585;
435.6000;0.4583;0.1684;
435.9000;0.4575;0.1684;
436.2000;0.4599;0.1857;
436.5000;0.4575;0.1783;
436.8000;0.4575;0.1808;
437.1000;0.4583;0.1832;
437.4000;0.4583;0.1857;
437.7000;0.4567;0.1758;
438.0000;0.4558;0.1634;
438.3000;0.4575;0.1733;
438.6000;0.4567;0.1733;
438.9000;0.4583;0.1709;
439.2000;0.4558;0.1684;
439.5000;0.4607;0.1808;
439.8000;0.4599;0.1808;
440.1000;0.4607;0.1808;
440.4000;0.4583;0.1709;
440.7000;0.4583;0.1907;
441.0000;0.4583;0.2006;
441.3000;0.4510;0.1857;
441.6000;0.4567;0.2006;
441.9000;0.4567;0.1981;
442.2000;0.4583;0.2080;
442.5000;0.4583;0.2080;
442.8000;0.4567;0.2105;
443.1000;0.4583;0.2154;
443.4000;0.4599;0.2130;
443.7000;0.4567;0.2105;
444.0000;0.4583;0.2055;
444.3000;0.4575;0.1981;
444.6000;0.4575;0.2055;
444.9000;0.4615;0.2105;
445.2000;0.4575;0.1931;
445.5000;0.4583;0.2031;
445.8000;0.4575;0.2055;
446.1000;0.4575;0.2031;
446.4000;0.4575;0.1956;
446.7000;0.4583;0.2031;
447.0000;0.4575;0.2006;
447.3000;0.4542;0.1956;
447.6000;0.4656;0.2179;
447.9000;0.4599;0.2031;
448.2000;0.4583;0.1907;
448.5000;0.4575;0.1907;
448.8000;0.4632;0.2031;
449.1000;0.4591;0.1931;
449.4000;0.4583;0.1907;
449.7000;0.4567;0.1907;
450.0000;0.4591;0.1907;
450.3000;0.4575;0.1882;
450.6000;0.4575;0.1956;
450.9000;0.4575;0.1931;
451.2000;0.4575;0.1907;
451.5000;0.4615;0.2006;
451.8000;0.4664;0.2105;
452.1000;0.4575;0.1808;
452.4000;0.4575;0.1832;
452.7000;0.4599;0.1832;
453.0000;0.4558;0.1832;
453.3000;0.4575;0.1758;
453.6000;0.4583;0.1733;
453.9000;0.4607;0.1808;
454.2000;0.4575;0.1758;
454.5000;0.4583;0.1758;
454.8000;0.4518;0.1585;
455.1000;0.4575;0.1758;
455.4000;0.4575;0.1783;
455.7000;0.4567;0.1832;
456.0000;0.4542;0.1709;
456.3000;0.4567;0.1758;
456.6000;0.4575;0.1733;
456.9000;0.4550;0.1733;
457.2000;0.4550;0.1659;
457.5000;0.4526;0.1610;
457.8000;0.4583;0.1758;
458.1000;0.4583;0.1808;
458.4000;0.4558;0.1783;
458.7000;0.4575;0.1808;
459.0000;0.4591;0.1832;
459.3000;0.4583;0.1758;
459.6000;0.4567;0.1684;
459.9000;0.4567;0.1659;
460.2000;0.4599;0.1684;
460.5000;0.4583;0.1659;
460.8000;0.4575;0.1634;
461.1000;0.4558;0.1634;
461.4000;0.4567;0.1659;
461.7000;0.4591;0.1684;
462.0000;0.4575;0.1684;
462.3000;0.4567;0.1758;
462.6000;0.4575;0.1709;
462.9000;0.4583;0.1659;
463.2000;0.4583;0.1634;
463.5000;0.4567;0.1585;
463.8000;0.4567;0.1486;
464.1000;0.4526;0.1436;
464.4000;0.4607;0.1634;
464.7000;0.4575;0.1511;
465.0000;0.4567;0.1486;
465.3000;0.4558;0.1535;
465.6000;0.4567;0.1709;
465.9000;0.4542;0.1585;
466.2000;0.4591;0.1783;
466.5000;0.4575;0.1733;
466.8000;0.4583;0.1832;
467.1000;0.4542;0.1783;
467.4000;0.4567;0.1808;
467.7000;0.4575;0.1783;
468.0000;0.4575;0.1832;
468.3000;0.4591;0.1882;
468.6000;0.4567;0.1832;
468.9000;0.4567;0.1832;
469.2000;0.4575;0.1783;
469.5000;0.4583;0.1857;
469.8000;0.4567;0.1832;
470.1000;0.4542;0.1709;
470.4000;0.4615;0.1783;
470.7000;0.4575;0.1634;
471.0000;0.4567;0.1684;
471.3000;0.4567;0.1709;
471.6000;0.4575;0.1610;
471.9000;0.4591;0.1684;
472.2000;0.4583;0.1808;
472.5000;0.4583;0.1783;
472.8000;0.4591;0.1709;
473.1000;0.4591;0.1684;
473.4000;0.4624;0.1783;
473.7000;0.4583;0.1733;
474.0000;0.4583;0.1733;
474.3000;0.4567;0.1709;
474.6000;0.4583;0.1733;
474.9000;0.4542;0.1783;
475.2000;0.4575;0.1857;
475.5000;0.4542;0.1931;
475.8000;0.4558;0.2031;
476.1000;0.4550;0.1981;
476.4000;0.4567;0.1931;
476.7000;0.4567;0.1931;
477.0000;0.4550;0.1882;
477.3000;0.4575;0.1931;
477.6000;0.4575;0.1956;
477.9000;0.4575;0.1907;
478.2000;0.4648;0.2031;
478.5000;0.4575;0.1882;
478.8000;0.4591;0.1882;
479.1000;0.4575;0.1832;
479.4000;0.4583;0.1882;
479.7000;0.4583;0.1907;
480.0000;0.4575;0.1907;
480.3000;0.4567;0.1882;
480.6000;0.4558;0.1857;
480.9000;0.4591;0.1981;
481.2000;0.4550;0.1758;
481.5000;0.4575;0.1808;
481.8000;0.4567;0.1758;
482.1000;0.4542;0.1659;
482.4000;0.4567;0.1684;
482.7000;0.4550;0.1610;
483.0000;0.4558;0.1585;
483.3000;0.4542;0.1535;
483.6000;0.4575;0.1634;
483.9000;0.4558;0.1659;
484.2000;0.4575;0.1733;
484.5000;0.4583;0.1758;
484.8000;0.4558;0.1709;
485.1000;0.4567;0.1684;
485.4000;0.4583;0.1783;
485.7000;0.4567;0.1709;
486.0000;0.4567;0.1709;
486.3000;0.4583;0.1684;
486.6000;0.4583;0.1684;
486.9000;0.4583;0.1758;
487.2000;0.4575;0.1733;
487.5000;0.4583;0.1882;
487.8000;0.4591;0.1857;
488.1000;0.4567;0.1783;
488.4000;0.4567;0.1733;
488.7000;0.4567;0.1832;
489.0000;0.4591;0.1981;
489.3000;0.4534;0.1857;
489.6000;0.4542;0.1808;
489.9000;0.4550;0.1783;
490.2000;0.4583;0.1857;
490.5000;0.4567;0.1857;
490.8000;0.4567;0.1931;
491.1000;0.4583;0.2031;
491.4000;0.4575;0.2080;
491.7000;0.4558;0.1857;
492.0000;0.4567;0.1907;
492.3000;0.4558;0.1808;
492.6000;0.4575;0.1758;
492.9000;0.4550;0.1709;
493.2000;0.4575;0.1758;
493.5000;0.4591;0.1832;
493.8000;0.4558;0.1783;
494.1000;0.4567;0.1733;
494.4000;0.4575;0.1758;
494.7000;0.4575;0.1808;
495.0000;0.4567;0.1808;
495.3000;0.4583;0.1832;
495.6000;0.4591;0.1882;
495.9000;0.4567;0.1783;
496.2000;0.4567;0.1758;
496.5000;0.4567;0.1709;
496.8000;0.4583;0.1808;
497.1000;0.4575;0.1783;
497.4000;0.4558;0.1758;
497.7000;0.4575;0.1783;
498.0000;0.4607;0.1808;
498.3000;0.4575;0.1808;
498.6000;0.4575;0.1832;
498.9000;0.4575;0.1857;
499.2000;0.4575;0.1956;
499.5000;0.4583;0.1857;
499.8000;0.4591;0.1808;
500.1000;0.4591;0.1832;
500.4000;0.4575;0.1832;
500.7000;0.4599;0.1832;
501.0000;0.4510;0.1684;
501.3000;0.4567;0.1758;
501.6000;0.4575;0.1832;
501.9000;0.4567;0.1832;
502.2000;0.4583;0.1808;
502.5000;0.4583;0.1758;
502.8000;0.4591;0.1857;
503.1000;0.4526;0.1684;
503.4000;0.4583;0.1907;
503.7000;0.4567;0.1907;
504.0000;0.4558;0.1907;
504.3000;0.4542;0.1931;
504.6000;0.4567;0.1907;
504.9000;0.4567;0.1857;
505.2000;0.4575;0.1956;
505.5000;0.4534;0.1907;
505.8000;0.4567;0.2006;
506.1000;0.4607;0.2031;
506.4000;0.4550;0.1907;
506.7000;0.4567;0.1857;
507.0000;0.4575;0.1857;
507.3000;0.4591;0.1956;
507.6000;0.4567;0.1956;
507.9000;0.4583;0.1907;
508.2000;0.4567;0.1832;
508.5000;0.4575;0.1808;
508.8000;0.4550;0.1783;
509.1000;0.4550;0.1709;
509.4000;0.4599;0.1882;
509.7000;0.4575;0.1956;
510.0000;0.4567;0.1882;
510.3000;0.4550;0.1857;
510.6000;0.4567;0.1931;
510.9000;0.4567;0.1956;
511.2000;0.4583;0.1931;
511.5000;0.4550;0.1956;
511.8000;0.4575;0.2006;
512.1000;0.4575;0.2031;
512.4000;0.4567;0.1981;
512.7000;0.4558;0.1956;
513.0000;0.4575;0.2055;
513.3000;0.4607;0.2229;
513.6000;0.4567;0.2154;
513.9000;0.4575;0.2154;
514.2000;0.4558;0.2130;
514.5000;0.4567;0.2179;
514.8000;0.4575;0.2179;
515.1000;0.4567;0.2006;
515.4000;0.4567;0.1907;
515.7000;0.4567;0.1857;
516.0000;0.4558;0.1907;
516.3000;0.4558;0.1907;
516.6000;0.4575;0.1857;
516.9000;0.4501;0.1733;
517.2000;0.4542;0.1907;
517.5000;0.4575;0.1981;
517.8000;0.4558;0.1882;
518.1000;0.4567;0.1882;
518.4000;0.4567;0.1857;
518.7000;0.4567;0.1956;
519.0000;0.4575;0.2006;
519.3000;0.4567;0.1981;
519.6000;0.4583;0.2006;
519.9000;0.4583;0.1956;
520.2000;0.4575;0.1931;
520.5000;0.4558;0.1907;
520.8000;0.4558;0.1857;
521.1000;0.4550;0.1857;
521.4000;0.4583;0.1956;
521.7000;0.4567;0.1931;
522.0000;0.4575;0.2055;
522.3000;0.4599;0.2080;
522.6000;0.4591;0.2055;
522.9000;0.4558;0.1981;
523.2000;0.4575;0.1981;
523.5000;0.4575;0.2006;
523.8000;0.4575;0.1956;
524.1000;0.4558;0.1857;
524.4000;0.4575;0.1882;
524.7000;0.4567;0.1882;
525.0000;0.4567;0.1832;
525.3000;0.4583;0.1931;
525.6000;0.4575;0.1907;
525.9000;0.4567;0.1758;
526.2000;0.4591;0.1857;
526.5000;0.4558;0.1808;
526.8000;0.4558;0.1783;
527.1000;0.4501;0.1659;
527.4000;0.4575;0.1857;
527.7000;0.4567;0.1857;
528.0000;0.4583;0.1907;
528.3000;0.4567;0.1857;
528.6000;0.4632;0.2055;
528.9000;0.4567;0.1907;
529.2000;0.4558;0.2031;
529.5000;0.4567;0.1981;
529.8000;0.4558;0.1956;
530.1000;0.4575;0.1981;
530.4000;0.4567;0.1956;
530.7000;0.4558;0.1857;
531.0000;0.4550;0.1882;
531.3000;0.4583;0.1832;
531.6000;0.4583;0.1907;
531.9000;0.4583;0.1882;
532.2000;0.4583;0.1857;
532.5000;0.4567;0.1857;
532.8000;0.4615;0.2006;
533.1000;0.4567;0.1907;
533.4000;0.4550;0.1808;
533.7000;0.4575;0.1882;
534.0000;0.4567;0.1956;
534.3000;0.4558;0.1956;
534.6000;0.4567;0.1907;
534.9000;0.4558;0.1857;
535.2000;0.4493;0.1783;
535.5000;0.4575;0.1956;
535.8000;0.4575;0.1907;
536.1000;0.4599;0.1956;
536.4000;0.4575;0.1981;
536.7000;0.4567;0.1956;
537.0000;0.4599;0.1956;
537.3000;0.4542;0.1907;
537.6000;0.4558;0.2006;
537.9000;0.4567;0.1981;
538.2000;0.4575;0.1882;
538.5000;0.4567;0.1857;
538.8000;0.4567;0.1832;
539.1000;0.4558;0.1832;
539.4000;0.4575;0.1956;
539.7000;0.4567;0.1907;
540.0000;0.4550;0.1832;
540.3000;0.4583;0.1981;
540.6000;0.4575;0.1981;
540.9000;0.4567;0.1931;
541.2000;0.4575;0.1981;
541.5000;0.4575;0.1981;
541.8000;0.4526;0.1832;
542.1000;0.4558;0.1931;
542.4000;0.4591;0.1981;
542.7000;0.4575;0.2055;
543.0000;0.4567;0.2031;
543.3000;0.4591;0.2154;
543.6000;0.4558;0.2080;
543.9000;0.4583;0.2179;
544.2000;0.4510;0.1882;
544.5000;0.4575;0.2154;
544.8000;0.4607;0.2229;
545.1000;0.4550;0.1981;
545.4000;0.4558;0.1931;
545.7000;0.4558;0.2055;
546.0000;0.4558;0.2031;
546.3000;0.4575;0.2080;
546.6000;0.4550;0.2055;
546.9000;0.4542;0.1956;
547.2000;0.4558;0.2080;
547.5000;0.4542;0.2055;
547.8000;0.4599;0.2229;
548.1000;0.4558;0.2080;
548.4000;0.4567;0.2105;
548.7000;0.4493;0.2006;
549.0000;0.4526;0.2055;
549.3000;0.4567;0.2080;
549.6000;0.4648;0.2352;
549.9000;0.4575;0.2154;
550.2000;0.4575;0.2055;
550.5000;0.4567;0.2154;
550.8000;0.4583;0.2130;
551.1000;0.4567;0.2055;
551.4000;0.4575;0.2080;
551.7000;0.4501;0.1931;
552.0000;0.4510;0.2031;
552.3000;0.4558;0.2105;
552.6000;0.4583;0.2105;
552.9000;0.4558;0.2105;
553.2000;0.4567;0.1981;
553.5000;0.4575;0.2105;
553.8000;0.4575;0.2105;
554.1000;0.4550;0.1981;
554.4000;0.4558;0.1907;
554.7000;0.4493;0.1733;
555.0000;0.4567;0.1931;
555.3000;0.4558;0.1931;
555.6000;0.4542;0.1931;
555.9000;0.4567;0.1956;
556.2000;0.4591;0.1882;
556.5000;0.4567;0.1758;
556.8000;0.4567;0.1733;
557.1000;0.4542;0.1832;
557.4000;0.4558;0.1981;
557.7000;0.4567;0.1981;
558.0000;0.4558;0.1956;
558.3000;0.4534;0.1931;
558.6000;0.4558;0.2006;
558.9000;0.4550;0.1981;
559.2000;0.4550;0.1931;
559.5000;0.4526;0.1907;
559.8000;0.4542;0.1981;
560.1000;0.4575;0.2080;
560.4000;0.4558;0.2105;
560.7000;0.4567;0.2080;
561.0000;0.4575;0.2080;
561.3000;0.4591;0.2105;
561.6000;0.4591;0.2006;
561.9000;0.4567;0.1931;
562.2000;0.4558;0.1981;
562.5000;0.4534;0.1882;
562.8000;0.4567;0.1981;
563.1000;0.4567;0.2006;
563.4000;0.4599;0.2080;
563.7000;0.4534;0.1907;
564.0000;0.4518;0.1832;
564.3000;0.4550;0.1882;
564.6000;0.4550;0.1907;
564.9000;0.4583;0.1981;
565.2000;0.4542;0.1907;
565.5000;0.4558;0.1882;
565.8000;0.4558;0.1931;
566.1000;0.4550;0.1956;
566.4000;0.4567;0.2105;
566.7000;0.4550;0.2055;
567.0000;0.4534;0.2055;
567.3000;0.4550;0.2080;
567.6000;0.4558;0.2105;
567.9000;0.4567;0.2105;
568.2000;0.4550;0.1981;
568.5000;0.4542;0.1981;
568.8000;0.4607;0.2080;
569.1000;0.4550;0.1931;
569.4000;0.4615;0.2154;
569.7000;0.4558;0.2031;
570.0000;0.4501;0.1907;
570.3000;0.4583;0.1956;
570.6000;0.4567;0.1931;
570.9000;0.4575;0.1956;
571.2000;0.4558;0.1857;
571.5000;0.4558;0.1907;
571.8000;0.4575;0.1956;
572.1000;0.4591;0.2080;
572.4000;0.4567;0.1931;
572.7000;0.4583;0.2006;
573.0000;0.4624;0.2154;
573.3000;0.4575;0.1956;
573.6000;0.4575;0.2006;
573.9000;0.4558;0.2055;
574.2000;0.4558;0.2031;
574.5000;0.4542;0.1907;
574.8000;0.4567;0.1931;
575.1000;0.4550;0.1882;
575.4000;0.4567;0.1882;
575.7000;0.4550;0.1733;
576.0000;0.4558;0.1733;
576.3000;0.4558;0.1758;
576.6000;0.4575;0.1733;
576.9000;0.4575;0.1709;
577.2000;0.4567;0.1709;
577.5000;0.4567;0.1783;
577.8000;0.4542;0.1758;
578.1000;0.4583;0.1907;
578.4000;0.4558;0.1907;
578.7000;0.4567;0.1882;
579.0000;0.4567;0.1832;
579.3000;0.4567;0.1808;
579.6000;0.4567;0.1733;
579.9000;0.4558;0.1684;
580.2000;0.4550;0.1634;
580.5000;0.4583;0.1709;
580.8000;0.4567;0.1709;
581.1000;0.4534;0.1634;
581.4000;0.4558;0.1659;
581.7000;0.4550;0.1684;
582.0000;0.4567;0.1659;
582.3000;0.4583;0.1709;
582.6000;0.4542;0.1610;
582.9000;0.4550;0.1610;
583.2000;0.4558;0.1610;
583.5000;0.4575;0.1610;
583.8000;0.4558;0.1511;
584.1000;0.4485;0.1312;
584.4000;0.4567;0.1585;
584.7000;0.4558;0.1634;
585.0000;0.4575;0.1659;
585.3000;0.4591;0.1758;
585.6000;0.4567;0.1684;
585.9000;0.4583;0.1634;
586.2000;0.4567;0.1610;
586.5000;0.4526;0.1585;
586.8000;0.4567;0.1659;
587.1000;0.4575;0.1684;
587.4000;0.4575;0.1610;
587.7000;0.4567;0.1634;
588.0000;0.4534;0.1634;
588.3000;0.4567;0.1808;
588.6000;0.4534;0.1733;
588.9000;0.4575;0.1857;
589.2000;0.4575;0.1882;
589.5000;0.4558;0.1832;
589.8000;0.4550;0.1758;
590.1000;0.4558;0.1659;
590.4000;0.4550;0.1486;
590.7000;0.4558;0.1461;
591.0000;0.4567;0.1511;
591.3000;0.4567;0.1486;
591.6000;0.4550;0.1535;
591.9000;0.4558;0.1585;
592.2000;0.4567;0.1634;
592.5000;0.4558;0.1684;
592.8000;0.4591;0.1808;
593.1000;0.4542;0.1659;
593.4000;0.4550;0.1659;
593.7000;0.4575;0.1684;
594.0000;0.4558;0.1610;
594.3000;0.4567;0.1560;
594.6000;0.4542;0.1634;
594.9000;0.4567;0.1733;
595.2000;0.4558;0.1783;
595.5000;0.4550;0.1808;
595.8000;0.4567;0.1907;
596.1000;0.4558;0.1956;
596.4000;0.4575;0.1981;
596.7000;0.4558;0.1931;
597.0000;0.4550;0.1857;
597.3000;0.4550;0.1931;
597.6000;0.4583;0.1956;
597.9000;0.4550;0.1857;
598.2000;0.4567;0.1882;
598.5000;0.4567;0.1882;
598.8000;0.4558;0.1832;
599.1000;0.4607;0.2055;
599.4000;0.4558;0.1857;
599.7000;0.4510;0.1659;
600.0000;0.4558;0.1808;
600.3000;0.4575;0.1733;
600.6000;0.4583;0.1634;
600.9000;0.4575;0.1535;
601.2000;0.4567;0.1486;
601.5000;0.4558;0.1511;
601.8000;0.4518;0.1337;
602.1000;0.4396;0.1015;
602.4000;0.4444;0.1090;
602.7000;0.4428;0.1015;
603.0000;0.4420;0.0916;
603.3000;0.4379;0.0817;
603.6000;0.4363;0.0842;
603.9000;0.4363;0.0768;
604.2000;0.4330;0.0743;
604.5000;0.4282;0.0693;
604.8000;0.4282;0.0669;
605.1000;0.4282;0.0570;
605.4000;0.4249;0.0495;
605.7000;0.4225;0.0495;
606.0000;0.4200;0.0545;
606.3000;0.4176;0.0470;
606.6000;0.4160;0.0396;
606.9000;0.4168;0.0421;
607.2000;0.4135;0.0347;
607.5000;0.4168;0.0446;
607.8000;0.4127;0.0371;
608.1000;0.4127;0.0470;
608.4000;0.4103;0.0347;
608.7000;0.4160;0.0520;
609.0000;0.4078;0.0371;
609.3000;0.4086;0.0446;
609.6000;0.4046;0.0371;
609.9000;0.4054;0.0297;
610.2000;0.4021;0.0272;
610.5000;0.4037;0.0371;
610.8000;0.4029;0.0371;
611.1000;0.4029;0.0421;
611.4000;0.4013;0.0470;
611.7000;0.3997;0.0470;
612.0000;0.4021;0.0495;
612.3000;0.3980;0.0396;
612.6000;0.3989;0.0396;
612.9000;0.3956;0.0322;
613.2000;0.3940;0.0446;
613.5000;0.3940;0.0446;
613.8000;0.3875;0.0248;
614.1000;0.3923;0.0396;
614.4000;0.3915;0.0322;
614.7000;0.3899;0.0297;
615.0000;0.3899;0.0347;
615.3000;0.3891;0.0347;
615.6000;0.3940;0.0371;
615.9000;0.3899;0.0322;
616.2000;0.3867;0.0248;
616.5000;0.3867;0.0248;
616.8000;0.3850;0.0272;
617.1000;0.3858;0.0297;
617.4000;0.3826;0.0248;
617.7000;0.3826;0.0248;
618.0000;0.3736;0.0074;
618.3000;0.3858;0.0347;
618.6000;0.3793;0.0198;
618.9000;0.3761;0.0025;
619.2000;0.3818;0.0198;
619.5000;0.3785;0.0050;
619.8000;0.3810;0.0149;
620.1000;0.3728;0.0000;
620.4000;0.3785;0.0248;
620.7000;0.3793;0.0248;
621.0000;0.3785;0.0223;
621.3000;0.3769;0.0198;
621.6000;0.3761;0.0173;
621.9000;0.3753;0.0198;
622.2000;0.3761;0.0124;
622.5000;0.3720;0.0074;
622.8000;0.3728;0.0149;
623.1000;0.3663;0.0099;
623.4000;0.3736;0.0272;
623.7000;0.3704;0.0272;
624.0000;0.3704;0.0248;
624.3000;0.3696;0.0198;
624.6000;0.3687;0.0223;
624.9000;0.3679;0.0149;
625.2000;0.3687;0.0173;
625.5000;0.3671;0.0124;
625.8000;0.3663;0.0198;
626.1000;0.3663;0.0223;
626.4000;0.3647;0.0198;
626.7000;0.3663;0.0272;
627.0000;0.3647;0.0297;
627.3000;0.3647;0.0272;
627.6000;0.3647;0.0223;
627.9000;0.3630;0.0149;
628.2000;0.3630;0.0124;
628.5000;0.3622;0.0099;
628.8000;0.3639;0.0050;
629.1000;0.3614;0.0099;
629.4000;0.3606;0.0050;
629.7000;0.3630;0.0099;
630.0000;0.3606;0.0025;
630.3000;0.3622;0.0124;
630.6000;0.3590;0.0074;
630.9000;0.3590;0.0074;
631.2000;0.3598;0.0099;
631.5000;0.3533;-0.0074;
631.8000;0.3582;0.0025;
632.1000;0.3582;0.0050;
632.4000;0.3573;0.0025;
632.7000;0.3557;0.0074;
633.0000;0.3557;-0.0025;
633.3000;0.3557;-0.0050;
633.6000;0.3565;0.0000;
633.9000;0.3590;0.0149;
634.2000;0.3484;-0.0198;
634.5000;0.3533;-0.0124;
634.8000;0.3525;-0.0099;
635.1000;0.3541;-0.0025;
635.4000;0.3573;0.0025;
635.7000;0.3525;-0.0099;
636.0000;0.3533;-0.0050;
636.3000;0.3460;-0.0149;
636.6000;0.3549;0.0025;
636.9000;0.3508;0.0050;
637.2000;0.3500;-0.0025;
637.5000;0.3508;-0.0025;
637.8000;0.3500;-0.0050;
638.1000;0.3500;-0.0025;
638.4000;0.3500;0.0025;
638.7000;0.3492;0.0050;
639.0000;0.3516;0.0050;
639.3000;0.3573;0.0124;
639.6000;0.3460;-0.0173;
639.9000;0.3516;0.0074;
640.2000;0.3476;0.0050;
640.5000;0.3476;0.0000;
640.8000;0.3435;-0.0198;
641.1000;0.3484;-0.0099;
641.4000;0.3468;-0.0025;
641.7000;0.3492;0.0000;
642.0000;0.3460;-0.0074;
642.3000;0.3492;-0.0025;
642.6000;0.3508;0.0124;
642.9000;0.3484;0.0050;
643.2000;0.3443;0.0050;
643.5000;0.3451;0.0074;
643.8000;0.3476;0.0149;
644.1000;0.3443;0.0198;
644.4000;0.3419;0.0149;
644.7000;0.3435;0.0149;
645.0000;0.3443;0.0050;
645.3000;0.3451;0.0025;
645.6000;0.3435;0.0025;
645.9000;0.3394;0.0000;
646.2000;0.3411;-0.0025;
646.5000;0.3411;-0.0025;
646.8000;0.3411;0.0074;
647.1000;0.3403;0.0000;
647.4000;0.3403;0.0000;
647.7000;0.3386;-0.0025;
648.0000;0.3394;-0.0050;
648.3000;0.3403;-0.0099;
648.6000;0.3386;-0.0173;
648.9000;0.3378;-0.0149;
649.2000;0.3394;-0.0099;
649.5000;0.3386;-0.0074;
649.8000;0.3386;-0.0025;
650.1000;0.3386;-0.0050;
650.4000;0.3378;0.0025;
650.7000;0.3370;-0.0025;
651.0000;0.3313;-0.0099;
651.3000;0.3386;0.0173;
651.6000;0.3378;0.0173;
651.9000;0.3354;0.0173;
652.2000;0.3329;0.0099;
652.5000;0.3394;0.0322;
652.8000;0.3354;0.0173;
653.1000;0.3378;0.0223;
653.4000;0.3321;0.0050;
653.7000;0.3346;0.0099;
654.0000;0.3346;0.0050;
654.3000;0.3354;0.0050;
654.6000;0.3337;0.0099;
654.9000;0.3346;0.0074;
655.2000;0.3427;0.0272;
655.5000;0.3362;0.0124;
655.8000;0.3337;0.0124;
656.1000;0.3337;0.0050;
656.4000;0.3297;0.0025;
656.7000;0.3321;0.0173;
657.0000;0.3321;0.0272;
657.3000;0.3313;0.0198;
657.6000;0.3346;0.0272;
657.9000;0.3305;0.0198;
658.2000;0.3362;0.0272;
658.5000;0.3378;0.0297;
658.8000;0.3313;0.0074;
659.1000;0.3289;-0.0025;
659.4000;0.3297;-0.0050;
659.7000;0.3321;0.0000;
660.0000;0.3223;-0.0099;
660.3000;0.3346;0.0223;
660.6000;0.3256;0.0050;
660.9000;0.3297;0.0223;
661.2000;0.3321;0.0322;
661.5000;0.3289;0.0248;
661.8000;0.3289;0.0248;
662.1000;0.3297;0.0248;
662.4000;0.3305;0.0173;
662.7000;0.3297;0.0149;
663.0000;0.3256;0.0025;
663.3000;0.3272;0.0074;
663.6000;0.3280;0.0099;
663.9000;0.3272;0.0074;
664.2000;0.3272;0.0000;
664.5000;0.3272;0.0050;
664.8000;0.3297;0.0074;
665.1000;0.3264;0.0074;
665.4000;0.3264;0.0050;
665.7000;0.3248;0.0050;
666.0000;0.3272;0.0149;
666.3000;0.3272;0.0124;
666.6000;0.3272;0.0000;
666.9000;0.3248;-0.0050;
667.2000;0.3248;-0.0074;
667.5000;0.3256;-0.0074;
667.8000;0.3248;-0.0099;
668.1000;0.3248;-0.0074;
668.4000;0.3248;-0.0050;
668.7000;0.3256;-0.0025;
669.0000;0.3256;-0.0074;
669.3000;0.3256;-0.0050;
669.6000;0.3232;-0.0124;
669.9000;0.3248;-0.0198;
670.2000;0.3289;-0.0074;
670.5000;0.3240;-0.0173;
670.8000;0.3256;-0.0173;
671.1000;0.3256;-0.0025;
671.4000;0.3248;-0.0050;
671.7000;0.3248;-0.0074;
672.0000;0.3232;-0.0050;
672.3000;0.3240;0.0050;
672.6000;0.3223;0.0000;
672.9000;0.3223;-0.0099;
673.2000;0.3207;-0.0099;
673.5000;0.3215;-0.0149;
673.8000;0.3232;-0.0099;
674.1000;0.3215;-0.0173;
674.4000;0.3207;-0.0322;
674.7000;0.3215;-0.0396;
675.0000;0.3240;-0.0322;
675.3000;0.3191;-0.0371;
675.6000;0.3215;-0.0322;
675.9000;0.3248;-0.0149;
676.2000;0.3215;-0.0099;
676.5000;0.3199;-0.0124;
676.8000;0.3215;-0.0025;
677.1000;0.3232;0.0099;
677.4000;0.3199;0.0074;
677.7000;0.3223;0.0074;
678.0000;0.3223;0.0000;
678.3000;0.3175;-0.0074;
678.6000;0.3207;-0.0025;
678.9000;0.3199;-0.0074;
679.2000;0.3232;-0.0050;
679.5000;0.3207;-0.0149;
679.8000;0.3223;-0.0099;
680.1000;0.3207;-0.0173;
680.4000;0.3207;-0.0124;
680.7000;0.3191;-0.0099;
681.0000;0.3175;-0.0149;
681.3000;0.3207;0.0000;
681.6000;0.3207;0.0124;
681.9000;0.3118;-0.0124;
682.2000;0.3183;0.0050;
682.5000;0.3199;0.0099;
682.8000;0.3207;0.0149;
683.1000;0.3191;0.0099;
683.4000;0.3166;0.0074;
683.7000;0.3175;0.0099;
684.0000;0.3166;0.0124;
684.3000;0.3166;0.0099;
684.6000;0.3183;-0.0025;
684.9000;0.3150;0.0025;
685.2000;0.3191;0.0124;
685.5000;0.3175;0.0099;
685.8000;0.3175;0.0074;
686.1000;0.3175;0.0124;
686.4000;0.3166;0.0124;
686.7000;0.3183;0.0025;
687.0000;0.3183;-0.0025;
687.3000;0.3191;-0.0025;
687.6000;0.3175;-0.0074;
687.9000;0.3175;0.0000;
688.2000;0.3175;0.0050;
688.5000;0.3175;0.0074;
688.8000;0.3166;0.0025;
689.1000;0.3118;0.0000;
689.4000;0.3150;0.0050;
689.7000;0.3142;-0.0025;
690.0000;0.3223;0.0272;
690.3000;0.3158;0.0099;
690.6000;0.3126;0.0074;
690.9000;0.3150;0.0124;
691.2000;0.3158;0.0198;
691.5000;0.3150;0.0124;
691.8000;0.3158;0.0099;
692.1000;0.3150;-0.0025;
692.4000;0.3150;-0.0050;
692.7000;0.3134;-0.0050;
693.0000;0.3126;-0.0025;
693.3000;0.3126;-0.0025;
693.6000;0.3134;-0.0050;
693.9000;0.3134;-0.0050;
694.2000;0.3134;-0.0074;
694.5000;0.3150;-0.0025;
694.8000;0.3142;-0.0025;
695.1000;0.3118;-0.0173;
695.4000;0.3109;-0.0223;
695.7000;0.3126;-0.0149;
696.0000;0.3126;0.0050;
696.3000;0.3142;0.0099;
696.6000;0.3118;0.0124;
696.9000;0.3134;0.0198;
697.2000;0.3126;0.0149;
697.5000;0.3134;0.0198;
697.8000;0.3101;0.0124;
698.1000;0.3126;0.0050;
698.4000;0.3158;0.0050;
698.7000;0.3142;0.0074;
699.0000;0.3126;0.0025;
699.3000;0.3199;0.0198;
699.6000;0.3126;-0.0025;
699.9000;0.3134;0.0025;
700.2000;0.3085;-0.0025;
700.5000;0.3126;0.0124;
700.8000;0.3118;0.0149;
701.1000;0.3093;0.0050;
701.4000;0.3093;0.0025;
701.7000;0.3077;-0.0050;
702.0000;0.3134;0.0124;
702.3000;0.3093;0.0050;
702.6000;0.3093;0.0074;
702.9000;0.3142;0.0198;
703.2000;0.3069;0.0025;
703.5000;0.3085;0.0050;
703.8000;0.3101;0.0099;
704.1000;0.3101;0.0050;
704.4000;0.3118;0.0050;
704.7000;0.3118;-0.0074;
705.0000;0.3118;0.0074;
705.3000;0.3093;0.0025;
705.6000;0.3093;0.0099;
705.9000;0.3085;0.0099;
706.2000;0.3101;0.0099;
706.5000;0.3085;0.0025;
706.8000;0.3150;0.0248;
707.1000;0.3109;0.0173;
707.4000;0.3093;0.0173;
707.7000;0.3077;0.0173;
708.0000;0.3085;0.0173;
708.3000;0.3109;0.0173;
708.6000;0.3101;0.0099;
708.9000;0.3053;-0.0124;
709.2000;0.3077;-0.0050;
709.5000;0.3069;-0.0074;
709.8000;0.3109;0.0025;
710.1000;0.3077;0.0025;
710.4000;0.3069;0.0099;
710.7000;0.3053;0.0000;
711.0000;0.3053;0.0025;
711.3000;0.3077;0.0074;
711.6000;0.3085;0.0074;
711.9000;0.3085;0.0074;
712.2000;0.3069;0.0050;
712.5000;0.3085;0.0074;
712.8000;0.3101;0.0025;
713.1000;0.3077;0.0000;
713.4000;0.3061;0.0025;
713.7000;0.3077;0.0074;
714.0000;0.3069;0.0099;
714.3000;0.3085;0.0000;
714.6000;0.3069;-0.0099;
714.9000;0.3085;-0.0050;
715.2000;0.3101;-0.0025;
715.5000;0.3093;-0.0124;
715.8000;0.3069;-0.0248;
716.1000;0.3085;-0.0198;
716.4000;0.3077;-0.0223;
716.7000;0.3069;-0.0173;
717.0000;0.3028;-0.0198;
717.3000;0.3077;-0.0050;
717.6000;0.3069;-0.0074;
717.9000;0.3077;0.0000;
718.2000;0.3085;0.0050;
718.5000;0.3061;0.0099;
718.8000;0.3061;0.0099;
719.1000;0.3069;0.0149;
719.4000;0.3101;0.0272;
719.7000;0.3069;0.0223;
720.0000;0.3093;0.0198;
720.3000;0.3077;0.0099;
720.6000;0.3061;-0.0074;
720.9000;0.3061;0.0000;
721.2000;0.3077;0.0149;
721.5000;0.3069;0.0173;
721.8000;0.3077;0.0223;
722.1000;0.3053;0.0074;
722.4000;0.3061;0.0025;
722.7000;0.3061;0.0000;
723.0000;0.3061;0.0025;
723.3000;0.3053;0.0025;
723.6000;0.3069;0.0124;
723.9000;0.3069;0.0272;
724.2000;0.3061;0.0223;
724.5000;0.3069;0.0223;
724.8000;0.3118;0.0347;
725.1000;0.3044;0.0149;
725.4000;0.3053;0.0149;
725.7000;0.3053;0.0124;
726.0000;0.3036;0.0099;
726.3000;0.3004;0.0050;
726.6000;0.3077;0.0223;
726.9000;0.3053;0.0223;
727.2000;0.3044;0.0173;
727.5000;0.3020;0.0025;
727.8000;0.3053;0.0074;
728.1000;0.3061;0.0124;
728.4000;0.3085;0.0173;
728.7000;0.3053;0.0025;
729.0000;0.3044;0.0074;
729.3000;0.3069;0.0124;
729.6000;0.3069;0.0099;
729.9000;0.3036;0.0074;
730.2000;0.3053;0.0099;
730.5000;0.3053;0.0149;
730.8000;0.3044;0.0149;
731.1000;0.3061;0.0173;
731.4000;0.3036;0.0074;
731.7000;0.3053;0.0099;
732.0000;0.3053;0.0149;
732.3000;0.3036;0.0074;
732.6000;0.3012;0.0099;
732.9000;0.3020;0.0025;
733.2000;0.3053;0.0000;
733.5000;0.3028;0.0000;
733.8000;0.3020;0.0074;
734.1000;0.3053;0.0198;
734.4000;0.3061;0.0297;
734.7000;0.3036;0.0248;
735.0000;0.3004;0.0223;
735.3000;0.3028;0.0248;
735.6000;0.3036;0.0223;
735.9000;0.3020;0.0149;
736.2000;0.3036;0.0124;
736.5000;0.3028;0.0149;
736.8000;0.3028;0.0099;
737.1000;0.2996;-0.0025;
737.4000;0.3036;0.0025;
737.7000;0.3044;0.0099;
738.0000;0.3044;0.0173;
738.3000;0.3036;0.0099;
738.6000;0.3012;0.0099;
738.9000;0.3044;0.0198;
739.2000;0.3020;0.0173;
739.5000;0.3020;0.0297;
739.8000;0.3004;0.0173;
740.1000;0.3020;0.0198;
740.4000;0.3012;0.0099;
740.7000;0.3020;0.0124;
741.0000;0.3028;0.0074;
741.3000;0.3004;0.0050;
741.6000;0.3036;0.0124;
741.9000;0.3044;0.0198;
742.2000;0.3044;0.0149;
742.5000;0.3053;0.0149;
742.8000;0.3020;0.0000;
743.1000;0.3020;-0.0074;
743.4000;0.3020;-0.0025;
743.7000;0.2996;-0.0099;
744.0000;0.3020;-0.0099;
744.3000;0.3044;0.0025;
744.6000;0.3020;0.0025;
744.9000;0.3020;0.0000;
745.2000;0.3028;0.0050;
745.5000;0.3004;0.0050;
745.8000;0.3028;0.0074;
746.1000;0.3028;0.0000;
746.4000;0.3012;-0.0099;
746.7000;0.3012;-0.0124;
747.0000;0.3004;-0.0198;
747.3000;0.2947;-0.0347;
747.6000;0.3004;-0.0149;
747.9000;0.3044;-0.0149;
748.2000;0.3020;-0.0173;
748.5000;0.3012;-0.0223;
748.8000;0.3020;-0.0223;
749.1000;0.3020;-0.0248;
749.4000;0.2987;-0.0272;
749.7000;0.3012;-0.0198;
750.0000;0.3028;-0.0124;
750.3000;0.2971;-0.0223;
750.6000;0.3012;-0.0149;
750.9000;0.3004;-0.0149;
751.2000;0.3004;-0.0124;
751.5000;0.3012;-0.0124;
751.8000;0.3004;-0.0173;
752.1000;0.3101;0.0099;
752.4000;0.2987;-0.0173;
752.7000;0.3004;-0.0149;
753.0000;0.3020;-0.0099;
753.3000;0.3004;-0.0099;
753.6000;0.3053;0.0000;
753.9000;0.3004;-0.0124;
754.2000;0.2996;-0.0149;
754.5000;0.3012;-0.0074;
754.8000;0.3004;0.0050;
755.1000;0.3004;0.0000;
755.4000;0.3028;-0.0025;
755.7000;0.3004;-0.0149;
756.0000;0.3004;-0.0099;
756.3000;0.2987;-0.0074;
756.6000;0.3053;0.0149;
756.9000;0.2963;-0.0074;
757.2000;0.3020;0.0173;
757.5000;0.2996;0.0124;
757.8000;0.3012;0.0149;
758.1000;0.2971;0.0000;
758.4000;0.2996;0.0025;
758.7000;0.3004;0.0000;
759.0000;0.3004;0.0025;
759.3000;0.3004;0.0050;
759.6000;0.2996;0.0000;
759.9000;0.2890;-0.0248;
760.2000;0.2971;-0.0050;
760.5000;0.3004;0.0025;
760.8000;0.2979;0.0000;
761.1000;0.2939;-0.0223;
761.4000;0.3028;0.0050;
761.7000;0.2987;-0.0025;
762.0000;0.3004;0.0000;
762.3000;0.2987;-0.0124;
762.6000;0.2979;-0.0149;
762.9000;0.3020;-0.0050;
763.2000;0.3004;-0.0124;
763.5000;0.2987;-0.0149;
763.8000;0.3004;-0.0099;
764.1000;0.3004;-0.0074;
764.4000;0.2987;-0.0149;
764.7000;0.2987;-0.0223;
765.0000;0.2987;-0.0198;
765.3000;0.3012;-0.0223;
765.6000;0.2996;-0.0297;
765.9000;0.2979;-0.0173;
766.2000;0.2979;-0.0099;
766.5000;0.2963;-0.0074;
766.8000;0.2987;-0.0050;
767.1000;0.2971;-0.0025;
767.4000;0.2996;-0.0124;
767.7000;0.3004;-0.0124;
768.0000;0.3012;-0.0173;
768.3000;0.2971;-0.0297;
768.6000;0.2987;-0.0248;
768.9000;0.2996;-0.0149;
769.2000;0.2987;-0.0149;
769.5000;0.2996;-0.0149;
769.8000;0.2996;-0.0173;
770.1000;0.2979;-0.0074;
770.4000;0.2971;-0.0025;
770.7000;0.2996;0.0025;
771.0000;0.2971;-0.0099;
771.3000;0.2979;-0.0074;
771.6000;0.2987;-0.0074;
771.9000;0.2996;-0.0050;
772.2000;0.2979;-0.0099;
772.5000;0.2996;-0.0025;
772.8000;0.2971;-0.0025;
773.1000;0.2963;-0.0050;
773.4000;0.2996;-0.0025;
773.7000;0.2971;-0.0050;
774.0000;0.3004;0.0050;
774.3000;0.2914;-0.0173;
774.6000;0.3004;0.0074;
774.9000;0.2996;0.0025;
775.2000;0.2979;-0.0050;
775.5000;0.3004;0.0050;
775.8000;0.3012;0.0050;
776.1000;0.2979;-0.0074;
776.4000;0.2971;-0.0025;
776.7000;0.2987;0.0074;
777.0000;0.3004;0.0074;
777.3000;0.2979;-0.0074;
777.6000;0.2963;-0.0198;
777.9000;0.2979;-0.0099;
778.2000;0.2963;-0.0074;
778.5000;0.2971;-0.0074;
778.8000;0.2971;-0.0074;
779.1000;0.2979;-0.0074;
779.4000;0.2939;-0.0124;
779.7000;0.2987;-0.0050;
780.0000;0.2955;-0.0074;
780.3000;0.2987;-0.0124;
780.6000;0.3004;-0.0099;
780.9000;0.2979;-0.0173;
781.2000;0.2979;-0.0124;
781.5000;0.2963;-0.0198;
781.8000;0.2963;-0.0173;
782.1000;0.2979;-0.0198;
782.4000;0.2979;-0.0099;
782.7000;0.2979;-0.0099;
783.0000;0.2914;-0.0297;
783.3000;0.2987;-0.0074;
783.6000;0.2987;-0.0025;
783.9000;0.2971;-0.0099;
784.2000;0.3004;-0.0099;
784.5000;0.2971;-0.0173;
784.8000;0.2987;-0.0050;
785.1000;0.2996;-0.0050;
785.4000;0.2971;-0.0099;
785.7000;0.2979;-0.0198;
786.0000;0.2971;-0.0149;
786.3000;0.2987;-0.0099;
786.6000;0.3004;-0.0025;
786.9000;0.2971;-0.0074;
787.2000;0.2930;-0.0198;
787.5000;0.2979;-0.0198;
787.8000;0.2955;-0.0223;
788.1000;0.2979;-0.0173;
788.4000;0.3085;0.0124;
788.7000;0.2971;-0.0173;
789.0000;0.2963;-0.0198;
789.3000;0.2963;-0.0198;
789.6000;0.2947;-0.0248;
789.9000;0.2963;-0.0248;
790.2000;0.3020;-0.0099;
790.5000;0.2971;-0.0173;
790.8000;0.2963;-0.0272;
791.1000;0.2955;-0.0272;
791.4000;0.2947;-0.0198;
791.7000;0.2955;-0.0248;
792.0000;0.2947;-0.0421;
792.3000;0.2939;-0.0495;
792.6000;0.2971;-0.0396;
792.9000;0.2971;-0.0371;
793.2000;0.3036;-0.0173;
793.5000;0.2971;-0.0347;
793.8000;0.2971;-0.0272;
794.1000;0.2963;-0.0272;
794.4000;0.2963;-0.0272;
794.7000;0.2882;-0.0446;
795.0000;0.2955;-0.0223;
795.3000;0.3020;-0.0025;
795.6000;0.2963;-0.0149;
795.9000;0.2947;-0.0099;
796.2000;0.3012;0.0025;
796.5000;0.2987;-0.0149;
796.8000;0.2955;-0.0198;
797.1000;0.2955;-0.0272;
797.4000;0.2955;-0.0272;
797.7000;0.2971;-0.0248;
798.0000;0.2955;-0.0124;
798.3000;0.2939;-0.0099;
798.6000;0.2963;-0.0050;
798.9000;0.2971;-0.0025;
799.2000;0.2979;0.0050;
799.5000;0.2914;-0.0025;
799.8000;0.2947;0.0099;
800.1000;0.2955;0.0173;
800.4000;0.2979;0.0198;
800.7000;0.2963;0.0198;
801.0000;0.2930;0.0124;
801.3000;0.2955;0.0124;
801.6000;0.2963;0.0124;
801.9000;0.2979;0.0124;
802.2000;0.2971;0.0099;
802.5000;0.2963;0.0099;
802.8000;0.2963;0.0050;
803.1000;0.2939;-0.0050;
803.4000;0.3004;0.0099;
803.7000;0.2955;-0.0099;
804.0000;0.2947;-0.0099;
804.3000;0.2947;-0.0149;
804.6000;0.2979;-0.0297;
804.9000;0.2930;-0.0297;
805.2000;0.2963;-0.0050;
805.5000;0.2939;-0.0074;
805.8000;0.2947;-0.0074;
806.1000;0.2955;-0.0025;
806.4000;0.2996;0.0025;
806.7000;0.2939;-0.0099;
807.0000;0.2955;-0.0074;
807.3000;0.2971;-0.0050;
807.6000;0.2947;-0.0149;
807.9000;0.2906;-0.0198;
808.2000;0.2947;-0.0074;
808.5000;0.2947;-0.0074;
808.8000;0.2971;-0.0074;
809.1000;0.2963;-0.0050;
809.4000;0.2947;-0.0050;
809.7000;0.2947;-0.0099;
810.0000;0.2930;-0.0124;
810.3000;0.2947;-0.0050;
810.6000;0.2955;-0.0050;
810.9000;0.2947;0.0050;
811.2000;0.2865;-0.0223;
811.5000;0.2996;-0.0025;
811.8000;0.2890;-0.0322;
812.1000;0.2955;-0.0198;
812.4000;0.2922;-0.0248;
812.7000;0.2955;-0.0173;
813.0000;0.2955;-0.0124;
813.3000;0.2963;-0.0099;
813.6000;0.2939;-0.0248;
813.9000;0.2939;-0.0149;
814.2000;0.2808;-0.0421;
814.5000;0.2947;-0.0099;
814.8000;0.2955;-0.0050;
815.1000;0.2947;-0.0149;
815.4000;0.2930;-0.0173;
815.7000;0.2947;-0.0198;
816.0000;0.2963;-0.0149;
816.3000;0.2939;-0.0149;
816.6000;0.2939;-0.0223;
816.9000;0.2955;-0.0272;
817.2000;0.2955;-0.0272;
817.5000;0.2947;-0.0347;
817.8000;0.2939;-0.0223;
818.1000;0.2947;-0.0198;
818.4000;0.2963;-0.0198;
818.7000;0.2947;-0.0223;
819.0000;0.2963;-0.0248;
819.3000;0.2930;-0.0223;
819.6000;0.2987;0.0000;
819.9000;0.2947;-0.0074;
820.2000;0.2955;-0.0025;
820.5000;0.2930;-0.0074;
820.8000;0.2939;-0.0149;
821.1000;0.2930;-0.0223;
821.4000;0.2939;-0.0223;
821.7000;0.2947;-0.0124;
822.0000;0.2930;-0.0198;
822.3000;0.2922;-0.0272;
822.6000;0.2947;-0.0198;
822.9000;0.2922;-0.0272;
823.2000;0.2939;-0.0198;
823.5000;0.2971;-0.0173;
823.8000;0.2939;-0.0272;
824.1000;0.2939;-0.0223;
824.4000;0.2963;-0.0248;
824.7000;0.2947;-0.0223;
825.0000;0.2955;-0.0173;
825.3000;0.2939;-0.0198;
825.6000;0.2930;-0.0124;
825.9000;0.2939;-0.0074;
826.2000;0.2939;0.0025;
826.5000;0.2914;-0.0025;
826.8000;0.2922;-0.0149;
827.1000;0.2939;-0.0099;
827.4000;0.2947;-0.0025;
827.7000;0.2947;0.0025;
828.0000;0.2882;-0.0099;
828.3000;0.2939;-0.0050;
828.6000;0.2930;0.0000;
828.9000;0.2930;0.0000;
829.2000;0.2930;0.0025;
829.5000;0.2930;0.0124;
829.8000;0.2930;0.0050;
830.1000;0.2947;0.0050;
830.4000;0.2939;0.0050;
830.7000;0.2922;0.0124;
831.0000;0.2922;0.0074;
831.3000;0.2971;0.0099;
831.6000;0.2947;0.0124;
831.9000;0.2922;0.0074;
832.2000;0.2906;0.0025;
832.5000;0.2914;0.0025;
832.8000;0.2930;0.0050;
833.1000;0.2922;-0.0198;
833.4000;0.2939;-0.0173;
833.7000;0.2930;-0.0198;
834.0000;0.2963;-0.0124;
834.3000;0.2882;-0.0297;
834.6000;0.2939;-0.0099;
834.9000;0.2930;-0.0099;
835.2000;0.2971;-0.0074;
835.5000;0.2947;-0.0124;
835.8000;0.2939;-0.0173;
836.1000;0.2947;-0.0149;
836.4000;0.2930;-0.0099;
836.7000;0.2930;-0.0074;
837.0000;0.2922;-0.0050;
837.3000;0.2939;0.0000;
837.6000;0.2939;0.0025;
837.9000;0.2955;0.0050;
838.2000;0.2947;0.0050;
838.5000;0.2939;0.0050;
838.8000;0.2939;0.0149;
839.1000;0.2955;0.0149;
839.4000;0.2947;0.0074;
839.7000;0.2939;0.0025;
840.0000;0.2914;0.0025;
840.3000;0.3028;0.0347;
840.6000;0.2939;0.0025;
840.9000;0.2939;-0.0025;
841.2000;0.2939;0.0025;
841.5000;0.2930;0.0124;
841.8000;0.2930;0.0074;
842.1000;0.2947;0.0198;
842.4000;0.2930;0.0297;
842.7000;0.2898;0.0223;
843.0000;0.2939;0.0347;
843.3000;0.2939;0.0297;
843.6000;0.2914;0.0248;
843.9000;0.2857;0.0099;
844.2000;0.2930;0.0272;
844.5000;0.2947;0.0322;
844.8000;0.2930;0.0248;
845.1000;0.2939;0.0223;
845.4000;0.2930;0.0198;
845.7000;0.2939;0.0149;
846.0000;0.3004;0.0347;
846.3000;0.2996;0.0173;
846.6000;0.2914;-0.0025;
846.9000;0.2930;0.0025;
847.2000;0.2939;0.0050;
847.5000;0.2898;-0.0025;
847.8000;0.2890;0.0025;
848.1000;0.2930;0.0149;
848.4000;0.2971;0.0297;
848.7000;0.2930;0.0198;
849.0000;0.2930;0.0248;
849.3000;0.2939;0.0173;
849.6000;0.2906;0.0124;
849.9000;0.2930;0.0173;
850.2000;0.2930;0.0124;
850.5000;0.2939;0.0099;
850.8000;0.2939;0.0050;
851.1000;0.2947;0.0050;
851.4000;0.2906;-0.0025;
851.7000;0.2922;0.0025;
852.0000;0.2939;-0.0025;
852.3000;0.2922;-0.0025;
852.6000;0.2930;-0.0050;
852.9000;0.3012;0.0173;
853.2000;0.2922;0.0025;
853.5000;0.2930;0.0050;
853.8000;0.2922;0.0074;
854.1000;0.2922;0.0025;
854.4000;0.2939;0.0050;
854.7000;0.2922;0.0025;
855.0000;0.2939;0.0050;
855.3000;0.2898;-0.0099;
855.6000;0.2906;-0.0050;
855.9000;0.2914;0.0050;
856.2000;0.2865;-0.0099;
856.5000;0.2914;0.0025;
856.8000;0.2914;0.0074;
857.1000;0.2922;0.0025;
857.4000;0.2906;-0.0050;
857.7000;0.2922;-0.0074;
858.0000;0.2914;-0.0050;
858.3000;0.2898;0.0050;
858.6000;0.2922;0.0050;
858.9000;0.2898;0.0000;
859.2000;0.2906;-0.0025;
859.5000;0.2922;0.0025;
859.8000;0.2914;0.0074;
860.1000;0.2922;-0.0025;
860.4000;0.2930;0.0074;
860.7000;0.2865;-0.0050;
861.0000;0.2922;0.0050;
861.3000;0.2930;0.0000;
861.6000;0.2930;0.0000;
861.9000;0.2922;-0.0050;
862.2000;0.2906;-0.0074;
862.5000;0.2939;-0.0025;
862.8000;0.2914;0.0000;
863.1000;0.2930;0.0000;
863.4000;0.2996;0.0198;
863.7000;0.2930;0.0025;
864.0000;0.2947;0.0074;
864.3000;0.2971;0.0248;
864.6000;0.2898;0.0000;
864.9000;0.2922;0.0050;
865.2000;0.2939;0.0099;
865.5000;0.2857;-0.0149;
865.8000;0.2906;-0.0025;
866.1000;0.2898;-0.0074;
866.4000;0.2922;-0.0050;
866.7000;0.2914;-0.0025;
867.0000;0.2939;-0.0074;
867.3000;0.2922;-0.0124;
867.6000;0.2963;0.0025;
867.9000;0.2930;-0.0050;
868.2000;0.2914;-0.0099;
868.5000;0.2898;-0.0173;
868.8000;0.2906;-0.0124;
869.1000;0.2906;-0.0050;
869.4000;0.2922;0.0099;
869.7000;0.2898;0.0050;
870.0000;0.2922;0.0099;
870.3000;0.2898;-0.0025;
870.6000;0.2914;-0.0025;
870.9000;0.2906;-0.0025;
871.2000;0.2922;0.0050;
871.5000;0.2947;0.0074;
871.8000;0.2922;0.0000;
872.1000;0.2930;-0.0050;
872.4000;0.2914;0.0000;
872.7000;0.2914;0.0025;
873.0000;0.2922;0.0050;
873.3000;0.2914;0.0099;
873.6000;0.2922;0.0173;
873.9000;0.2922;0.0173;
874.2000;0.2914;0.0074;
874.5000;0.2906;0.0050;
874.8000;0.2906;0.0000;
875.1000;0.2906;0.0099;
875.4000;0.2898;-0.0050;
875.7000;0.2898;-0.0124;
876.0000;0.2939;-0.0099;
876.3000;0.2922;-0.0124;
876.6000;0.2914;-0.0124;
876.9000;0.2947;-0.0025;
877.2000;0.2914;-0.0124;
877.5000;0.2963;0.0124;
877.8000;0.2906;-0.0025;
878.1000;0.2906;0.0025;
878.4000;0.2906;0.0099;
878.7000;0.2930;0.0124;
879.0000;0.2906;0.0099;
879.3000;0.2939;0.0099;
879.6000;0.2914;0.0025;
879.9000;0.2898;-0.0025;
880.2000;0.2996;0.0272;
880.5000;0.2922;0.0050;
880.8000;0.2906;0.0000;
881.1000;0.2898;-0.0074;
881.4000;0.2914;-0.0074;
881.7000;0.2914;-0.0198;
882.0000;0.2849;-0.0297;
882.3000;0.2906;-0.0198;
882.6000;0.2906;-0.0149;
882.9000;0.2914;-0.0173;
883.2000;0.2890;-0.0149;
883.5000;0.2914;-0.0124;
883.8000;0.2939;-0.0025;
884.1000;0.2922;0.0000;
884.4000;0.2922;-0.0050;
884.7000;0.2939;-0.0074;
885.0000;0.2890;-0.0124;
885.3000;0.2922;-0.0050;
885.6000;0.2914;-0.0074;
885.9000;0.2914;-0.0025;
886.2000;0.3020;0.0198;
886.5000;0.2914;-0.0025;
886.8000;0.2906;-0.0099;
887.1000;0.2898;-0.0173;
887.4000;0.2963;0.0025;
887.7000;0.2865;-0.0198;
888.0000;0.2922;-0.0198;
888.3000;0.2906;-0.0297;
888.6000;0.2906;-0.0322;
888.9000;0.2898;-0.0248;
889.2000;0.2898;-0.0223;
889.5000;0.2890;-0.0173;
889.8000;0.2906;-0.0124;
890.1000;0.2890;-0.0149;
890.4000;0.2898;-0.0149;
890.7000;0.2906;-0.0149;
891.0000;0.2906;-0.0223;
891.3000;0.2914;-0.0223;
891.6000;0.2906;-0.0248;
891.9000;0.2898;-0.0248;
892.2000;0.2906;-0.0223;
892.5000;0.2890;-0.0322;
892.8000;0.2898;-0.0297;
893.1000;0.2922;-0.0149;
893.4000;0.2865;-0.0198;
893.7000;0.2898;-0.0099;
894.0000;0.2914;-0.0025;
894.3000;0.2865;-0.0074;
894.6000;0.2914;-0.0099;
894.9000;0.2922;-0.0050;
895.2000;0.2898;-0.0074;
895.5000;0.2914;0.0000;
895.8000;0.2914;0.0050;
896.1000;0.2930;-0.0025;
896.4000;0.2906;-0.0099;
896.7000;0.2898;-0.0074;
897.0000;0.2898;-0.0074;
897.3000;0.2914;-0.0099;
897.6000;0.2930;-0.0050;
897.9000;0.2906;-0.0074;
898.2000;0.2906;-0.0050;
898.5000;0.3036;0.0223;
898.8000;0.2914;-0.0050;
899.1000;0.2906;-0.0124;
899.4000;0.2882;-0.0198;
899.7000;0.2906;-0.0173;
900.0000;0.2898;-0.0173;
900.3000;0.2898;-0.0124;
900.6000;0.2890;-0.0173;
900.9000;0.2906;-0.0099;
901.2000;0.2882;-0.0173;
901.5000;0.2898;-0.0099;
901.8000;0.2873;-0.0124;
902.1000;0.2882;-0.0099;
902.4000;0.2890;-0.0050;
902.7000;0.2890;-0.0124;
903.0000;0.2939;-0.0050;
903.3000;0.2930;-0.0050;
903.6000;0.2882;-0.0149;
903.9000;0.2906;-0.0099;
904.2000;0.2979;0.0149;
904.5000;0.2890;-0.0099;
904.8000;0.2890;-0.0099;
905.1000;0.2971;0.0124;
905.4000;0.2906;-0.0050;
905.7000;0.2906;-0.0050;
906.0000;0.2914;-0.0025;
906.3000;0.2906;-0.0025;
906.6000;0.2922;-0.0050;
906.9000;0.2898;0.0000;
907.2000;0.2906;0.0000;
907.5000;0.2906;0.0050;
907.8000;0.2906;0.0025;
908.1000;0.2890;0.0000;
908.4000;0.2930;0.0099;
908.7000;0.2906;0.0025;
909.0000;0.2906;0.0074;
909.3000;0.2898;0.0050;
909.6000;0.2898;0.0099;
909.9000;0.2890;0.0000;
910.2000;0.2898;0.0050;
910.5000;0.2922;0.0074;
910.8000;0.2922;0.0050;
911.1000;0.2914;0.0074;
911.4000;0.2898;0.0050;
911.7000;0.2914;0.0074;
912.0000;0.2898;0.0025;
912.3000;0.2882;0.0000;
912.6000;0.2898;0.0074;
912.9000;0.2882;0.0025;
913.2000;0.2898;0.0149;
913.5000;0.2882;0.0074;
913.8000;0.2857;0.0000;
914.1000;0.2922;0.0099;
914.4000;0.2873;-0.0050;
914.7000;0.2898;-0.0050;
915.0000;0.2898;-0.0025;
915.3000;0.2890;-0.0099;
915.6000;0.2906;-0.0149;
915.9000;0.2898;-0.0198;
916.2000;0.2898;-0.0198;
916.5000;0.2930;-0.0124;
916.8000;0.2906;-0.0149;
917.1000;0.2906;-0.0099;
917.4000;0.2898;-0.0198;
917.7000;0.2914;-0.0198;
918.0000;0.2890;-0.0322;
918.3000;0.2906;-0.0248;
918.6000;0.2873;-0.0272;
918.9000;0.2890;-0.0173;
919.2000;0.2906;-0.0124;
919.5000;0.2914;-0.0050;
919.8000;0.2914;-0.0124;
920.1000;0.2865;-0.0223;
920.4000;0.2898;-0.0198;
920.7000;0.2922;-0.0173;
921.0000;0.2898;-0.0223;
921.3000;0.2906;-0.0248;
921.6000;0.2914;-0.0149;
921.9000;0.2914;-0.0124;
922.2000;0.2906;0.0000;
922.5000;0.2898;0.0050;
922.8000;0.2906;-0.0025;
923.1000;0.2890;-0.0025;
923.4000;0.2898;0.0050;
923.7000;0.2890;0.0074;
924.0000;0.2922;0.0149;
924.3000;0.2898;0.0124;
924.6000;0.2890;0.0124;
924.9000;0.2890;0.0050;
925.2000;0.2873;-0.0025;
925.5000;0.2914;0.0074;
925.8000;0.2882;0.0000;
926.1000;0.2890;0.0000;
926.4000;0.2882;-0.0025;
926.7000;0.2898;0.0025;
927.0000;0.2865;-0.0050;
927.3000;0.2898;-0.0025;
927.6000;0.2898;-0.0050;
927.9000;0.2906;-0.0050;
928.2000;0.2890;-0.0050;
928.5000;0.2898;-0.0074;
928.8000;0.2898;-0.0099;
929.1000;0.2865;-0.0149;
929.4000;0.2906;0.0000;
929.7000;0.2906;0.0025;
930.0000;0.2890;0.0000;
930.3000;0.2914;0.0050;
930.6000;0.2890;0.0025;
930.9000;0.2906;0.0025;
931.2000;0.2922;-0.0025;
931.5000;0.2922;0.0000;
931.8000;0.2890;0.0000;
932.1000;0.2906;0.0074;
932.4000;0.2906;0.0050;
932.7000;0.2906;0.0000;
933.0000;0.2898;-0.0025;
933.3000;0.2906;-0.0025;
933.6000;0.2906;-0.0050;
933.9000;0.2898;-0.0025;
934.2000;0.2890;-0.0099;
934.5000;0.2922;-0.0099;
934.8000;0.2930;-0.0074;
935.1000;0.2906;-0.0099;
935.4000;0.2890;-0.0025;
935.7000;0.2898;0.0000;
936.0000;0.2890;0.0000;
936.3000;0.2939;0.0074;
936.6000;0.2898;-0.0074;
936.9000;0.2882;-0.0099;
937.2000;0.2906;-0.0099;
937.5000;0.2890;-0.0173;
937.8000;0.2898;-0.0149;
938.1000;0.2890;-0.0198;
938.4000;0.2914;-0.0074;
938.7000;0.2906;-0.0074;
939.0000;0.2914;-0.0124;
939.3000;0.2890;-0.0173;
939.6000;0.2914;-0.0149;
939.9000;0.2890;-0.0099;
940.2000;0.2914;0.0025;
940.5000;0.2906;0.0050;
940.8000;0.2890;0.0050;
941.1000;0.2898;0.0074;
941.4000;0.2898;0.0173;
941.7000;0.2898;0.0149;
942.0000;0.2898;0.0149;
942.3000;0.2898;0.0124;
942.6000;0.2898;0.0074;
942.9000;0.2890;0.0050;
943.2000;0.2898;0.0050;
943.5000;0.2898;0.0050;
943.8000;0.2898;0.0074;
944.1000;0.2914;0.0149;
944.4000;0.2906;0.0149;
944.7000;0.2898;0.0149;
945.0000;0.2898;0.0149;
945.3000;0.2898;0.0149;
945.6000;0.2898;0.0074;
945.9000;0.2890;0.0099;
946.2000;0.2898;0.0074;
946.5000;0.2906;0.0050;
946.8000;0.2898;0.0000;
947.1000;0.2906;0.0025;
947.4000;0.2882;0.0050;
947.7000;0.2898;0.0050;
948.0000;0.2914;0.0173;
948.3000;0.2873;0.0099;
948.6000;0.2882;0.0099;
948.9000;0.2898;0.0099;
949.2000;0.2882;0.0000;
949.5000;0.2979;0.0223;
949.8000;0.2890;-0.0050;
950.1000;0.2890;0.0025;
950.4000;0.2873;0.0000;
950.7000;0.2914;0.0099;
951.0000;0.2882;0.0099;
951.3000;0.2841;-0.0025;
951.6000;0.2930;0.0124;
951.9000;0.2873;-0.0025;
952.2000;0.2906;-0.0050;
952.5000;0.2890;-0.0124;
952.8000;0.2882;-0.0050;
953.1000;0.2898;-0.0050;
953.4000;0.2890;-0.0050;
953.7000;0.2890;0.0025;
954.0000;0.2890;0.0099;
954.3000;0.2906;0.0124;
954.6000;0.2898;0.0025;
954.9000;0.2890;0.0099;
955.2000;0.2898;0.0025;
955.5000;0.2922;0.0000;
955.8000;0.2882;-0.0149;
956.1000;0.2898;-0.0124;
956.4000;0.2873;-0.0173;
956.7000;0.2898;-0.0025;
957.0000;0.2906;0.0050;
957.3000;0.2890;-0.0025;
957.6000;0.2906;-0.0025;
957.9000;0.2890;-0.0124;
958.2000;0.2890;-0.0124;
958.5000;0.2906;-0.0050;
958.8000;0.2898;-0.0124;
959.1000;0.2882;-0.0173;
959.4000;0.2873;-0.0173;
959.7000;0.2898;0.0000;
960.0000;0.2865;-0.0050;
960.3000;0.2882;-0.0099;
960.6000;0.2833;-0.0272;
960.9000;0.2800;-0.0396;
961.2000;0.2890;-0.0173;
961.5000;0.2930;0.0050;
961.8000;0.2882;-0.0099;
962.1000;0.2898;-0.0025;
962.4000;0.2890;-0.0050;
962.7000;0.2890;-0.0124;
963.0000;0.2873;-0.0074;
963.3000;0.2890;0.0025;
963.6000;0.2873;0.0025;
963.9000;0.2890;0.0025;
964.2000;0.2890;-0.0099;
964.5000;0.2922;-0.0099;
964.8000;0.2849;-0.0198;
965.1000;0.2914;-0.0099;
965.4000;0.2890;-0.0099;
965.7000;0.2914;-0.0099;
966.0000;0.2963;0.0050;
966.3000;0.2882;-0.0099;
966.6000;0.2898;-0.0050;
966.9000;0.2914;0.0050;
967.2000;0.2890;0.0000;
967.5000;0.2914;0.0099;
967.8000;0.2882;0.0074;
968.1000;0.2898;0.0074;
968.4000;0.2890;0.0025;
968.7000;0.2898;0.0050;
969.0000;0.2890;-0.0099;
969.3000;0.2898;-0.0149;
969.6000;0.2890;-0.0149;
969.9000;0.2898;-0.0124;
970.2000;0.2890;-0.0025;
970.5000;0.2890;-0.0025;
970.8000;0.2890;-0.0050;
971.1000;0.2890;-0.0124;
971.4000;0.2882;-0.0297;
971.7000;0.2890;-0.0297;
972.0000;0.2882;-0.0322;
972.3000;0.2930;-0.0149;
972.6000;0.2882;-0.0173;
972.9000;0.2882;-0.0248;
973.2000;0.2873;-0.0223;
973.5000;0.2873;-0.0248;
973.8000;0.2890;-0.0173;
974.1000;0.2890;-0.0198;
974.4000;0.2914;-0.0198;
974.7000;0.2882;-0.0223;
975.0000;0.2898;-0.0149;
975.3000;0.2898;-0.0074;
975.6000;0.2890;-0.0025;
975.9000;0.2898;-0.0025;
976.2000;0.2833;-0.0198;
976.5000;0.2898;-0.0074;
976.8000;0.2890;-0.0099;
977.1000;0.2890;-0.0099;
977.4000;0.2914;-0.0099;
977.7000;0.2914;-0.0074;
978.0000;0.2865;-0.0223;
978.3000;0.2882;-0.0223;
978.6000;0.2890;-0.0173;
978.9000;0.2890;-0.0248;
979.2000;0.2882;-0.0272;
979.5000;0.2882;-0.0198;
979.8000;0.2882;-0.0149;
980.1000;0.2906;-0.0050;
980.4000;0.2922;0.0025;
980.7000;0.2898;-0.0099;
981.0000;0.2890;-0.0074;
981.3000;0.2857;-0.0223;
981.6000;0.2939;-0.0074;
981.9000;0.2898;-0.0198;
982.2000;0.2906;-0.0198;
982.5000;0.2898;-0.0198;
982.8000;0.2906;-0.0223;
983.1000;0.2816;-0.0396;
983.4000;0.2882;-0.0223;
983.7000;0.2906;-0.0025;
984.0000;0.2890;-0.0050;
984.3000;0.2906;0.0000;
984.6000;0.2873;-0.0050;
984.9000;0.2849;-0.0173;
985.2000;0.2873;-0.0124;
985.5000;0.2865;-0.0124;
985.8000;0.2865;-0.0248;
986.1000;0.2857;-0.0297;
986.4000;0.2849;-0.0173;
986.7000;0.2939;-0.0025;
987.0000;0.2890;-0.0099;
987.3000;0.2873;-0.0099;
987.6000;0.2890;-0.0124;
987.9000;0.2898;-0.0198;
988.2000;0.2882;-0.0223;
988.5000;0.2882;-0.0198;
988.8000;0.2882;-0.0173;
989.1000;0.2898;-0.0099;
989.4000;0.2849;-0.0248;
989.7000;0.2882;-0.0272;
990.0000;0.2825;-0.0396;
990.3000;0.2898;-0.0173;
990.6000;0.2890;-0.0173;
990.9000;0.2890;-0.0149;
991.2000;0.2873;-0.0198;
991.5000;0.2873;-0.0198;
991.8000;0.2833;-0.0347;
992.1000;0.2865;-0.0223;
992.4000;0.2882;-0.0149;
992.7000;0.2890;-0.0149;
993.0000;0.2898;-0.0124;
993.3000;0.2898;-0.0173;
993.6000;0.2882;-0.0198;
993.9000;0.2882;-0.0248;
994.2000;0.2873;-0.0248;
994.5000;0.2890;-0.0198;
994.8000;0.2873;-0.0149;
995.1000;0.2890;-0.0074;
995.4000;0.2882;-0.0074;
995.7000;0.2882;-0.0074;
996.0000;0.2898;-0.0050;
996.3000;0.2906;-0.0025;
996.6000;0.2882;-0.0099;
996.9000;0.2882;-0.0124;
997.2000;0.2882;-0.0099;
997.5000;0.2857;-0.0074;
997.8000;0.2890;0.0124;
998.1000;0.2890;0.0173;
998.4000;0.2906;0.0248;
998.7000;0.2873;0.0248;
999.0000;0.2922;0.0371;
999.3000;0.2833;0.0074;
999.6000;0.2906;0.0248;
999.9000;0.2890;0.0173;
1000.2000;0.2898;0.0322;
1000.5000;0.2890;0.0248;
1000.8000;0.2922;0.0297;
1001.1000;0.2882;0.0149;
1001.4000;0.2906;0.0297;
1001.7000;0.2882;0.0223;
1002.0000;0.2849;0.0124;
1002.3000;0.2841;0.0074;
1002.6000;0.2882;0.0173;
1002.9000;0.2873;0.0124;
1003.2000;0.2865;0.0149;
1003.5000;0.2833;0.0050;
1003.8000;0.2898;0.0074;
1004.1000;0.2865;-0.0124;
1004.4000;0.2882;-0.0074;
1004.7000;0.2882;-0.0099;
1005.0000;0.2873;-0.0124;
1005.3000;0.2922;-0.0074;
1005.6000;0.2873;-0.0173;
1005.9000;0.2873;-0.0248;
1006.2000;0.2873;-0.0248;
1006.5000;0.2833;-0.0347;
1006.8000;0.2865;-0.0272;
1007.1000;0.2841;-0.0322;
1007.4000;0.2873;-0.0272;
1007.7000;0.2857;-0.0347;
1008.0000;0.2873;-0.0248;
1008.3000;0.2865;-0.0322;
1008.6000;0.2865;-0.0198;
1008.9000;0.2841;-0.0371;
1009.2000;0.2873;-0.0396;
1009.5000;0.2865;-0.0347;
1009.8000;0.2882;-0.0248;
1010.1000;0.2865;-0.0297;
1010.4000;0.2914;-0.0025;
1010.7000;0.2882;-0.0099;
1011.0000;0.2873;-0.0248;
1011.3000;0.2890;-0.0223;
1011.6000;0.2873;-0.0272;
1011.9000;0.2873;-0.0198;
1012.2000;0.2857;-0.0099;
1012.5000;0.2873;-0.0124;
1012.8000;0.2898;-0.0149;
1013.1000;0.2873;-0.0173;
1013.4000;0.2849;-0.0248;
1013.7000;0.2898;-0.0149;
1014.0000;0.2996;0.0074;
1014.3000;0.2898;-0.0149;
1014.6000;0.2890;-0.0173;
1014.9000;0.2898;-0.0223;
1015.2000;0.2890;-0.0223;
1015.5000;0.2890;-0.0248;
1015.8000;0.2882;-0.0297;
1016.1000;0.2882;-0.0248;
1016.4000;0.2890;-0.0198;
1016.7000;0.2882;-0.0223;
1017.0000;0.2914;-0.0050;
1017.3000;0.2873;-0.0099;
1017.6000;0.2873;-0.0099;
1017.9000;0.2873;-0.0124;
1018.2000;0.2865;-0.0248;
1018.5000;0.2865;-0.0198;
1018.8000;0.2873;-0.0149;
1019.1000;0.2857;-0.0149;
1019.4000;0.2890;-0.0173;
1019.7000;0.2890;-0.0223;
1020.0000;0.2833;-0.0347;
1020.3000;0.2873;-0.0124;
1020.6000;0.2890;-0.0074;
1020.9000;0.2882;-0.0074;
1021.2000;0.2906;0.0025;
1021.5000;0.2865;-0.0050;
1021.8000;0.2882;0.0000;
1022.1000;0.2873;-0.0050;
1022.4000;0.2898;-0.0099;
1022.7000;0.2873;-0.0223;
1023.0000;0.2873;-0.0198;
1023.3000;0.2857;-0.0297;
1023.6000;0.2890;-0.0223;
1023.9000;0.2882;-0.0173;
1024.2000;0.2890;-0.0149;
1024.5000;0.2890;-0.0099;
1024.8000;0.2882;-0.0149;
1025.1000;0.2890;-0.0124;
1025.4000;0.2873;-0.0198;
1025.7000;0.2890;-0.0149;
1026.0000;0.2906;-0.0124;
1026.3000;0.2890;-0.0149;
1026.6000;0.2914;-0.0074;
1026.9000;0.2882;-0.0074;
1027.2000;0.2882;-0.0198;
1027.5000;0.2873;-0.0149;
1027.8000;0.2914;-0.0099;
1028.1000;0.2882;-0.0173;
1028.4000;0.2882;-0.0248;
1028.7000;0.2865;-0.0297;
1029.0000;0.2882;-0.0396;
1029.3000;0.2816;-0.0545;
1029.6000;0.2873;-0.0322;
1029.9000;0.2873;-0.0248;
1030.2000;0.2898;-0.0198;
1030.5000;0.2882;-0.0173;
1030.8000;0.2882;-0.0124;
1031.1000;0.2865;-0.0198;
1031.4000;0.2784;-0.0347;
1031.7000;0.2882;-0.0124;
1032.0000;0.2882;-0.0149;
1032.3000;0.2882;-0.0149;
1032.6000;0.2882;-0.0173;
1032.9000;0.2882;-0.0223;
1033.2000;0.2906;-0.0173;
1033.5000;0.2882;-0.0198;
1033.8000;0.2890;-0.0074;
1034.1000;0.2873;-0.0173;
1034.4000;0.2857;-0.0272;
1034.7000;0.2890;-0.0173;
1035.0000;0.2882;-0.0173;
1035.3000;0.2890;-0.0198;
1035.6000;0.2882;-0.0297;
1035.9000;0.2882;-0.0248;
1036.2000;0.2882;-0.0322;
1036.5000;0.2882;-0.0297;
1036.8000;0.2882;-0.0322;
1037.1000;0.2882;-0.0272;
1037.4000;0.2857;-0.0322;
1037.7000;0.2882;-0.0198;
1038.0000;0.2849;-0.0272;
1038.3000;0.2865;-0.0248;
1038.6000;0.2890;-0.0198;
1038.9000;0.2906;-0.0149;
1039.2000;0.2882;-0.0149;
1039.5000;0.2873;-0.0124;
1039.8000;0.2873;-0.0173;
1040.1000;0.2865;-0.0272;
1040.4000;0.2865;-0.0223;
1040.7000;0.2865;-0.0198;
1041.0000;0.2808;-0.0347;
1041.3000;0.2841;-0.0272;
1041.6000;0.2865;-0.0248;
1041.9000;0.2873;-0.0223;
1042.2000;0.2898;-0.0173;
1042.5000;0.2890;-0.0223;
1042.8000;0.2865;-0.0223;
1043.1000;0.2833;-0.0297;
1043.4000;0.2914;-0.0099;
1043.7000;0.2882;-0.0248;
1044.0000;0.2865;-0.0297;
1044.3000;0.2914;-0.0173;
1044.6000;0.2898;-0.0099;
1044.9000;0.2873;-0.0198;
1045.2000;0.2882;-0.0173;
1045.5000;0.2873;-0.0322;
1045.8000;0.2882;-0.0248;
1046.1000;0.2882;-0.0223;
1046.4000;0.2890;-0.0025;
1046.7000;0.2873;-0.0074;
1047.0000;0.2979;0.0124;
1047.3000;0.2873;-0.0272;
1047.6000;0.2882;-0.0198;
1047.9000;0.2865;-0.0173;
1048.2000;0.2890;-0.0074;
1048.5000;0.2898;-0.0025;
1048.8000;0.2890;-0.0025;
1049.1000;0.2882;-0.0099;
1049.4000;0.2873;-0.0124;
1049.7000;0.2882;-0.0173;
1050.0000;0.2890;-0.0149;
1050.3000;0.2890;-0.0149;
1050.6000;0.2882;-0.0149;
1050.9000;0.2898;0.0000;
1051.2000;0.2882;-0.0050;
1051.5000;0.2873;0.0000;
1051.8000;0.2882;0.0000;
1052.1000;0.2898;0.0050;
1052.4000;0.2865;-0.0050;
1052.7000;0.2816;-0.0173;
1053.0000;0.2890;-0.0025;
1053.3000;0.2816;-0.0272;
1053.6000;0.2857;-0.0173;
1053.9000;0.2882;-0.0149;
1054.2000;0.2865;-0.0099;
1054.5000;0.2849;-0.0124;
1054.8000;0.2882;0.0000;
1055.1000;0.2865;-0.0099;
1055.4000;0.2873;-0.0050;
1055.7000;0.2939;0.0173;
1056.0000;0.2865;0.0025;
1056.3000;0.2906;0.0025;
1056.6000;0.2882;-0.0050;
1056.9000;0.2865;-0.0124;
1057.2000;0.2857;-0.0099;
1057.5000;0.2873;-0.0025;
1057.8000;0.2882;-0.0025;
1058.1000;0.2882;0.0025;
1058.4000;0.2873;0.0074;
1058.7000;0.2882;0.0025;
1059.0000;0.2898;-0.0050;
1059.3000;0.2890;-0.0074;
1059.6000;0.2873;-0.0099;
1059.9000;0.2882;-0.0074;
1060.2000;0.2890;-0.0124;
1060.5000;0.2898;-0.0025;
1060.8000;0.2873;0.0050;
1061.1000;0.2890;0.0050;
1061.4000;0.2890;0.0025;
1061.7000;0.2890;0.0099;
1062.0000;0.2906;0.0198;
1062.3000;0.2882;0.0099;
1062.6000;0.2882;0.0025;
1062.9000;0.2890;0.0050;
1063.2000;0.2873;0.0000;
1063.5000;0.2865;-0.0074;
1063.8000;0.2882;-0.0050;
1064.1000;0.2865;-0.0050;
1064.4000;0.2882;-0.0099;
1064.7000;0.2882;-0.0074;
1065.0000;0.2873;-0.0099;
1065.3000;0.2841;-0.0050;
1065.6000;0.2882;0.0050;
1065.9000;0.2882;0.0050;
1066.2000;0.2882;0.0099;
1066.5000;0.2890;0.0124;
1066.8000;0.2873;0.0099;
1067.1000;0.2865;0.0050;
1067.4000;0.2857;-0.0025;
1067.7000;0.2882;0.0074;
1068.0000;0.2849;0.0050;
1068.3000;0.2833;0.0124;
1068.6000;0.2841;0.0124;
1068.9000;0.2873;0.0099;
1069.2000;0.2800;-0.0149;
1069.5000;0.2873;-0.0099;
1069.8000;0.2890;-0.0050;
1070.1000;0.2882;-0.0025;
1070.4000;0.2873;-0.0025;
1070.7000;0.2890;0.0050;
1071.0000;0.2882;0.0000;
1071.3000;0.2882;0.0074;
1071.6000;0.2882;0.0074;
1071.9000;0.2857;0.0000;
1072.2000;0.2882;-0.0050;
1072.5000;0.2873;-0.0099;
1072.8000;0.2890;-0.0124;
1073.1000;0.2890;-0.0173;
1073.4000;0.2882;-0.0173;
1073.7000;0.2865;-0.0124;
1074.0000;0.2882;-0.0050;
1074.3000;0.2890;0.0025;
1074.6000;0.2930;0.0099;
1074.9000;0.2890;0.0124;
1075.2000;0.2890;0.0149;
1075.5000;0.2882;0.0074;
1075.8000;0.2849;-0.0050;
1076.1000;0.2873;0.0074;
1076.4000;0.2930;0.0248;
1076.7000;0.2873;0.0000;
1077.0000;0.2890;-0.0025;
1077.3000;0.2865;-0.0099;
1077.6000;0.2873;0.0000;
1077.9000;0.2873;0.0050;
1078.2000;0.2873;0.0124;
1078.5000;0.2890;0.0223;
1078.8000;0.2906;0.0223;
1079.1000;0.2882;0.0099;
1079.4000;0.2890;0.0248;
1079.7000;0.2873;0.0149;
1080.0000;0.2930;0.0297;
1080.3000;0.2865;0.0149;
1080.6000;0.2873;0.0223;
1080.9000;0.2882;0.0248;
1081.2000;0.2882;0.0223;
1081.5000;0.2898;0.0223;
1081.8000;0.2849;0.0050;
1082.1000;0.2882;0.0099;
1082.4000;0.2882;0.0099;
1082.7000;0.2882;0.0050;
1083.0000;0.2873;0.0149;
1083.3000;0.2873;0.0149;
1083.6000;0.2930;0.0248;
1083.9000;0.2873;0.0124;
1084.2000;0.2882;0.0025;
1084.5000;0.2882;0.0074;
1084.8000;0.2882;0.0074;
1085.1000;0.2865;0.0074;
1085.4000;0.2865;0.0025;
1085.7000;0.2890;0.0149;
1086.0000;0.2882;0.0124;
1086.3000;0.2873;0.0173;
1086.6000;0.2865;0.0099;
1086.9000;0.2882;0.0173;
1087.2000;0.2873;0.0297;
1087.5000;0.2882;0.0347;
1087.8000;0.2882;0.0272;
1088.1000;0.2882;0.0173;
1088.4000;0.2873;0.0248;
1088.7000;0.2865;0.0223;
1089.0000;0.2873;0.0223;
1089.3000;0.2865;0.0173;
1089.6000;0.2890;0.0223;
1089.9000;0.2882;0.0223;
1090.2000;0.2865;0.0173;
1090.5000;0.2865;0.0272;
1090.8000;0.2882;0.0124;
1091.1000;0.2873;0.0198;
1091.4000;0.2955;0.0396;
1091.7000;0.2865;0.0124;
1092.0000;0.2873;0.0050;
1092.3000;0.2939;0.0297;
1092.6000;0.2865;0.0149;
1092.9000;0.2882;0.0149;
1093.2000;0.2816;-0.0025;
1093.5000;0.2873;0.0099;
1093.8000;0.2890;0.0025;
1094.1000;0.2971;0.0248;
1094.4000;0.2865;-0.0025;
1094.7000;0.2922;0.0099;
1095.0000;0.2873;-0.0025;
1095.3000;0.2882;0.0000;
1095.6000;0.2792;-0.0198;
1095.9000;0.2857;-0.0025;
1096.2000;0.2865;0.0025;
1096.5000;0.2873;0.0050;
1096.8000;0.2882;0.0198;
1097.1000;0.2873;0.0149;
1097.4000;0.2882;0.0173;
1097.7000;0.2890;0.0173;
1098.0000;0.2873;0.0198;
1098.3000;0.2898;0.0173;
1098.6000;0.2841;0.0074;
1098.9000;0.2882;0.0099;
1099.2000;0.2882;0.0074;
1099.5000;0.2857;-0.0025;
1099.8000;0.2825;-0.0149;
1100.1000;0.2873;-0.0025;
1100.4000;0.2849;-0.0025;
1100.7000;0.2833;-0.0050;
1101.0000;0.2857;0.0025;
1101.3000;0.2849;-0.0025;
1101.6000;0.2890;0.0074;
1101.9000;0.2873;0.0025;
1102.2000;0.2882;0.0000;
1102.5000;0.2898;0.0173;
1102.8000;0.2833;0.0173;
1103.1000;0.2857;0.0198;
1103.4000;0.2865;0.0272;
1103.7000;0.2865;0.0248;
1104.0000;0.2873;0.0198;
1104.3000;0.2865;0.0149;
1104.6000;0.2873;0.0050;
1104.9000;0.2849;-0.0050;
1105.2000;0.2873;0.0025;
1105.5000;0.2898;0.0099;
1105.8000;0.2882;0.0050;
1106.1000;0.2882;0.0074;
1106.4000;0.2857;0.0050;
1106.7000;0.2865;0.0099;
1107.0000;0.2882;0.0173;
1107.3000;0.2816;-0.0074;
1107.6000;0.2914;0.0223;
1107.9000;0.2882;0.0173;
1108.2000;0.2882;0.0223;
1108.5000;0.2890;0.0248;
1108.8000;0.2865;0.0223;
1109.1000;0.2939;0.0371;
1109.4000;0.2857;0.0124;
1109.7000;0.2873;0.0124;
1110.0000;0.2833;0.0074;
1110.3000;0.2906;0.0347;
1110.6000;0.2873;0.0297;
1110.9000;0.2890;0.0272;
1111.2000;0.2873;0.0149;
1111.5000;0.2873;0.0124;
1111.8000;0.2865;0.0124;
1112.1000;0.2857;0.0099;
1112.4000;0.2849;0.0074;
1112.7000;0.2914;0.0297;
1113.0000;0.2882;0.0272;
1113.3000;0.2898;0.0248;
1113.6000;0.2865;0.0198;
1113.9000;0.2873;0.0124;
1114.2000;0.2971;0.0322;
1114.5000;0.2865;0.0149;
1114.8000;0.2882;0.0198;
1115.1000;0.2825;0.0124;
1115.4000;0.2882;0.0223;
1115.7000;0.2873;0.0149;
1116.0000;0.2873;0.0173;
1116.3000;0.2825;-0.0025;
1116.6000;0.2816;-0.0025;
1116.9000;0.2873;0.0025;
1117.2000;0.2898;0.0124;
1117.5000;0.2865;0.0050;
1117.8000;0.2873;0.0025;
1118.1000;0.2833;-0.0074;
1118.4000;0.2873;0.0124;
1118.7000;0.2873;0.0124;
1119.0000;0.2882;0.0198;
1119.3000;0.2873;0.0149;
1119.6000;0.2882;0.0198;
1119.9000;0.2898;0.0198;
1120.2000;0.2882;0.0173;
1120.5000;0.2825;0.0000;
1120.8000;0.2882;0.0198;
1121.1000;0.2873;0.0149;
1121.4000;0.2906;0.0173;
1121.7000;0.2873;0.0149;
1122.0000;0.2849;0.0124;
1122.3000;0.2890;0.0198;
1122.6000;0.2873;0.0050;
1122.9000;0.2857;0.0025;
1123.2000;0.2882;0.0025;
1123.5000;0.2882;0.0149;
1123.8000;0.2841;0.0099;
1124.1000;0.2857;0.0124;
1124.4000;0.2857;0.0173;
1124.7000;0.2882;0.0223;
1125.0000;0.2865;0.0223;
1125.3000;0.2865;0.0124;
1125.6000;0.2849;0.0050;
1125.9000;0.2873;0.0149;
1126.2000;0.2882;0.0099;
1126.5000;0.2816;-0.0149;
1126.8000;0.2857;-0.0050;
1127.1000;0.2857;-0.0025;
1127.4000;0.2865;0.0025;
1127.7000;0.2873;0.0074;
1128.0000;0.2849;0.0000;
1128.3000;0.2865;0.0000;
1128.6000;0.2898;0.0099;
1128.9000;0.2882;0.0050;
1129.2000;0.2873;0.0099;
1129.5000;0.2873;0.0025;
1129.8000;0.2939;0.0149;
1130.1000;0.2873;-0.0074;
1130.4000;0.2873;-0.0099;
1130.7000;0.2882;-0.0099;
1131.0000;0.2873;-0.0074;
1131.3000;0.2882;0.0025;
1131.6000;0.2890;0.0074;
1131.9000;0.2865;0.0050;
1132.2000;0.2865;0.0149;
1132.5000;0.2873;0.0173;
1132.8000;0.2873;0.0173;
1133.1000;0.2865;0.0124;
1133.4000;0.2873;0.0124;
1133.7000;0.2898;0.0099;
1134.0000;0.2882;-0.0050;
1134.3000;0.2882;-0.0074;
1134.6000;0.2882;-0.0173;
1134.9000;0.2882;-0.0173;
1135.2000;0.2865;-0.0223;
1135.5000;0.2873;-0.0124;
1135.8000;0.2865;-0.0074;
1136.1000;0.2841;-0.0099;
1136.4000;0.2882;0.0025;
1136.7000;0.2882;0.0099;
1137.0000;0.2898;0.0371;
1137.3000;0.2865;0.0223;
1137.6000;0.2873;0.0149;
1137.9000;0.2882;0.0198;
1138.2000;0.2873;0.0272;
1138.5000;0.2841;0.0173;
1138.8000;0.2865;0.0124;
1139.1000;0.2898;0.0173;
1139.4000;0.2914;0.0173;
1139.7000;0.2873;-0.0025;
1140.0000;0.2882;0.0000;
1140.3000;0.2898;0.0000;
1140.6000;0.2873;-0.0050;
1140.9000;0.2882;-0.0050;
1141.2000;0.2865;-0.0099;
1141.5000;0.2873;-0.0124;
1141.8000;0.2873;-0.0124;
1142.1000;0.2841;-0.0149;
1142.4000;0.2873;-0.0074;
1142.7000;0.2873;-0.0198;
1143.0000;0.2882;-0.0173;
1143.3000;0.2882;-0.0149;
1143.6000;0.2865;-0.0124;
1143.9000;0.2873;-0.0025;
1144.2000;0.2865;0.0099;
1144.5000;0.2857;0.0074;
1144.8000;0.2825;-0.0198;
1145.1000;0.2873;-0.0050;
1145.4000;0.2882;0.0074;
1145.7000;0.2865;0.0099;
1146.0000;0.2873;0.0025;
1146.3000;0.2865;0.0099;
1146.6000;0.2882;0.0099;
1146.9000;0.2873;0.0074;
1147.2000;0.2882;0.0000;
1147.5000;0.2890;-0.0050;
1147.8000;0.2825;-0.0223;
1148.1000;0.2865;-0.0050;
1148.4000;0.2930;0.0074;
1148.7000;0.2865;0.0000;
1149.0000;0.2882;0.0050;
1149.3000;0.2865;0.0000;
1149.6000;0.2865;0.0000;
1149.9000;0.2890;0.0000;
1150.2000;0.2873;0.0025;
1150.5000;0.2882;-0.0025;
1150.8000;0.2890;0.0074;
1151.1000;0.2873;0.0074;
1151.4000;0.2849;-0.0025;
1151.7000;0.2873;0.0050;
1152.0000;0.2882;0.0000;
1152.3000;0.2914;0.0124;
1152.6000;0.2873;-0.0025;
1152.9000;0.2873;-0.0124;
1153.2000;0.2873;-0.0124;
1153.5000;0.2882;-0.0074;
1153.8000;0.2914;0.0000;
1154.1000;0.2857;-0.0272;
1154.4000;0.2947;0.0000;
1154.7000;0.2882;-0.0149;
1155.0000;0.2857;-0.0074;
1155.3000;0.2882;-0.0149;
1155.6000;0.2865;-0.0099;
1155.9000;0.2865;-0.0099;
1156.2000;0.2825;-0.0223;
1156.5000;0.2857;-0.0248;
1156.8000;0.2865;-0.0248;
1157.1000;0.2882;-0.0124;
1157.4000;0.2890;-0.0099;
1157.7000;0.2882;-0.0099;
1158.0000;0.2784;-0.0347;
1158.3000;0.2825;-0.0272;
1158.6000;0.2873;-0.0149;
1158.9000;0.2930;-0.0050;
1159.2000;0.2898;-0.0149;
1159.5000;0.2873;-0.0248;
1159.8000;0.2865;-0.0248;
1160.1000;0.2792;-0.0421;
1160.4000;0.2865;-0.0198;
1160.7000;0.2865;-0.0149;
1161.0000;0.2873;-0.0149;
1161.3000;0.2873;-0.0149;
1161.6000;0.2865;-0.0173;
1161.9000;0.2873;-0.0050;
1162.2000;0.2849;-0.0050;
1162.5000;0.2873;0.0000;
1162.8000;0.2882;-0.0124;
1163.1000;0.2882;-0.0198;
1163.4000;0.2865;-0.0173;
1163.7000;0.2873;-0.0074;
1164.0000;0.2865;-0.0050;
1164.3000;0.2857;-0.0025;
1164.6000;0.2947;0.0173;
1164.9000;0.2890;0.0000;
1165.2000;0.2865;-0.0050;
1165.5000;0.2857;0.0000;
1165.8000;0.2873;0.0050;
1166.1000;0.2865;0.0025;
1166.4000;0.2865;-0.0074;
1166.7000;0.2873;-0.0198;
1167.0000;0.2849;-0.0248;
1167.3000;0.2890;-0.0074;
1167.6000;0.2865;-0.0149;
1167.9000;0.2882;0.0025;
1168.2000;0.2873;0.0025;
1168.5000;0.2882;0.0025;
1168.8000;0.2882;0.0000;
1169.1000;0.2857;-0.0074;
1169.4000;0.2865;-0.0074;
1169.7000;0.2857;-0.0025;
1170.0000;0.2890;0.0025;
1170.3000;0.2898;0.0025;
1170.6000;0.2865;-0.0025;
1170.9000;0.2873;0.0025;
1171.2000;0.2857;0.0025;
1171.5000;0.2841;0.0000;
1171.8000;0.2873;0.0050;
1172.1000;0.2857;0.0000;
1172.4000;0.2882;-0.0025;
1172.7000;0.2882;-0.0074;
1173.0000;0.2882;-0.0074;
1173.3000;0.2857;-0.0149;
1173.6000;0.2882;-0.0074;
1173.9000;0.2882;0.0050;
1174.2000;0.2873;0.0074;
1174.5000;0.2882;0.0074;
1174.8000;0.2890;-0.0025;
1175.1000;0.2882;0.0000;
1175.4000;0.2865;-0.0025;
1175.7000;0.2882;0.0025;
1176.0000;0.2873;0.0000;
1176.3000;0.2898;-0.0025;
1176.6000;0.2882;-0.0074;
1176.9000;0.2882;-0.0074;
1177.2000;0.2906;0.0050;
1177.5000;0.2882;0.0000;
1177.8000;0.2865;-0.0050;
1178.1000;0.2882;0.0074;
1178.4000;0.2882;0.0074;
1178.7000;0.2865;-0.0050;
1179.0000;0.2882;-0.0025;
1179.3000;0.2898;0.0025;
1179.6000;0.2890;0.0025;
1179.9000;0.2873;-0.0050;
1180.2000;0.2882;-0.0074;
1180.5000;0.2882;-0.0099;
1180.8000;0.2857;-0.0124;
1181.1000;0.2873;-0.0099;
1181.4000;0.2873;-0.0099;
1181.7000;0.2882;-0.0099;
1182.0000;0.2890;-0.0050;
1182.3000;0.2890;-0.0050;
1182.6000;0.2939;0.0099;
1182.9000;0.2857;-0.0025;
1183.2000;0.2873;0.0099;
1183.5000;0.2882;0.0099;
1183.8000;0.2857;0.0050;
1184.1000;0.2882;0.0099;
1184.4000;0.2882;0.0025;
1184.7000;0.2890;0.0074;
1185.0000;0.2865;0.0099;
1185.3000;0.2833;-0.0099;
1185.6000;0.2882;0.0050;
1185.9000;0.2873;0.0000;
1186.2000;0.2890;0.0025;
1186.5000;0.2882;0.0050;
1186.8000;0.2873;0.0124;
1187.1000;0.2882;0.0074;
1187.4000;0.2922;0.0099;
1187.7000;0.2890;-0.0050;
1188.0000;0.2865;0.0000;
1188.3000;0.2947;0.0149;
1188.6000;0.2857;0.0025;
1188.9000;0.2890;0.0025;
1189.2000;0.2873;0.0000;
1189.5000;0.2898;0.0025;
1189.8000;0.2882;0.0000;
1190.1000;0.2800;-0.0223;
1190.4000;0.2882;-0.0050;
1190.7000;0.2873;-0.0074;
1191.0000;0.2857;-0.0149;
1191.3000;0.2873;-0.0149;
1191.6000;0.2947;0.0050;
1191.9000;0.2890;-0.0074;
1192.2000;0.2873;-0.0099;
1192.5000;0.2882;-0.0025;
1192.8000;0.2873;0.0025;
1193.1000;0.2873;-0.0050;
1193.4000;0.2849;-0.0124;
1193.7000;0.2873;-0.0198;
1194.0000;0.2865;-0.0223;
1194.3000;0.2882;-0.0124;
1194.6000;0.2808;-0.0223;
1194.9000;0.2857;0.0000;
1195.2000;0.2865;0.0050;
1195.5000;0.2857;0.0173;
1195.8000;0.2882;0.0272;
1196.1000;0.2873;0.0223;
1196.4000;0.2841;0.0149;
1196.7000;0.2841;0.0198;
1197.0000;0.2906;0.0322;
1197.3000;0.2865;0.0173;
1197.6000;0.2914;0.0272;
1197.9000;0.2857;0.0223;
1198.2000;0.2865;0.0198;
1198.5000;0.2882;0.0198;
1198.8000;0.2865;0.0124;
1199.1000;0.2865;0.0074;
1199.4000;0.2873;0.0050;
1199.7000;0.2873;0.0000;
1200.0000;0.2882;0.0000;
1200.3000;0.2882;0.0025;
1200.6000;0.2930;0.0198;
1200.9000;0.2882;0.0074;
1201.2000;0.2906;0.0050;
1201.5000;0.2906;-0.0025;
1201.8000;0.2865;-0.0173;
1202.1000;0.2882;-0.0223;
1202.4000;0.2873;-0.0173;
1202.7000;0.2865;-0.0223;
1203.0000;0.2873;-0.0149;
1203.3000;0.2882;-0.0099;
1203.6000;0.2857;-0.0149;
1203.9000;0.2890;-0.0050;
1204.2000;0.2890;0.0050;
1204.5000;0.2906;0.0149;
1204.8000;0.2865;0.0074;
1205.1000;0.2898;0.0173;
1205.4000;0.2873;0.0074;
1205.7000;0.2865;0.0000;
1206.0000;0.2857;-0.0050;
1206.3000;0.2890;-0.0025;
1206.6000;0.2882;-0.0124;
1206.9000;0.2882;-0.0149;
1207.2000;0.2873;-0.0248;
1207.5000;0.2873;-0.0198;
1207.8000;0.2890;-0.0173;
1208.1000;0.2841;-0.0248;
1208.4000;0.2865;-0.0074;
1208.7000;0.2873;0.0050;
1209.0000;0.2857;0.0074;
1209.3000;0.2857;0.0074;
1209.6000;0.2857;0.0124;
1209.9000;0.2841;0.0074;
1210.2000;0.2849;-0.0074;
1210.5000;0.2857;-0.0050;
1210.8000;0.2865;0.0025;
1211.1000;0.2914;0.0173;
1211.4000;0.2849;0.0025;
1211.7000;0.2882;0.0149;
1212.0000;0.2882;0.0099;
1212.3000;0.2873;-0.0099;
1212.6000;0.2841;-0.0198;
1212.9000;0.2882;0.0000;
1213.2000;0.2873;0.0000;
1213.5000;0.2865;0.0000;
1213.8000;0.2873;0.0099;
1214.1000;0.2873;0.0149;
1214.4000;0.2865;0.0050;
1214.7000;0.2841;-0.0050;
1215.0000;0.2873;-0.0025;
1215.3000;0.2873;0.0000;
1215.6000;0.2906;0.0000;
1215.9000;0.2865;-0.0074;
1216.2000;0.2865;-0.0074;
1216.5000;0.2873;-0.0124;
1216.8000;0.2963;0.0050;
1217.1000;0.2873;-0.0124;
1217.4000;0.2882;-0.0124;
1217.7000;0.2906;-0.0074;
1218.0000;0.2898;-0.0124;
1218.3000;0.2890;-0.0173;
1218.6000;0.2800;-0.0347;
1218.9000;0.2873;-0.0173;
1219.2000;0.2882;-0.0149;
1219.5000;0.2873;-0.0074;
1219.8000;0.2873;-0.0050;
1220.1000;0.2882;-0.0074;
1220.4000;0.2865;-0.0025;
1220.7000;0.2873;-0.0025;
1221.0000;0.2930;0.0050;
1221.3000;0.2873;-0.0149;
1221.6000;0.2873;-0.0099;
1221.9000;0.2882;-0.0074;
1222.2000;0.2906;-0.0074;
1222.5000;0.2914;-0.0074;
1222.8000;0.2955;-0.0124;
1223.1000;0.2890;-0.0248;
1223.4000;0.2890;-0.0248;
1223.7000;0.2857;-0.0396;
1224.0000;0.2882;-0.0347;
1224.3000;0.2857;-0.0446;
1224.6000;0.2833;-0.0495;
1224.9000;0.2865;-0.0446;
1225.2000;0.2890;-0.0322;
1225.5000;0.2890;-0.0297;
1225.8000;0.2865;-0.0272;
1226.1000;0.2873;-0.0297;
1226.4000;0.2865;-0.0297;
1226.7000;0.2857;-0.0272;
1227.0000;0.2890;-0.0272;
1227.3000;0.2873;-0.0347;
1227.6000;0.2841;-0.0421;
1227.9000;0.2873;-0.0396;
1228.2000;0.2882;-0.0297;
1228.5000;0.2857;-0.0347;
1228.8000;0.2841;-0.0446;
1229.1000;0.2898;-0.0347;
1229.4000;0.2906;-0.0446;
1229.7000;0.2873;-0.0396;
1230.0000;0.2890;-0.0272;
1230.3000;0.2882;-0.0248;
1230.6000;0.2882;-0.0124;
1230.9000;0.2808;-0.0272;
1231.2000;0.2890;-0.0074;
1231.5000;0.2849;-0.0272;
1231.8000;0.2873;-0.0223;
1232.1000;0.2865;-0.0248;
1232.4000;0.2865;-0.0223;
1232.7000;0.2873;-0.0223;
1233.0000;0.2825;-0.0347;
1233.3000;0.2898;-0.0173;
1233.6000;0.2865;-0.0248;
1233.9000;0.2857;-0.0173;
1234.2000;0.2833;-0.0223;
1234.5000;0.2873;-0.0198;
1234.8000;0.2873;-0.0248;
1235.1000;0.2882;-0.0149;
1235.4000;0.2873;-0.0272;
1235.7000;0.2882;-0.0248;
1236.0000;0.2882;-0.0272;
1236.3000;0.2873;-0.0347;
1236.6000;0.2857;-0.0347;
1236.9000;0.2857;-0.0347;
1237.2000;0.2865;-0.0297;
1237.5000;0.2865;-0.0297;
1237.8000;0.2882;-0.0272;
1238.1000;0.2857;-0.0272;
1238.4000;0.2873;-0.0272;
1238.7000;0.2865;-0.0173;
1239.0000;0.2865;-0.0248;
1239.3000;0.2857;-0.0297;
1239.6000;0.2865;-0.0272;
1239.9000;0.2873;-0.0248;
1240.2000;0.2882;-0.0223;
1240.5000;0.2857;-0.0272;
1240.8000;0.2873;-0.0223;
1241.1000;0.2873;-0.0223;
1241.4000;0.2873;-0.0124;
1241.7000;0.2865;-0.0173;
1242.0000;0.2865;-0.0223;
1242.3000;0.2865;-0.0173;
1242.6000;0.2865;-0.0099;
1242.9000;0.2857;-0.0149;
1243.2000;0.2865;-0.0149;
1243.5000;0.2857;-0.0099;
1243.8000;0.2873;-0.0173;
1244.1000;0.2873;-0.0124;
1244.4000;0.2857;-0.0149;
1244.7000;0.2890;-0.0050;
1245.0000;0.2865;-0.0050;
1245.3000;0.2882;-0.0074;
1245.6000;0.2873;-0.0050;
1245.9000;0.2873;0.0000;
1246.2000;0.2849;-0.0099;
1246.5000;0.2882;0.0000;
1246.8000;0.2873;-0.0025;
1247.1000;0.2873;-0.0074;
1247.4000;0.2882;-0.0050;
1247.7000;0.2873;-0.0050;
1248.0000;0.2865;-0.0025;
1248.3000;0.2882;-0.0025;
1248.6000;0.2865;-0.0050;
1248.9000;0.2857;-0.0074;
1249.2000;0.2833;-0.0297;
1249.5000;0.2873;-0.0198;
1249.8000;0.2865;-0.0248;
1250.1000;0.2890;-0.0124;
1250.4000;0.2882;-0.0223;
1250.7000;0.2882;-0.0223;
1251.0000;0.2857;-0.0371;
1251.3000;0.2882;-0.0347;
1251.6000;0.2882;-0.0347;
1251.9000;0.2882;-0.0371;
1252.2000;0.2873;-0.0347;
1252.5000;0.2873;-0.0272;
1252.8000;0.2865;-0.0198;
1253.1000;0.2882;-0.0149;
1253.4000;0.2873;-0.0149;
1253.7000;0.2873;-0.0198;
1254.0000;0.2882;-0.0248;
1254.3000;0.2857;-0.0347;
1254.6000;0.2865;-0.0223;
1254.9000;0.2898;-0.0099;
1255.2000;0.2882;-0.0124;
1255.5000;0.2865;-0.0149;
1255.8000;0.2882;-0.0149;
1256.1000;0.2865;-0.0124;
1256.4000;0.2922;-0.0099;
1256.7000;0.2882;-0.0173;
1257.0000;0.2849;-0.0198;
1257.3000;0.2841;-0.0248;
1257.6000;0.2873;-0.0198;
1257.9000;0.2882;-0.0198;
1258.2000;0.2873;-0.0248;
1258.5000;0.2841;-0.0248;
1258.8000;0.2857;-0.0124;
1259.1000;0.2865;-0.0099;
1259.4000;0.2882;0.0025;
1259.7000;0.2873;0.0050;
1260.0000;0.2865;0.0000;
1260.3000;0.2865;0.0074;
1260.6000;0.2971;0.0297;
1260.9000;0.2873;0.0074;
1261.2000;0.2865;0.0099;
1261.5000;0.2857;0.0124;
1261.8000;0.2898;0.0322;
1262.1000;0.2882;0.0322;
1262.4000;0.2849;0.0248;
1262.7000;0.2873;0.0248;
1263.0000;0.2873;0.0173;
1263.3000;0.2857;0.0173;
1263.6000;0.2873;0.0223;
1263.9000;0.2865;0.0124;
1264.2000;0.2873;0.0297;
1264.5000;0.2865;0.0347;
1264.8000;0.2890;0.0371;
1265.1000;0.2849;0.0322;
1265.4000;0.2865;0.0248;
1265.7000;0.2873;0.0198;
1266.0000;0.2857;0.0149;
1266.3000;0.2873;0.0099;
1266.6000;0.2873;0.0149;
1266.9000;0.2873;0.0099;
1267.2000;0.2890;0.0223;
1267.5000;0.2873;0.0099;
1267.8000;0.2873;0.0149;
1268.1000;0.2873;0.0149;
1268.4000;0.2873;0.0149;
1268.7000;0.2857;0.0149;
1269.0000;0.2873;0.0223;
1269.3000;0.2841;0.0198;
1269.6000;0.2857;0.0272;
1269.9000;0.2841;0.0099;
1270.2000;0.2865;0.0124;
1270.5000;0.2857;0.0124;
1270.8000;0.2865;0.0149;
1271.1000;0.2898;0.0198;
1271.4000;0.2898;0.0074;
1271.7000;0.2873;0.0000;
1272.0000;0.2882;-0.0074;
1272.3000;0.2833;-0.0099;
1272.6000;0.2914;0.0198;
1272.9000;0.2873;0.0124;
1273.2000;0.2841;0.0025;
1273.5000;0.2882;0.0000;
1273.8000;0.2882;0.0025;
1274.1000;0.2955;0.0149;
1274.4000;0.2873;-0.0173;
1274.7000;0.2882;-0.0149;
1275.0000;0.2882;-0.0173;
1275.3000;0.2865;-0.0173;
1275.6000;0.2841;-0.0248;
1275.9000;0.2906;-0.0099;
1276.2000;0.2890;-0.0099;
1276.5000;0.2890;-0.0025;
1276.8000;0.2865;-0.0025;
1277.1000;0.2833;-0.0149;
1277.4000;0.2890;-0.0124;
1277.7000;0.2890;-0.0124;
1278.0000;0.2890;-0.0074;
1278.3000;0.2865;-0.0149;
1278.6000;0.2890;-0.0074;
1278.9000;0.2914;0.0025;
1279.2000;0.2873;0.0000;
1279.5000;0.2865;-0.0050;
1279.8000;0.2873;-0.0124;
1280.1000;0.2882;0.0000;
1280.4000;0.2906;0.0050;
1280.7000;0.2873;0.0025;
1281.0000;0.2873;0.0025;
1281.3000;0.2808;-0.0124;
1281.6000;0.2865;-0.0050;
1281.9000;0.2882;0.0050;
1282.2000;0.2873;0.0074;
1282.5000;0.2865;0.0000;
1282.8000;0.2865;0.0074;
1283.1000;0.2882;0.0099;
1283.4000;0.2882;0.0149;
1283.7000;0.2882;0.0149;
1284.0000;0.2857;0.0099;
1284.3000;0.2857;0.0099;
1284.6000;0.2865;0.0074;
1284.9000;0.2898;0.0149;
1285.2000;0.2865;0.0099;
1285.5000;0.2849;0.0050;
1285.8000;0.2890;0.0149;
1286.1000;0.2857;0.0124;
1286.4000;0.2865;0.0124;
1286.7000;0.2857;0.0025;
1287.0000;0.2865;0.0025;
1287.3000;0.2882;0.0099;
1287.6000;0.2906;0.0099;
1287.9000;0.2882;0.0050;
1288.2000;0.2873;0.0099;
1288.5000;0.2865;0.0173;
1288.8000;0.2906;0.0297;
1289.1000;0.2873;0.0198;
1289.4000;0.2873;0.0173;
1289.7000;0.2865;0.0198;
1290.0000;0.2873;0.0223;
1290.3000;0.2873;0.0223;
1290.6000;0.2865;0.0223;
1290.9000;0.2882;0.0173;
1291.2000;0.2873;0.0149;
1291.5000;0.2865;0.0149;
1291.8000;0.2865;0.0149;
1292.1000;0.2857;0.0149;
1292.4000;0.2849;0.0050;
1292.7000;0.2857;0.0050;
1293.0000;0.2865;0.0099;
1293.3000;0.2873;0.0124;
1293.6000;0.2857;0.0124;
1293.9000;0.2873;0.0149;
1294.2000;0.2873;0.0074;
1294.5000;0.2873;0.0050;
1294.8000;0.2841;0.0000;
1295.1000;0.2873;0.0124;
1295.4000;0.2882;0.0124;
1295.7000;0.2873;0.0074;
1296.0000;0.2865;0.0099;
1296.3000;0.2873;0.0099;
1296.6000;0.2882;0.0074;
1296.9000;0.2882;0.0099;
1297.2000;0.2873;0.0025;
1297.5000;0.2865;0.0025;
1297.8000;0.2865;0.0025;
1298.1000;0.2922;0.0173;
1298.4000;0.2890;0.0149;
1298.7000;0.2873;0.0173;
1299.0000;0.2882;0.0198;
1299.3000;0.2873;0.0124;
1299.6000;0.2873;0.0124;
1299.9000;0.2882;0.0149;
1300.2000;0.2857;0.0149;
1300.5000;0.2882;0.0173;
1300.8000;0.2882;0.0099;
1301.1000;0.2873;0.0149;
1301.4000;0.2865;0.0124;
1301.7000;0.2865;0.0124;
1302.0000;0.2873;0.0149;
1302.3000;0.2873;0.0173;
1302.6000;0.2955;0.0347;
1302.9000;0.2882;0.0198;
1303.2000;0.2873;0.0124;
1303.5000;0.2873;0.0074;
1303.8000;0.2873;0.0050;
1304.1000;0.2873;0.0074;
1304.4000;0.2890;0.0149;
1304.7000;0.2882;0.0173;
1305.0000;0.2865;0.0173;
1305.3000;0.2882;0.0198;
1305.6000;0.2890;0.0173;
1305.9000;0.2865;0.0198;
1306.2000;0.2825;-0.0050;
1306.5000;0.2857;0.0074;
1306.8000;0.2857;0.0050;
1307.1000;0.2882;0.0074;
1307.4000;0.2849;-0.0050;
1307.7000;0.2857;-0.0050;
1308.0000;0.2865;-0.0074;
1308.3000;0.2882;0.0000;
1308.6000;0.2882;0.0000;
1308.9000;0.2849;0.0000;
1309.2000;0.2865;0.0025;
1309.5000;0.2882;0.0025;
1309.8000;0.2873;0.0000;
1310.1000;0.2882;-0.0074;
1310.4000;0.2800;-0.0396;
1310.7000;0.2857;-0.0198;
1311.0000;0.2890;-0.0124;
1311.3000;0.2873;-0.0025;
1311.6000;0.2882;-0.0050;
1311.9000;0.2890;0.0025;
1312.2000;0.2873;0.0000;
1312.5000;0.2882;0.0050;
1312.8000;0.2882;0.0050;
1313.1000;0.2873;-0.0025;
1313.4000;0.2914;0.0099;
1313.7000;0.2890;0.0025;
1314.0000;0.2833;-0.0025;
1314.3000;0.2865;0.0025;
1314.6000;0.2857;0.0000;
1314.9000;0.2890;0.0173;
1315.2000;0.2865;0.0124;
1315.5000;0.2873;0.0124;
1315.8000;0.2865;0.0173;
1316.1000;0.2825;0.0025;
1316.4000;0.2857;0.0099;
1316.7000;0.2865;0.0124;
1317.0000;0.2865;0.0099;
1317.3000;0.2857;0.0050;
1317.6000;0.2882;0.0074;
1317.9000;0.2849;0.0050;
1318.2000;0.2857;0.0074;
1318.5000;0.2890;0.0124;
1318.8000;0.2873;0.0074;
1319.1000;0.2849;0.0050;
1319.4000;0.2873;0.0099;
1319.7000;0.2882;0.0000;
1320.0000;0.2865;0.0050;
1320.3000;0.2890;0.0050;
1320.6000;0.2833;-0.0025;
1320.9000;0.2873;0.0149;
1321.2000;0.2882;0.0149;
1321.5000;0.2865;0.0124;
1321.8000;0.2857;0.0050;
1322.1000;0.2873;0.0124;
1322.4000;0.2873;0.0173;
1322.7000;0.2873;0.0149;
1323.0000;0.2873;0.0124;
1323.3000;0.2857;0.0050;
1323.6000;0.2865;0.0074;
1323.9000;0.2857;0.0050;
1324.2000;0.2865;0.0025;
1324.5000;0.2857;0.0099;
1324.8000;0.2882;0.0173;
1325.1000;0.2914;0.0248;
1325.4000;0.2898;0.0124;
1325.7000;0.2906;0.0124;
1326.0000;0.2857;-0.0050;
1326.3000;0.2873;-0.0074;
1326.6000;0.2882;-0.0149;
1326.9000;0.2873;-0.0198;
1327.2000;0.2849;-0.0223;
1327.5000;0.2833;-0.0248;
1327.8000;0.2873;-0.0124;
1328.1000;0.2890;0.0000;
1328.4000;0.2849;-0.0074;
1328.7000;0.2857;-0.0099;
1329.0000;0.2930;0.0050;
1329.3000;0.2882;0.0025;
1329.6000;0.2833;-0.0124;
1329.9000;0.2882;-0.0074;
1330.2000;0.2873;-0.0025;
1330.5000;0.2930;0.0173;
1330.8000;0.2882;0.0050;
1331.1000;0.2873;-0.0025;
1331.4000;0.2849;0.0050;
1331.7000;0.2882;0.0149;
1332.0000;0.2857;0.0050;
1332.3000;0.2865;0.0050;
1332.6000;0.2882;0.0099;
1332.9000;0.2865;0.0025;
1333.2000;0.2873;0.0000;
1333.5000;0.2857;0.0000;
1333.8000;0.2865;-0.0025;
1334.1000;0.2857;-0.0074;
1334.4000;0.2890;0.0025;
1334.7000;0.2865;0.0025;
1335.0000;0.2922;0.0124;
1335.3000;0.2882;0.0074;
1335.6000;0.2857;-0.0025;
1335.9000;0.2865;-0.0074;
1336.2000;0.2857;-0.0025;
1336.5000;0.2865;0.0025;
1336.8000;0.2963;0.0198;
1337.1000;0.2898;-0.0050;
1337.4000;0.2865;0.0025;
1337.7000;0.2865;0.0074;
1338.0000;0.2906;0.0272;
1338.3000;0.2873;0.0099;
1338.6000;0.2873;0.0149;
1338.9000;0.2890;0.0223;
1339.2000;0.2865;0.0248;
1339.5000;0.2882;0.0223;
1339.8000;0.2873;0.0149;
1340.1000;0.2873;0.0099;
1340.4000;0.2882;0.0099;
1340.7000;0.2857;0.0000;
1341.0000;0.2865;0.0050;
1341.3000;0.2857;0.0025;
1341.6000;0.2873;0.0050;
1341.9000;0.2882;0.0099;
1342.2000;0.2898;0.0074;
1342.5000;0.2857;0.0124;
1342.8000;0.2873;0.0173;
1343.1000;0.2865;0.0124;
1343.4000;0.2882;0.0099;
1343.7000;0.2857;0.0025;
1344.0000;0.2865;0.0025;
1344.3000;0.2849;0.0025;
1344.6000;0.2882;0.0099;
1344.9000;0.2873;0.0173;
1345.2000;0.2865;0.0124;
1345.5000;0.2857;0.0099;
1345.8000;0.2898;0.0223;
1346.1000;0.2849;0.0000;
1346.4000;0.2873;0.0124;
1346.7000;0.2882;0.0173;
1347.0000;0.2849;0.0074;
1347.3000;0.2873;0.0149;
1347.6000;0.2865;0.0099;
1347.9000;0.2841;0.0074;
1348.2000;0.2857;0.0149;
1348.5000;0.2849;0.0074;
1348.8000;0.2882;0.0000;
1349.1000;0.2971;0.0297;
1349.4000;0.2882;0.0074;
1349.7000;0.2865;0.0050;
1350.0000;0.2865;0.0000;
1350.3000;0.2865;0.0025;
1350.6000;0.2857;-0.0025;
1350.9000;0.2865;0.0074;
1351.2000;0.2857;0.0050;
1351.5000;0.2857;0.0050;
1351.8000;0.2865;0.0050;
1352.1000;0.2841;0.0000;
1352.4000;0.2849;0.0050;
1352.7000;0.2857;0.0000;
1353.0000;0.2963;0.0248;
1353.3000;0.2882;0.0099;
1353.6000;0.2882;0.0124;
1353.9000;0.2865;0.0124;
1354.2000;0.2890;0.0124;
1354.5000;0.2882;0.0099;
1354.8000;0.2857;0.0050;
1355.1000;0.2882;-0.0025;
1355.4000;0.2873;-0.0074;
1355.7000;0.2873;-0.0050;
1356.0000;0.2873;-0.0050;
1356.3000;0.2865;0.0074;
1356.6000;0.2873;0.0050;
1356.9000;0.2873;0.0025;
1357.2000;0.2890;0.0000;
1357.5000;0.2873;-0.0099;
1357.8000;0.2865;-0.0173;
1358.1000;0.2865;-0.0124;
1358.4000;0.2890;-0.0074;
1358.7000;0.2882;-0.0074;
1359.0000;0.2873;-0.0099;
1359.3000;0.2890;0.0000;
1359.6000;0.2882;-0.0074;
1359.9000;0.2849;-0.0074;
1360.2000;0.2898;0.0074;
1360.5000;0.2882;0.0099;
1360.8000;0.2865;0.0025;
1361.1000;0.2865;0.0025;
1361.4000;0.2873;0.0074;
1361.7000;0.2873;0.0149;
1362.0000;0.2849;0.0074;
1362.3000;0.2841;0.0000;
1362.6000;0.2873;0.0074;
1362.9000;0.2865;-0.0025;
1363.2000;0.2857;-0.0025;
1363.5000;0.2873;0.0124;
1363.8000;0.2873;0.0248;
1364.1000;0.2873;0.0322;
1364.4000;0.2890;0.0322;
1364.7000;0.2898;0.0421;
1365.0000;0.2865;0.0248;
1365.3000;0.2825;0.0074;
1365.6000;0.2930;0.0371;
1365.9000;0.2808;0.0124;
1366.2000;0.2857;0.0322;
1366.5000;0.2873;0.0322;
1366.8000;0.2882;0.0223;
1367.1000;0.2873;0.0149;
1367.4000;0.2873;0.0149;
1367.7000;0.2857;0.0124;
1368.0000;0.2890;0.0099;
1368.3000;0.2882;0.0025;
1368.6000;0.2882;0.0000;
1368.9000;0.2849;-0.0099;
1369.2000;0.2882;-0.0074;
1369.5000;0.2890;-0.0099;
1369.8000;0.2898;-0.0124;
1370.1000;0.2865;-0.0173;
1370.4000;0.2865;-0.0149;
1370.7000;0.2873;-0.0124;
1371.0000;0.2873;-0.0099;
1371.3000;0.2882;0.0074;
1371.6000;0.2890;0.0149;
1371.9000;0.2882;0.0124;
1372.2000;0.2825;-0.0025;
1372.5000;0.2865;0.0025;
1372.8000;0.2865;0.0000;
1373.1000;0.2865;-0.0074;
1373.4000;0.2857;-0.0223;
1373.7000;0.2865;-0.0248;
1374.0000;0.2857;-0.0223;
1374.3000;0.2882;-0.0124;
1374.6000;0.2865;-0.0124;
1374.9000;0.2857;-0.0099;
1375.2000;0.2816;-0.0297;
1375.5000;0.2882;-0.0074;
1375.8000;0.2882;-0.0025;
1376.1000;0.2865;-0.0074;
1376.4000;0.2873;0.0000;
1376.7000;0.2882;0.0025;
1377.0000;0.2890;0.0050;
1377.3000;0.2865;0.0074;
1377.6000;0.2865;0.0050;
1377.9000;0.2873;0.0074;
1378.2000;0.2873;0.0099;
1378.5000;0.2873;0.0025;
1378.8000;0.2865;0.0025;
1379.1000;0.2890;0.0149;
1379.4000;0.2865;0.0248;
1379.7000;0.2890;0.0223;
1380.0000;0.2865;0.0149;
1380.3000;0.2849;0.0099;
1380.6000;0.2882;0.0198;
1380.9000;0.2882;0.0223;
1381.2000;0.2865;0.0297;
1381.5000;0.2865;0.0297;
1381.8000;0.2882;0.0421;
1382.1000;0.2873;0.0347;
1382.4000;0.2882;0.0297;
1382.7000;0.2882;0.0223;
1383.0000;0.2873;0.0173;
1383.3000;0.2873;0.0223;
1383.6000;0.2873;0.0124;
1383.9000;0.2873;0.0074;
1384.2000;0.2857;0.0124;
1384.5000;0.2873;0.0124;
1384.8000;0.2882;0.0173;
1385.1000;0.2873;0.0099;
1385.4000;0.2873;0.0173;
1385.7000;0.2857;0.0173;
1386.0000;0.2857;0.0198;
1386.3000;0.2882;0.0198;
1386.6000;0.2882;0.0124;
1386.9000;0.2865;0.0099;
1387.2000;0.2873;0.0149;
1387.5000;0.2873;0.0173;
1387.8000;0.2873;0.0248;
1388.1000;0.2873;0.0198;
1388.4000;0.2873;0.0173;
1388.7000;0.2882;0.0248;
1389.0000;0.2857;0.0272;
1389.3000;0.2849;0.0198;
1389.6000;0.2873;0.0272;
1389.9000;0.2882;0.0347;
1390.2000;0.2882;0.0322;
1390.5000;0.2873;0.0297;
1390.8000;0.2873;0.0297;
1391.1000;0.2873;0.0297;
1391.4000;0.2873;0.0248;
1391.7000;0.2849;0.0173;
1392.0000;0.2882;0.0272;
1392.3000;0.2849;0.0223;
1392.6000;0.2873;0.0297;
1392.9000;0.2882;0.0248;
1393.2000;0.2865;0.0272;
1393.5000;0.2882;0.0248;
1393.8000;0.2898;0.0272;
1394.1000;0.2865;0.0149;
1394.4000;0.2873;0.0074;
1394.7000;0.2882;0.0124;
1395.0000;0.2873;0.0050;
1395.3000;0.2841;-0.0025;
1395.6000;0.2865;0.0025;
1395.9000;0.2849;0.0074;
1396.2000;0.2882;0.0074;
1396.5000;0.2882;0.0149;
1396.8000;0.2865;0.0149;
1397.1000;0.2865;0.0149;
1397.4000;0.2865;0.0198;
1397.7000;0.2873;0.0173;
1398.0000;0.2890;0.0124;
1398.3000;0.2865;0.0124;
1398.6000;0.2873;0.0149;
1398.9000;0.2825;0.0074;
1399.2000;0.2882;0.0297;
1399.5000;0.2882;0.0347;
1399.8000;0.2873;0.0223;
