time/ms;Fluo/V;P700 deltaI/I x10³;
-199.8000;0.1522;-0.0741;
-199.5000;0.1514;-0.0789;
-199.2000;0.1587;-0.0621;
-198.9000;0.1547;-0.0717;
-198.6000;0.1530;-0.0789;
-198.3000;0.1506;-0.0812;
-198.0000;0.1522;-0.0836;
-197.7000;0.1530;-0.0812;
-197.4000;0.1457;-0.0932;
-197.1000;0.1604;-0.0550;
-196.8000;0.1579;-0.0669;
-196.5000;0.1538;-0.0836;
-196.2000;0.1595;-0.0669;
-195.9000;0.1547;-0.0908;
-195.6000;0.1530;-0.0932;
-195.3000;0.1506;-0.0980;
-195.0000;0.1547;-0.0908;
-194.7000;0.1579;-0.0717;
-194.4000;0.1538;-0.0836;
-194.1000;0.1490;-0.0956;
-193.8000;0.1498;-0.1004;
-193.5000;0.1433;-0.1219;
-193.2000;0.1547;-0.0836;
-192.9000;0.1514;-0.0956;
-192.6000;0.1530;-0.0932;
-192.3000;0.1490;-0.0980;
-192.0000;0.1620;-0.0741;
-191.7000;0.1530;-0.0908;
-191.4000;0.1522;-0.0956;
-191.1000;0.1538;-0.0908;
-190.8000;0.1522;-0.0932;
-190.5000;0.1538;-0.0956;
-190.2000;0.1506;-0.0956;
-189.9000;0.1555;-0.0836;
-189.6000;0.1522;-0.0884;
-189.3000;0.1530;-0.0884;
-189.0000;0.1530;-0.0860;
-188.7000;0.1522;-0.0812;
-188.4000;0.1490;-0.0956;
-188.1000;0.1522;-0.0884;
-187.8000;0.1555;-0.0789;
-187.5000;0.1522;-0.0932;
-187.2000;0.1563;-0.0860;
-186.9000;0.1538;-0.1004;
-186.6000;0.1449;-0.1290;
-186.3000;0.1547;-0.0956;
-186.0000;0.1538;-0.0980;
-185.7000;0.1555;-0.0908;
-185.4000;0.1530;-0.0932;
-185.1000;0.1538;-0.0860;
-184.8000;0.1555;-0.0860;
-184.5000;0.1481;-0.1028;
-184.2000;0.1538;-0.0836;
-183.9000;0.1522;-0.0860;
-183.6000;0.1530;-0.0789;
-183.3000;0.1595;-0.0574;
-183.0000;0.1522;-0.0789;
-182.7000;0.1498;-0.0932;
-182.4000;0.1522;-0.0956;
-182.1000;0.1547;-0.0932;
-181.8000;0.1514;-0.0956;
-181.5000;0.1506;-0.0908;
-181.2000;0.1514;-0.0884;
-180.9000;0.1563;-0.0765;
-180.6000;0.1555;-0.0812;
-180.3000;0.1530;-0.0860;
-180.0000;0.1538;-0.0836;
-179.7000;0.1506;-0.0908;
-179.4000;0.1530;-0.0860;
-179.1000;0.1514;-0.0860;
-178.8000;0.1506;-0.0908;
-178.5000;0.1530;-0.0812;
-178.2000;0.1514;-0.0884;
-177.9000;0.1522;-0.0884;
-177.6000;0.1514;-0.0980;
-177.3000;0.1522;-0.0884;
-177.0000;0.1661;-0.0502;
-176.7000;0.1530;-0.0836;
-176.4000;0.1538;-0.0836;
-176.1000;0.1595;-0.0717;
-175.8000;0.1530;-0.0884;
-175.5000;0.1563;-0.0836;
-175.2000;0.1465;-0.1123;
-174.9000;0.1530;-0.0932;
-174.6000;0.1530;-0.1004;
-174.3000;0.1628;-0.0812;
-174.0000;0.1538;-0.0908;
-173.7000;0.1530;-0.0908;
-173.4000;0.1514;-0.1004;
-173.1000;0.1595;-0.0789;
-172.8000;0.1547;-0.0980;
-172.5000;0.1490;-0.1051;
-172.2000;0.1530;-0.0932;
-171.9000;0.1563;-0.0932;
-171.6000;0.1547;-0.0956;
-171.3000;0.1522;-0.1051;
-171.0000;0.1530;-0.0956;
-170.7000;0.1538;-0.1004;
-170.4000;0.1644;-0.0669;
-170.1000;0.1498;-0.1028;
-169.8000;0.1522;-0.0860;
-169.5000;0.1522;-0.0908;
-169.2000;0.1555;-0.0812;
-168.9000;0.1563;-0.0741;
-168.6000;0.1522;-0.0789;
-168.3000;0.1530;-0.0836;
-168.0000;0.1530;-0.0860;
-167.7000;0.1547;-0.0836;
-167.4000;0.1530;-0.0932;
-167.1000;0.1514;-0.0932;
-166.8000;0.1522;-0.0956;
-166.5000;0.1490;-0.1099;
-166.2000;0.1522;-0.0932;
-165.9000;0.1522;-0.0956;
-165.6000;0.1514;-0.0956;
-165.3000;0.1547;-0.0884;
-165.0000;0.1538;-0.0908;
-164.7000;0.1481;-0.1051;
-164.4000;0.1514;-0.0884;
-164.1000;0.1530;-0.0836;
-163.8000;0.1506;-0.0932;
-163.5000;0.1538;-0.0908;
-163.2000;0.1514;-0.0980;
-162.9000;0.1538;-0.0860;
-162.6000;0.1538;-0.0884;
-162.3000;0.1522;-0.0980;
-162.0000;0.1530;-0.0980;
-161.7000;0.1555;-0.0908;
-161.4000;0.1644;-0.0645;
-161.1000;0.1538;-0.0932;
-160.8000;0.1530;-0.0884;
-160.5000;0.1506;-0.0956;
-160.2000;0.1538;-0.0860;
-159.9000;0.1538;-0.0956;
-159.6000;0.1555;-0.0884;
-159.3000;0.1522;-0.1051;
-159.0000;0.1530;-0.1051;
-158.7000;0.1538;-0.0956;
-158.4000;0.1563;-0.0908;
-158.1000;0.1522;-0.0956;
-157.8000;0.1530;-0.0932;
-157.5000;0.1530;-0.0908;
-157.2000;0.1547;-0.0836;
-156.9000;0.1538;-0.0860;
-156.6000;0.1522;-0.0884;
-156.3000;0.1555;-0.0789;
-156.0000;0.1522;-0.0932;
-155.7000;0.1604;-0.0669;
-155.4000;0.1530;-0.0908;
-155.1000;0.1530;-0.0956;
-154.8000;0.1538;-0.0980;
-154.5000;0.1530;-0.0980;
-154.2000;0.1547;-0.0980;
-153.9000;0.1530;-0.1028;
-153.6000;0.1530;-0.1004;
-153.3000;0.1538;-0.0980;
-153.0000;0.1522;-0.1004;
-152.7000;0.1555;-0.0884;
-152.4000;0.1538;-0.1075;
-152.1000;0.1522;-0.1075;
-151.8000;0.1530;-0.1051;
-151.5000;0.1530;-0.1075;
-151.2000;0.1522;-0.1075;
-150.9000;0.1514;-0.1028;
-150.6000;0.1514;-0.0980;
-150.3000;0.1530;-0.0860;
-150.0000;0.1538;-0.0884;
-149.7000;0.1547;-0.0812;
-149.4000;0.1538;-0.0741;
-149.1000;0.1506;-0.0860;
-148.8000;0.1547;-0.0741;
-148.5000;0.1530;-0.0789;
-148.2000;0.1522;-0.0884;
-147.9000;0.1547;-0.0836;
-147.6000;0.1563;-0.0884;
-147.3000;0.1538;-0.0932;
-147.0000;0.1522;-0.0980;
-146.7000;0.1514;-0.1028;
-146.4000;0.1547;-0.1075;
-146.1000;0.1555;-0.1051;
-145.8000;0.1530;-0.1099;
-145.5000;0.1441;-0.1314;
-145.2000;0.1530;-0.1123;
-144.9000;0.1425;-0.1434;
-144.6000;0.1506;-0.1266;
-144.3000;0.1506;-0.1243;
-144.0000;0.1661;-0.0741;
-143.7000;0.1522;-0.1195;
-143.4000;0.1522;-0.1171;
-143.1000;0.1547;-0.1123;
-142.8000;0.1425;-0.1458;
-142.5000;0.1490;-0.1290;
-142.2000;0.1538;-0.1219;
-141.9000;0.1506;-0.1314;
-141.6000;0.1563;-0.1195;
-141.3000;0.1530;-0.1195;
-141.0000;0.1514;-0.1147;
-140.7000;0.1514;-0.1051;
-140.4000;0.1612;-0.0812;
-140.1000;0.1514;-0.1123;
-139.8000;0.1506;-0.1195;
-139.5000;0.1587;-0.1028;
-139.2000;0.1506;-0.1219;
-138.9000;0.1522;-0.1243;
-138.6000;0.1555;-0.1243;
-138.3000;0.1514;-0.1243;
-138.0000;0.1530;-0.1099;
-137.7000;0.1628;-0.0836;
-137.4000;0.1571;-0.0980;
-137.1000;0.1530;-0.1147;
-136.8000;0.1636;-0.0908;
-136.5000;0.1522;-0.1099;
-136.2000;0.1522;-0.1075;
-135.9000;0.1555;-0.0956;
-135.6000;0.1506;-0.1051;
-135.3000;0.1538;-0.1075;
-135.0000;0.1587;-0.0860;
-134.7000;0.1449;-0.1219;
-134.4000;0.1547;-0.0932;
-134.1000;0.1514;-0.0956;
-133.8000;0.1547;-0.1075;
-133.5000;0.1514;-0.1195;
-133.2000;0.1514;-0.1219;
-132.9000;0.1538;-0.1099;
-132.6000;0.1530;-0.0932;
-132.3000;0.1514;-0.0860;
-132.0000;0.1547;-0.0789;
-131.7000;0.1547;-0.0932;
-131.4000;0.1547;-0.0980;
-131.1000;0.1522;-0.1028;
-130.8000;0.1538;-0.0908;
-130.5000;0.1530;-0.0956;
-130.2000;0.1538;-0.0956;
-129.9000;0.1522;-0.0980;
-129.6000;0.1555;-0.0956;
-129.3000;0.1522;-0.1075;
-129.0000;0.1547;-0.1051;
-128.7000;0.1506;-0.1147;
-128.4000;0.1538;-0.1147;
-128.1000;0.1547;-0.1075;
-127.8000;0.1522;-0.1123;
-127.5000;0.1441;-0.1386;
-127.2000;0.1522;-0.1099;
-126.9000;0.1538;-0.1051;
-126.6000;0.1530;-0.1004;
-126.3000;0.1555;-0.0884;
-126.0000;0.1522;-0.0956;
-125.7000;0.1555;-0.0860;
-125.4000;0.1612;-0.0765;
-125.1000;0.1538;-0.0956;
-124.8000;0.1530;-0.0980;
-124.5000;0.1555;-0.0836;
-124.2000;0.1522;-0.0956;
-123.9000;0.1522;-0.1028;
-123.6000;0.1522;-0.1051;
-123.3000;0.1522;-0.0980;
-123.0000;0.1538;-0.0932;
-122.7000;0.1530;-0.0932;
-122.4000;0.1498;-0.0980;
-122.1000;0.1530;-0.0908;
-121.8000;0.1555;-0.0908;
-121.5000;0.1522;-0.1028;
-121.2000;0.1473;-0.1195;
-120.9000;0.1579;-0.0884;
-120.6000;0.1547;-0.1028;
-120.3000;0.1595;-0.0932;
-120.0000;0.1547;-0.0956;
-119.7000;0.1571;-0.0956;
-119.4000;0.1506;-0.1243;
-119.1000;0.1425;-0.1410;
-118.8000;0.1530;-0.1075;
-118.5000;0.1481;-0.1171;
-118.2000;0.1481;-0.1147;
-117.9000;0.1498;-0.1051;
-117.6000;0.1547;-0.0908;
-117.3000;0.1530;-0.0860;
-117.0000;0.1514;-0.0884;
-116.7000;0.1530;-0.0908;
-116.4000;0.1587;-0.0836;
-116.1000;0.1522;-0.0884;
-115.8000;0.1636;-0.0645;
-115.5000;0.1538;-0.0812;
-115.2000;0.1555;-0.0860;
-114.9000;0.1522;-0.0980;
-114.6000;0.1514;-0.1099;
-114.3000;0.1547;-0.1004;
-114.0000;0.1547;-0.0956;
-113.7000;0.1522;-0.1028;
-113.4000;0.1522;-0.1004;
-113.1000;0.1547;-0.0980;
-112.8000;0.1538;-0.1051;
-112.5000;0.1579;-0.0884;
-112.2000;0.1547;-0.0908;
-111.9000;0.1506;-0.1028;
-111.6000;0.1547;-0.0932;
-111.3000;0.1538;-0.0908;
-111.0000;0.1538;-0.0932;
-110.7000;0.1604;-0.0812;
-110.4000;0.1522;-0.1051;
-110.1000;0.1547;-0.0980;
-109.8000;0.1555;-0.0956;
-109.5000;0.1555;-0.0908;
-109.2000;0.1530;-0.0884;
-108.9000;0.1538;-0.0860;
-108.6000;0.1530;-0.0860;
-108.3000;0.1563;-0.0789;
-108.0000;0.1547;-0.0860;
-107.7000;0.1514;-0.1028;
-107.4000;0.1530;-0.0908;
-107.1000;0.1522;-0.0980;
-106.8000;0.1522;-0.0932;
-106.5000;0.1522;-0.0836;
-106.2000;0.1538;-0.0789;
-105.9000;0.1522;-0.0884;
-105.6000;0.1547;-0.0908;
-105.3000;0.1563;-0.0836;
-105.0000;0.1530;-0.0932;
-104.7000;0.1530;-0.0860;
-104.4000;0.1514;-0.0956;
-104.1000;0.1530;-0.0932;
-103.8000;0.1547;-0.0908;
-103.5000;0.1579;-0.0812;
-103.2000;0.1636;-0.0621;
-102.9000;0.1514;-0.0908;
-102.6000;0.1506;-0.1004;
-102.3000;0.1538;-0.0884;
-102.0000;0.1522;-0.1004;
-101.7000;0.1506;-0.1171;
-101.4000;0.1514;-0.1266;
-101.1000;0.1538;-0.1266;
-100.8000;0.1522;-0.1266;
-100.5000;0.1547;-0.1195;
-100.2000;0.1538;-0.1171;
-99.9000;0.1538;-0.1147;
-99.6000;0.1538;-0.1099;
-99.3000;0.1530;-0.1051;
-99.0000;0.1530;-0.1099;
-98.7000;0.1538;-0.1004;
-98.4000;0.1555;-0.1028;
-98.1000;0.1514;-0.1195;
-97.8000;0.1538;-0.1123;
-97.5000;0.1587;-0.1028;
-97.2000;0.1530;-0.1123;
-96.9000;0.1522;-0.1075;
-96.6000;0.1530;-0.1028;
-96.3000;0.1555;-0.1051;
-96.0000;0.1547;-0.1123;
-95.7000;0.1514;-0.1171;
-95.4000;0.1522;-0.1075;
-95.1000;0.1538;-0.1051;
-94.8000;0.1547;-0.1075;
-94.5000;0.1538;-0.1123;
-94.2000;0.1612;-0.0980;
-93.9000;0.1547;-0.1147;
-93.6000;0.1530;-0.1075;
-93.3000;0.1538;-0.1028;
-93.0000;0.1514;-0.1075;
-92.7000;0.1530;-0.1075;
-92.4000;0.1481;-0.1171;
-92.1000;0.1506;-0.1099;
-91.8000;0.1465;-0.1362;
-91.5000;0.1530;-0.1171;
-91.2000;0.1530;-0.1099;
-90.9000;0.1522;-0.1004;
-90.6000;0.1579;-0.0884;
-90.3000;0.1538;-0.1099;
-90.0000;0.1522;-0.1075;
-89.7000;0.1530;-0.1028;
-89.4000;0.1530;-0.0932;
-89.1000;0.1555;-0.0860;
-88.8000;0.1522;-0.1028;
-88.5000;0.1457;-0.1195;
-88.2000;0.1538;-0.1051;
-87.9000;0.1522;-0.1028;
-87.6000;0.1481;-0.1099;
-87.3000;0.1571;-0.0956;
-87.0000;0.1530;-0.1028;
-86.7000;0.1506;-0.1099;
-86.4000;0.1547;-0.0932;
-86.1000;0.1498;-0.1075;
-85.8000;0.1514;-0.1051;
-85.5000;0.1530;-0.1051;
-85.2000;0.1538;-0.1028;
-84.9000;0.1555;-0.0908;
-84.6000;0.1530;-0.0980;
-84.3000;0.1547;-0.0980;
-84.0000;0.1563;-0.0908;
-83.7000;0.1522;-0.0932;
-83.4000;0.1538;-0.0932;
-83.1000;0.1530;-0.0884;
-82.8000;0.1563;-0.0741;
-82.5000;0.1514;-0.0812;
-82.2000;0.1547;-0.0765;
-81.9000;0.1538;-0.0717;
-81.6000;0.1506;-0.0789;
-81.3000;0.1555;-0.0717;
-81.0000;0.1612;-0.0550;
-80.7000;0.1587;-0.0669;
-80.4000;0.1498;-0.0956;
-80.1000;0.1547;-0.0741;
-79.8000;0.1547;-0.0812;
-79.5000;0.1571;-0.0765;
-79.2000;0.1530;-0.0812;
-78.9000;0.1538;-0.0812;
-78.6000;0.1538;-0.0836;
-78.3000;0.1522;-0.0884;
-78.0000;0.1481;-0.1075;
-77.7000;0.1547;-0.0884;
-77.4000;0.1620;-0.0669;
-77.1000;0.1514;-0.1075;
-76.8000;0.1514;-0.1028;
-76.5000;0.1514;-0.0980;
-76.2000;0.1547;-0.1028;
-75.9000;0.1514;-0.1075;
-75.6000;0.1530;-0.1004;
-75.3000;0.1555;-0.1051;
-75.0000;0.1538;-0.1075;
-74.7000;0.1522;-0.1075;
-74.4000;0.1522;-0.1051;
-74.1000;0.1530;-0.1028;
-73.8000;0.1530;-0.1051;
-73.5000;0.1555;-0.0980;
-73.2000;0.1481;-0.1171;
-72.9000;0.1538;-0.1075;
-72.6000;0.1538;-0.1028;
-72.3000;0.1547;-0.1028;
-72.0000;0.1530;-0.1075;
-71.7000;0.1538;-0.1075;
-71.4000;0.1530;-0.1147;
-71.1000;0.1538;-0.1147;
-70.8000;0.1522;-0.1123;
-70.5000;0.1538;-0.1051;
-70.2000;0.1522;-0.1075;
-69.9000;0.1522;-0.0980;
-69.6000;0.1530;-0.0980;
-69.3000;0.1351;-0.1505;
-69.0000;0.1547;-0.0980;
-68.7000;0.1538;-0.0932;
-68.4000;0.1530;-0.1004;
-68.1000;0.1538;-0.0884;
-67.8000;0.1538;-0.0932;
-67.5000;0.1555;-0.0884;
-67.2000;0.1522;-0.0860;
-66.9000;0.1538;-0.0908;
-66.6000;0.1449;-0.1171;
-66.3000;0.1547;-0.1004;
-66.0000;0.1547;-0.1051;
-65.7000;0.1522;-0.1075;
-65.4000;0.1547;-0.0980;
-65.1000;0.1636;-0.0693;
-64.8000;0.1530;-0.0884;
-64.5000;0.1530;-0.0884;
-64.2000;0.1514;-0.0908;
-63.9000;0.1530;-0.0932;
-63.6000;0.1481;-0.1099;
-63.3000;0.1530;-0.0980;
-63.0000;0.1538;-0.1004;
-62.7000;0.1636;-0.0693;
-62.4000;0.1547;-0.0956;
-62.1000;0.1514;-0.1004;
-61.8000;0.1530;-0.0932;
-61.5000;0.1538;-0.1004;
-61.2000;0.1530;-0.1051;
-60.9000;0.1604;-0.0836;
-60.6000;0.1530;-0.1004;
-60.3000;0.1530;-0.0908;
-60.0000;0.1530;-0.0956;
-59.7000;0.1587;-0.0765;
-59.4000;0.1530;-0.0932;
-59.1000;0.1522;-0.1075;
-58.8000;0.1522;-0.1051;
-58.5000;0.1587;-0.0932;
-58.2000;0.1514;-0.1099;
-57.9000;0.1547;-0.1051;
-57.6000;0.1538;-0.1051;
-57.3000;0.1538;-0.1051;
-57.0000;0.1538;-0.1075;
-56.7000;0.1555;-0.1051;
-56.4000;0.1538;-0.1051;
-56.1000;0.1530;-0.1075;
-55.8000;0.1547;-0.1051;
-55.5000;0.1547;-0.1028;
-55.2000;0.1530;-0.1123;
-54.9000;0.1514;-0.1195;
-54.6000;0.1555;-0.1099;
-54.3000;0.1563;-0.1123;
-54.0000;0.1522;-0.1123;
-53.7000;0.1514;-0.1219;
-53.4000;0.1465;-0.1386;
-53.1000;0.1538;-0.1123;
-52.8000;0.1514;-0.1147;
-52.5000;0.1547;-0.1075;
-52.2000;0.1547;-0.1028;
-51.9000;0.1547;-0.1099;
-51.6000;0.1522;-0.1243;
-51.3000;0.1530;-0.1123;
-51.0000;0.1555;-0.1099;
-50.7000;0.1547;-0.1075;
-50.4000;0.1636;-0.0932;
-50.1000;0.1555;-0.1171;
-49.8000;0.1530;-0.1171;
-49.5000;0.1538;-0.1051;
-49.2000;0.1538;-0.1075;
-48.9000;0.1604;-0.0812;
-48.6000;0.1522;-0.0980;
-48.3000;0.1457;-0.1243;
-48.0000;0.1538;-0.1028;
-47.7000;0.1547;-0.0980;
-47.4000;0.1392;-0.1386;
-47.1000;0.1400;-0.1362;
-46.8000;0.1579;-0.0908;
-46.5000;0.1522;-0.1075;
-46.2000;0.1547;-0.1075;
-45.9000;0.1384;-0.1482;
-45.6000;0.1547;-0.1075;
-45.3000;0.1481;-0.1243;
-45.0000;0.1514;-0.1099;
-44.7000;0.1538;-0.1051;
-44.4000;0.1538;-0.1004;
-44.1000;0.1547;-0.0956;
-43.8000;0.1490;-0.1171;
-43.5000;0.1530;-0.1028;
-43.2000;0.1538;-0.0980;
-42.9000;0.1547;-0.0956;
-42.6000;0.1384;-0.1434;
-42.3000;0.1547;-0.0980;
-42.0000;0.1620;-0.0812;
-41.7000;0.1547;-0.1028;
-41.4000;0.1530;-0.1075;
-41.1000;0.1538;-0.1147;
-40.8000;0.1547;-0.1147;
-40.5000;0.1490;-0.1314;
-40.2000;0.1538;-0.1266;
-39.9000;0.1555;-0.1147;
-39.6000;0.1555;-0.1051;
-39.3000;0.1547;-0.1051;
-39.0000;0.1506;-0.1219;
-38.7000;0.1538;-0.1099;
-38.4000;0.1538;-0.1219;
-38.1000;0.1547;-0.1147;
-37.8000;0.1498;-0.1290;
-37.5000;0.1571;-0.1123;
-37.2000;0.1506;-0.1266;
-36.9000;0.1498;-0.1219;
-36.6000;0.1530;-0.1171;
-36.3000;0.1538;-0.1099;
-36.0000;0.1473;-0.1314;
-35.7000;0.1530;-0.1123;
-35.4000;0.1530;-0.1075;
-35.1000;0.1547;-0.1075;
-34.8000;0.1595;-0.0908;
-34.5000;0.1530;-0.1075;
-34.2000;0.1547;-0.1075;
-33.9000;0.1514;-0.1123;
-33.6000;0.1547;-0.1123;
-33.3000;0.1555;-0.1075;
-33.0000;0.1522;-0.1147;
-32.7000;0.1449;-0.1362;
-32.4000;0.1449;-0.1266;
-32.1000;0.1522;-0.1123;
-31.8000;0.1571;-0.1051;
-31.5000;0.1522;-0.1147;
-31.2000;0.1514;-0.1171;
-30.9000;0.1514;-0.1171;
-30.6000;0.1620;-0.0908;
-30.3000;0.1522;-0.1123;
-30.0000;0.1563;-0.1075;
-29.7000;0.1490;-0.1266;
-29.4000;0.1538;-0.1123;
-29.1000;0.1522;-0.1195;
-28.8000;0.1579;-0.1004;
-28.5000;0.1563;-0.1075;
-28.2000;0.1506;-0.1266;
-27.9000;0.1522;-0.1243;
-27.6000;0.1530;-0.1171;
-27.3000;0.1530;-0.1195;
-27.0000;0.1514;-0.1171;
-26.7000;0.1522;-0.1147;
-26.4000;0.1498;-0.1147;
-26.1000;0.1538;-0.1051;
-25.8000;0.1530;-0.1099;
-25.5000;0.1530;-0.0980;
-25.2000;0.1538;-0.0980;
-24.9000;0.1538;-0.0908;
-24.6000;0.1530;-0.0980;
-24.3000;0.1620;-0.0812;
-24.0000;0.1530;-0.1075;
-23.7000;0.1530;-0.1075;
-23.4000;0.1563;-0.1004;
-23.1000;0.1547;-0.1075;
-22.8000;0.1522;-0.1171;
-22.5000;0.1506;-0.1266;
-22.2000;0.1522;-0.1171;
-21.9000;0.1498;-0.1171;
-21.6000;0.1506;-0.1147;
-21.3000;0.1490;-0.1195;
-21.0000;0.1514;-0.1195;
-20.7000;0.1563;-0.1028;
-20.4000;0.1530;-0.1147;
-20.1000;0.1547;-0.1051;
-19.8000;0.1555;-0.1004;
-19.5000;0.1571;-0.0980;
-19.2000;0.1547;-0.1028;
-18.9000;0.1530;-0.1028;
-18.6000;0.1555;-0.0980;
-18.3000;0.1547;-0.1051;
-18.0000;0.1587;-0.0980;
-17.7000;0.1538;-0.1099;
-17.4000;0.1547;-0.1051;
-17.1000;0.1547;-0.1075;
-16.8000;0.1563;-0.1099;
-16.5000;0.1538;-0.1171;
-16.2000;0.1547;-0.1171;
-15.9000;0.1530;-0.1171;
-15.6000;0.1644;-0.0765;
-15.3000;0.1538;-0.1123;
-15.0000;0.1530;-0.1195;
-14.7000;0.1506;-0.1243;
-14.4000;0.1506;-0.1219;
-14.1000;0.1506;-0.1147;
-13.8000;0.1563;-0.0980;
-13.5000;0.1522;-0.1004;
-13.2000;0.1538;-0.0932;
-12.9000;0.1530;-0.0908;
-12.6000;0.1514;-0.0956;
-12.3000;0.1547;-0.0884;
-12.0000;0.1514;-0.0980;
-11.7000;0.1506;-0.0980;
-11.4000;0.1538;-0.0812;
-11.1000;0.1530;-0.0860;
-10.8000;0.1538;-0.0812;
-10.5000;0.1669;-0.0406;
-10.2000;0.1547;-0.0765;
-9.9000;0.1522;-0.0908;
-9.6000;0.1498;-0.1051;
-9.3000;0.1538;-0.1051;
-9.0000;0.1514;-0.1099;
-8.7000;0.1522;-0.1075;
-8.4000;0.1620;-0.0717;
-8.1000;0.1547;-0.0956;
-7.8000;0.1620;-0.0717;
-7.5000;0.1604;-0.0669;
-7.2000;0.1547;-0.0717;
-6.9000;0.1522;-0.0789;
-6.6000;0.1522;-0.0836;
-6.3000;0.1538;-0.0789;
-6.0000;0.1547;-0.0789;
-5.7000;0.1538;-0.0741;
-5.4000;0.1587;-0.0621;
-5.1000;0.1530;-0.0836;
-4.8000;0.1506;-0.0884;
-4.5000;0.1530;-0.0860;
-4.2000;0.1514;-0.0812;
-3.9000;0.1522;-0.0812;
-3.6000;0.1547;-0.0789;
-3.3000;0.1555;-0.0789;
-3.0000;0.1538;-0.0884;
-2.7000;0.1538;-0.0884;
-2.4000;0.1522;-0.0884;
-2.1000;0.1522;-0.0812;
-1.8000;0.1522;-0.0860;
-1.5000;0.1538;-0.0836;
-1.2000;0.1530;-0.0908;
-0.9000;0.1514;-0.0932;
-0.6000;0.1506;-0.0980;
-0.3000;0.1538;-0.0932;
0.0000;0.1538;-0.0932;
0.3000;0.1498;-0.1051;
0.6000;0.1506;-0.0956;
0.9000;0.1538;-0.0765;
1.2000;0.1522;-0.0789;
1.5000;0.1547;-0.0717;
1.8000;0.1547;-0.0693;
2.1000;0.1547;-0.0669;
2.4000;0.1555;-0.0574;
2.7000;0.1579;-0.0358;
3.0000;0.1547;-0.0502;
3.3000;0.1636;-0.0215;
3.6000;0.1530;-0.0382;
3.9000;0.1538;-0.0430;
4.2000;0.1530;-0.0358;
4.5000;0.1538;-0.0239;
4.8000;0.1522;-0.0167;
5.1000;0.1547;-0.0119;
5.4000;0.1514;-0.0119;
5.7000;0.1538;0.0048;
6.0000;0.1514;0.0024;
6.3000;0.1571;0.0048;
6.6000;0.1530;-0.0048;
6.9000;0.1522;-0.0072;
7.2000;0.1530;-0.0072;
7.5000;0.1514;-0.0167;
7.8000;0.1522;-0.0215;
8.1000;0.1522;-0.0143;
8.4000;0.1538;-0.0072;
8.7000;0.1555;0.0000;
9.0000;0.1538;0.0000;
9.3000;0.1506;0.0000;
9.6000;0.1522;-0.0024;
9.9000;0.1538;0.0024;
10.2000;0.1530;0.0000;
10.5000;0.1530;0.0072;
10.8000;0.1547;0.0119;
11.1000;0.1522;0.0096;
11.4000;0.1498;0.0000;
11.7000;0.1530;0.0048;
12.0000;0.1522;0.0048;
12.3000;0.1530;0.0096;
12.6000;0.1547;0.0119;
12.9000;0.1547;0.0096;
13.2000;0.1530;0.0000;
13.5000;0.1530;0.0072;
13.8000;0.1490;-0.0024;
14.1000;0.1473;-0.0119;
14.4000;0.1563;0.0072;
14.7000;0.1522;0.0024;
15.0000;0.1522;0.0072;
15.3000;0.1547;0.0096;
15.6000;0.1457;-0.0191;
15.9000;0.1538;0.0096;
16.2000;0.1498;0.0000;
16.5000;0.1490;-0.0024;
16.8000;0.1465;0.0000;
17.1000;0.1604;0.0335;
17.4000;0.1506;0.0143;
17.7000;0.1522;0.0143;
18.0000;0.1506;0.0024;
18.3000;0.1514;0.0000;
18.6000;0.1514;-0.0072;
18.9000;0.1522;0.0024;
19.2000;0.1555;0.0048;
19.5000;0.1547;0.0000;
19.8000;0.1473;-0.0143;
20.1000;0.1563;0.0048;
20.4000;0.1538;0.0000;
20.7000;0.1530;-0.0072;
21.0000;0.1522;-0.0096;
21.3000;0.1514;-0.0096;
21.6000;0.1522;-0.0167;
21.9000;0.1530;-0.0263;
22.2000;0.1555;-0.0239;
22.5000;0.1538;-0.0119;
22.8000;0.1498;-0.0191;
23.1000;0.1522;-0.0119;
23.4000;0.1555;-0.0024;
23.7000;0.1538;-0.0048;
24.0000;0.1522;-0.0072;
24.3000;0.1522;-0.0096;
24.6000;0.1530;-0.0048;
24.9000;0.1514;-0.0024;
25.2000;0.1514;0.0024;
25.5000;0.1538;0.0239;
25.8000;0.1522;0.0119;
26.1000;0.1522;-0.0024;
26.4000;0.1571;0.0167;
26.7000;0.1498;0.0000;
27.0000;0.1538;0.0072;
27.3000;0.1555;0.0072;
27.6000;0.1547;0.0072;
27.9000;0.1522;0.0048;
28.2000;0.1506;0.0000;
28.5000;0.1457;-0.0167;
28.8000;0.1490;-0.0096;
29.1000;0.1538;0.0000;
29.4000;0.1579;0.0239;
29.7000;0.1514;0.0096;
30.0000;0.1555;0.0215;
30.3000;0.1514;0.0143;
30.6000;0.1555;0.0311;
30.9000;0.1522;0.0167;
31.2000;0.1538;0.0191;
31.5000;0.1538;0.0143;
31.8000;0.1530;0.0143;
32.1000;0.1530;0.0072;
32.4000;0.1498;0.0024;
32.7000;0.1530;0.0072;
33.0000;0.1538;0.0119;
33.3000;0.1530;0.0143;
33.6000;0.1506;0.0000;
33.9000;0.1530;0.0000;
34.2000;0.1530;0.0072;
34.5000;0.1538;0.0167;
34.8000;0.1530;0.0167;
35.1000;0.1530;0.0119;
35.4000;0.1547;0.0191;
35.7000;0.1644;0.0406;
36.0000;0.1547;0.0167;
36.3000;0.1555;0.0191;
36.6000;0.1490;-0.0048;
36.9000;0.1587;0.0239;
37.2000;0.1522;0.0119;
37.5000;0.1514;0.0143;
37.8000;0.1530;0.0191;
38.1000;0.1538;0.0191;
38.4000;0.1506;0.0024;
38.7000;0.1530;0.0072;
39.0000;0.1392;-0.0287;
39.3000;0.1530;0.0119;
39.6000;0.1538;0.0143;
39.9000;0.1522;0.0167;
40.2000;0.1522;0.0167;
40.5000;0.1538;0.0119;
40.8000;0.1514;-0.0024;
41.1000;0.1522;0.0024;
41.4000;0.1514;-0.0024;
41.7000;0.1538;0.0024;
42.0000;0.1530;0.0000;
42.3000;0.1522;0.0024;
42.6000;0.1579;0.0239;
42.9000;0.1530;-0.0048;
43.2000;0.1530;0.0000;
43.5000;0.1538;0.0119;
43.8000;0.1636;0.0335;
44.1000;0.1530;0.0048;
44.4000;0.1530;-0.0072;
44.7000;0.1579;0.0143;
45.0000;0.1530;0.0072;
45.3000;0.1547;0.0167;
45.6000;0.1522;0.0239;
45.9000;0.1538;0.0191;
46.2000;0.1522;0.0096;
46.5000;0.1530;0.0143;
46.8000;0.1465;-0.0024;
47.1000;0.1522;0.0072;
47.4000;0.1530;0.0167;
47.7000;0.1538;0.0239;
48.0000;0.1538;0.0215;
48.3000;0.1490;0.0143;
48.6000;0.1530;0.0191;
48.9000;0.1498;0.0024;
49.2000;0.1530;0.0143;
49.5000;0.1506;0.0119;
49.8000;0.1481;0.0000;
50.1000;0.1522;0.0119;
50.4000;0.1514;0.0072;
50.7000;0.1514;0.0096;
51.0000;0.1506;0.0167;
51.3000;0.1628;0.0478;
51.6000;0.1538;0.0215;
51.9000;0.1530;0.0167;
52.2000;0.1522;0.0024;
52.5000;0.1530;-0.0048;
52.8000;0.1530;-0.0072;
53.1000;0.1538;-0.0024;
53.4000;0.1514;0.0000;
53.7000;0.1522;0.0096;
54.0000;0.1530;0.0167;
54.3000;0.1514;0.0143;
54.6000;0.1449;0.0024;
54.9000;0.1514;0.0143;
55.2000;0.1498;0.0024;
55.5000;0.1514;0.0048;
55.8000;0.1522;0.0119;
56.1000;0.1547;0.0096;
56.4000;0.1530;-0.0048;
56.7000;0.1530;-0.0024;
57.0000;0.1522;0.0024;
57.3000;0.1530;0.0000;
57.6000;0.1530;0.0000;
57.9000;0.1547;0.0048;
58.2000;0.1538;0.0072;
58.5000;0.1530;0.0096;
58.8000;0.1538;0.0072;
59.1000;0.1522;0.0024;
59.4000;0.1530;0.0048;
59.7000;0.1506;0.0024;
60.0000;0.1547;0.0119;
60.3000;0.1538;0.0072;
60.6000;0.1457;-0.0215;
60.9000;0.1514;-0.0048;
61.2000;0.1522;-0.0048;
61.5000;0.1514;-0.0024;
61.8000;0.1538;0.0096;
62.1000;0.1514;0.0000;
62.4000;0.1490;-0.0024;
62.7000;0.1530;0.0024;
63.0000;0.1579;0.0215;
63.3000;0.1465;-0.0048;
63.6000;0.1522;0.0024;
63.9000;0.1595;0.0311;
64.2000;0.1538;0.0167;
64.5000;0.1506;0.0119;
64.8000;0.1530;0.0143;
65.1000;0.1465;-0.0024;
65.4000;0.1522;0.0167;
65.7000;0.1538;0.0167;
66.0000;0.1514;0.0143;
66.3000;0.1506;0.0167;
66.6000;0.1490;0.0143;
66.9000;0.1522;0.0143;
67.2000;0.1522;0.0143;
67.5000;0.1530;0.0215;
67.8000;0.1538;0.0215;
68.1000;0.1538;0.0239;
68.4000;0.1538;0.0191;
68.7000;0.1514;0.0072;
69.0000;0.1538;0.0167;
69.3000;0.1522;0.0119;
69.6000;0.1530;0.0096;
69.9000;0.1522;0.0072;
70.2000;0.1514;0.0072;
70.5000;0.1522;0.0072;
70.8000;0.1490;0.0024;
71.1000;0.1522;0.0119;
71.4000;0.1514;0.0143;
71.7000;0.1530;0.0143;
72.0000;0.1514;0.0096;
72.3000;0.1514;-0.0024;
72.6000;0.1538;0.0024;
72.9000;0.1506;-0.0024;
73.2000;0.1555;0.0048;
73.5000;0.1547;0.0143;
73.8000;0.1547;0.0096;
74.1000;0.1449;-0.0239;
74.4000;0.1563;0.0119;
74.7000;0.1498;0.0024;
75.0000;0.1538;0.0119;
75.3000;0.1555;0.0024;
75.6000;0.1563;0.0024;
75.9000;0.1530;-0.0072;
76.2000;0.1522;-0.0119;
76.5000;0.1547;-0.0048;
76.8000;0.1514;-0.0072;
77.1000;0.1514;-0.0048;
77.4000;0.1538;0.0048;
77.7000;0.1522;0.0048;
78.0000;0.1522;0.0000;
78.3000;0.1547;0.0048;
78.6000;0.1514;-0.0024;
78.9000;0.1530;0.0143;
79.2000;0.1530;0.0167;
79.5000;0.1530;0.0215;
79.8000;0.1555;0.0263;
80.1000;0.1530;0.0239;
80.4000;0.1522;0.0191;
80.7000;0.1530;0.0287;
81.0000;0.1530;0.0143;
81.3000;0.1498;0.0119;
81.6000;0.1506;0.0096;
81.9000;0.1547;0.0119;
82.2000;0.1547;0.0072;
82.5000;0.1522;0.0024;
82.8000;0.1522;-0.0048;
83.1000;0.1530;-0.0072;
83.4000;0.1465;-0.0335;
83.7000;0.1563;0.0024;
84.0000;0.1555;0.0048;
84.3000;0.1522;0.0000;
84.6000;0.1514;-0.0072;
84.9000;0.1530;-0.0024;
85.2000;0.1473;-0.0143;
85.5000;0.1547;0.0024;
85.8000;0.1538;0.0000;
86.1000;0.1530;0.0024;
86.4000;0.1498;-0.0072;
86.7000;0.1457;-0.0311;
87.0000;0.1522;-0.0119;
87.3000;0.1563;0.0024;
87.6000;0.1530;-0.0096;
87.9000;0.1522;-0.0072;
88.2000;0.1530;-0.0119;
88.5000;0.1547;-0.0167;
88.8000;0.1530;-0.0215;
89.1000;0.1498;-0.0311;
89.4000;0.1506;-0.0358;
89.7000;0.1530;-0.0287;
90.0000;0.1538;-0.0311;
90.3000;0.1522;-0.0311;
90.6000;0.1514;-0.0382;
90.9000;0.1522;-0.0406;
91.2000;0.1547;-0.0358;
91.5000;0.1538;-0.0406;
91.8000;0.1514;-0.0526;
92.1000;0.1571;-0.0335;
92.4000;0.1514;-0.0454;
92.7000;0.1538;-0.0335;
93.0000;0.1547;-0.0358;
93.3000;0.1498;-0.0454;
93.6000;0.1490;-0.0502;
93.9000;0.1538;-0.0335;
94.2000;0.1457;-0.0574;
94.5000;0.1530;-0.0478;
94.8000;0.1538;-0.0358;
95.1000;0.1530;-0.0358;
95.4000;0.1547;-0.0311;
95.7000;0.1514;-0.0406;
96.0000;0.1506;-0.0430;
96.3000;0.1498;-0.0406;
96.6000;0.1530;-0.0335;
96.9000;0.1612;-0.0119;
97.2000;0.1571;-0.0143;
97.5000;0.1530;-0.0335;
97.8000;0.1514;-0.0406;
98.1000;0.1595;-0.0191;
98.4000;0.1538;-0.0263;
98.7000;0.1530;-0.0215;
99.0000;0.1636;0.0072;
99.3000;0.1522;-0.0287;
99.6000;0.1547;-0.0072;
99.9000;0.1538;-0.0072;
100.2000;0.1547;0.0000;
100.5000;0.1538;0.0000;
100.8000;0.1506;0.0000;
101.1000;0.1538;0.0000;
101.4000;0.1522;-0.0072;
101.7000;0.1490;-0.0143;
102.0000;0.1514;-0.0143;
102.3000;0.1522;-0.0191;
102.6000;0.1522;-0.0167;
102.9000;0.1530;-0.0048;
103.2000;0.1538;0.0024;
103.5000;0.1522;0.0072;
103.8000;0.1538;0.0048;
104.1000;0.1538;0.0024;
104.4000;0.1514;-0.0072;
104.7000;0.1530;0.0000;
105.0000;0.1571;0.0119;
105.3000;0.1555;0.0048;
105.6000;0.1522;0.0000;
105.9000;0.1547;0.0024;
106.2000;0.1522;-0.0024;
106.5000;0.1506;-0.0119;
106.8000;0.1538;-0.0024;
107.1000;0.1538;-0.0096;
107.4000;0.1465;-0.0311;
107.7000;0.1506;-0.0119;
108.0000;0.1522;-0.0024;
108.3000;0.1530;-0.0119;
108.6000;0.1587;0.0072;
108.9000;0.1522;-0.0119;
109.2000;0.1538;-0.0048;
109.5000;0.1555;0.0024;
109.8000;0.1571;0.0096;
110.1000;0.1530;-0.0048;
110.4000;0.1457;-0.0287;
110.7000;0.1506;-0.0263;
111.0000;0.1538;-0.0072;
111.3000;0.1547;-0.0072;
111.6000;0.1514;-0.0143;
111.9000;0.1547;-0.0048;
112.2000;0.1530;0.0048;
112.5000;0.1522;0.0096;
112.8000;0.1547;0.0167;
113.1000;0.1547;0.0119;
113.4000;0.1522;0.0000;
113.7000;0.1538;-0.0096;
114.0000;0.1522;-0.0191;
114.3000;0.1538;-0.0072;
114.6000;0.1530;-0.0048;
114.9000;0.1530;0.0000;
115.2000;0.1514;-0.0024;
115.5000;0.1547;0.0000;
115.8000;0.1522;0.0024;
116.1000;0.1522;-0.0048;
116.4000;0.1530;-0.0048;
116.7000;0.1538;0.0024;
117.0000;0.1538;0.0000;
117.3000;0.1522;-0.0048;
117.6000;0.1555;0.0048;
117.9000;0.1538;-0.0024;
118.2000;0.1571;0.0072;
118.5000;0.1514;-0.0048;
118.8000;0.1498;-0.0072;
119.1000;0.1522;0.0024;
119.4000;0.1530;0.0096;
119.7000;0.1490;0.0000;
120.0000;0.1530;0.0096;
120.3000;0.1506;0.0048;
120.6000;0.1530;0.0096;
120.9000;0.1433;-0.0191;
121.2000;0.1530;0.0143;
121.5000;0.1628;0.0382;
121.8000;0.1555;0.0096;
122.1000;0.1530;0.0048;
122.4000;0.1522;-0.0024;
122.7000;0.1522;0.0000;
123.0000;0.1530;0.0024;
123.3000;0.1473;-0.0143;
123.6000;0.1547;-0.0024;
123.9000;0.1547;0.0024;
124.2000;0.1522;-0.0048;
124.5000;0.1538;-0.0024;
124.8000;0.1538;-0.0024;
125.1000;0.1530;0.0024;
125.4000;0.1514;0.0000;
125.7000;0.1522;0.0000;
126.0000;0.1547;0.0024;
126.3000;0.1400;-0.0239;
126.6000;0.1498;-0.0048;
126.9000;0.1506;-0.0072;
127.2000;0.1547;0.0024;
127.5000;0.1547;0.0024;
127.8000;0.1514;0.0000;
128.1000;0.1514;0.0000;
128.4000;0.1547;0.0096;
128.7000;0.1555;0.0167;
129.0000;0.1538;0.0119;
129.3000;0.1530;0.0072;
129.6000;0.1538;0.0119;
129.9000;0.1636;0.0335;
130.2000;0.1530;-0.0024;
130.5000;0.1555;0.0119;
130.8000;0.1400;-0.0311;
131.1000;0.1530;0.0096;
131.4000;0.1555;0.0215;
131.7000;0.1465;-0.0096;
132.0000;0.1530;-0.0048;
132.3000;0.1538;-0.0048;
132.6000;0.1677;0.0406;
132.9000;0.1522;0.0119;
133.2000;0.1506;0.0000;
133.5000;0.1547;0.0048;
133.8000;0.1538;0.0119;
134.1000;0.1530;0.0048;
134.4000;0.1547;0.0096;
134.7000;0.1522;0.0096;
135.0000;0.1538;0.0167;
135.3000;0.1555;0.0215;
135.6000;0.1538;0.0119;
135.9000;0.1530;0.0096;
136.2000;0.1522;0.0024;
136.5000;0.1522;0.0072;
136.8000;0.1449;-0.0096;
137.1000;0.1522;0.0072;
137.4000;0.1522;0.0072;
137.7000;0.1538;0.0048;
138.0000;0.1530;0.0000;
138.3000;0.1530;0.0000;
138.6000;0.1530;0.0072;
138.9000;0.1538;0.0167;
139.2000;0.1538;0.0143;
139.5000;0.1522;0.0143;
139.8000;0.1522;0.0191;
140.1000;0.1522;0.0191;
140.4000;0.1547;0.0119;
140.7000;0.1522;0.0119;
141.0000;0.1522;0.0000;
141.3000;0.1416;-0.0239;
141.6000;0.1530;0.0024;
141.9000;0.1530;0.0000;
142.2000;0.1579;0.0119;
142.5000;0.1506;0.0024;
142.8000;0.1530;0.0119;
143.1000;0.1514;0.0143;
143.4000;0.1636;0.0382;
143.7000;0.1522;0.0191;
144.0000;0.1522;0.0215;
144.3000;0.1530;0.0143;
144.6000;0.1547;0.0287;
144.9000;0.1530;0.0287;
145.2000;0.1498;0.0215;
145.5000;0.1368;-0.0119;
145.8000;0.1538;0.0358;
146.1000;0.1522;0.0287;
146.4000;0.1522;0.0287;
146.7000;0.1538;0.0239;
147.0000;0.1506;0.0143;
147.3000;0.1587;0.0215;
147.6000;0.1481;-0.0072;
147.9000;0.1506;0.0048;
148.2000;0.1514;0.0143;
148.5000;0.1563;0.0215;
148.8000;0.1547;0.0215;
149.1000;0.1530;0.0239;
149.4000;0.1555;0.0287;
149.7000;0.1514;0.0167;
150.0000;0.1514;0.0096;
150.3000;0.1547;0.0167;
150.6000;0.1628;0.0311;
150.9000;0.1547;0.0072;
151.2000;0.1522;0.0048;
151.5000;0.1514;0.0000;
151.8000;0.1547;0.0000;
152.1000;0.1530;-0.0048;
152.4000;0.1490;-0.0167;
152.7000;0.1514;-0.0143;
153.0000;0.1538;-0.0096;
153.3000;0.1514;-0.0191;
153.6000;0.1530;-0.0191;
153.9000;0.1538;-0.0096;
154.2000;0.1522;-0.0143;
154.5000;0.1547;0.0024;
154.8000;0.1506;-0.0024;
155.1000;0.1530;0.0048;
155.4000;0.1514;0.0048;
155.7000;0.1538;0.0167;
156.0000;0.1547;0.0143;
156.3000;0.1514;0.0096;
156.6000;0.1514;0.0119;
156.9000;0.1465;0.0096;
157.2000;0.1538;0.0239;
157.5000;0.1538;0.0358;
157.8000;0.1506;0.0215;
158.1000;0.1522;0.0263;
158.4000;0.1473;0.0191;
158.7000;0.1522;0.0311;
159.0000;0.1506;0.0191;
159.3000;0.1514;0.0239;
159.6000;0.1530;0.0263;
159.9000;0.1538;0.0287;
160.2000;0.1522;0.0311;
160.5000;0.1498;0.0215;
160.8000;0.1530;0.0335;
161.1000;0.1514;0.0311;
161.4000;0.1530;0.0287;
161.7000;0.1538;0.0287;
162.0000;0.1530;0.0239;
162.3000;0.1595;0.0382;
162.6000;0.1514;0.0167;
162.9000;0.1506;0.0167;
163.2000;0.1530;0.0287;
163.5000;0.1530;0.0191;
163.8000;0.1530;0.0215;
164.1000;0.1506;0.0143;
164.4000;0.1530;0.0191;
164.7000;0.1522;0.0215;
165.0000;0.1538;0.0287;
165.3000;0.1530;0.0287;
165.6000;0.1506;0.0167;
165.9000;0.1538;0.0287;
166.2000;0.1530;0.0382;
166.5000;0.1538;0.0358;
166.8000;0.1506;0.0263;
167.1000;0.1530;0.0191;
167.4000;0.1547;0.0239;
167.7000;0.1522;0.0239;
168.0000;0.1506;0.0167;
168.3000;0.1547;0.0311;
168.6000;0.1522;0.0287;
168.9000;0.1408;-0.0072;
169.2000;0.1514;0.0191;
169.5000;0.1449;0.0024;
169.8000;0.1514;0.0167;
170.1000;0.1530;0.0119;
170.4000;0.1514;0.0072;
170.7000;0.1579;0.0239;
171.0000;0.1530;0.0191;
171.3000;0.1530;0.0167;
171.6000;0.1538;0.0215;
171.9000;0.1514;0.0072;
172.2000;0.1530;0.0143;
172.5000;0.1522;0.0191;
172.8000;0.1514;0.0263;
173.1000;0.1514;0.0263;
173.4000;0.1506;0.0215;
173.7000;0.1547;0.0335;
174.0000;0.1530;0.0215;
174.3000;0.1522;0.0215;
174.6000;0.1530;0.0143;
174.9000;0.1538;0.0191;
175.2000;0.1538;0.0143;
175.5000;0.1490;0.0000;
175.8000;0.1506;0.0072;
176.1000;0.1604;0.0311;
176.4000;0.1555;0.0239;
176.7000;0.1514;0.0191;
177.0000;0.1490;0.0072;
177.3000;0.1538;0.0143;
177.6000;0.1514;0.0048;
177.9000;0.1530;0.0167;
178.2000;0.1498;0.0048;
178.5000;0.1481;-0.0048;
178.8000;0.1530;0.0024;
179.1000;0.1457;-0.0167;
179.4000;0.1514;0.0000;
179.7000;0.1555;0.0072;
180.0000;0.1530;0.0024;
180.3000;0.1416;-0.0358;
180.6000;0.1538;-0.0024;
180.9000;0.1555;0.0096;
181.2000;0.1498;0.0024;
181.5000;0.1514;0.0096;
181.8000;0.1530;0.0215;
182.1000;0.1506;0.0119;
182.4000;0.1490;0.0119;
182.7000;0.1522;0.0215;
183.0000;0.1481;0.0048;
183.3000;0.1547;0.0215;
183.6000;0.1530;0.0119;
183.9000;0.1530;0.0119;
184.2000;0.1530;0.0119;
184.5000;0.1555;0.0215;
184.8000;0.1587;0.0335;
185.1000;0.1522;0.0167;
185.4000;0.1563;0.0263;
185.7000;0.1530;0.0191;
186.0000;0.1538;0.0215;
186.3000;0.1555;0.0335;
186.6000;0.1587;0.0430;
186.9000;0.1555;0.0358;
187.2000;0.1530;0.0263;
187.5000;0.1514;0.0239;
187.8000;0.1522;0.0287;
188.1000;0.1538;0.0215;
188.4000;0.1538;0.0239;
188.7000;0.1522;0.0287;
189.0000;0.1530;0.0263;
189.3000;0.1522;0.0239;
189.6000;0.1530;0.0263;
189.9000;0.1522;0.0263;
190.2000;0.1441;0.0119;
190.5000;0.1522;0.0311;
190.8000;0.1514;0.0215;
191.1000;0.1538;0.0167;
191.4000;0.1416;-0.0119;
191.7000;0.1547;0.0143;
192.0000;0.1514;0.0072;
192.3000;0.1530;0.0143;
192.6000;0.1514;0.0072;
192.9000;0.1530;0.0119;
193.2000;0.1530;0.0191;
193.5000;0.1530;0.0191;
193.8000;0.1514;0.0143;
194.1000;0.1571;0.0311;
194.4000;0.1457;0.0000;
194.7000;0.1473;0.0000;
195.0000;0.1514;0.0072;
195.3000;0.1473;0.0048;
195.6000;0.1522;0.0143;
195.9000;0.1538;0.0215;
196.2000;0.1530;0.0191;
196.5000;0.1506;0.0119;
196.8000;0.1555;0.0239;
197.1000;0.1547;0.0167;
197.4000;0.1547;0.0191;
197.7000;0.1514;0.0096;
198.0000;0.1514;0.0167;
198.3000;0.1530;0.0167;
198.6000;0.1547;0.0167;
198.9000;0.1538;0.0143;
199.2000;0.1522;0.0072;
199.5000;0.1563;0.0215;
199.8000;0.1522;0.0119;
200.1000;0.1522;0.0119;
200.4000;0.1522;0.0119;
200.7000;0.1530;0.0096;
201.0000;0.1530;-0.0048;
201.3000;0.1522;0.0048;
201.6000;0.1457;-0.0119;
201.9000;0.1547;0.0048;
202.2000;0.1522;0.0048;
202.5000;0.1514;0.0048;
202.8000;0.1514;0.0096;
203.1000;0.1547;0.0167;
203.4000;0.1555;0.0119;
203.7000;0.1522;0.0143;
204.0000;0.1530;0.0263;
204.3000;0.1506;0.0191;
204.6000;0.1547;0.0215;
204.9000;0.1644;0.0526;
205.2000;0.1538;0.0119;
205.5000;0.1530;0.0072;
205.8000;0.1530;-0.0024;
206.1000;0.1538;0.0143;
206.4000;0.1538;0.0119;
206.7000;0.1709;0.0621;
207.0000;0.1522;0.0072;
207.3000;0.1522;0.0096;
207.6000;0.1514;-0.0024;
207.9000;0.1538;0.0000;
208.2000;0.1530;-0.0072;
208.5000;0.1522;-0.0143;
208.8000;0.1514;-0.0239;
209.1000;0.1514;-0.0311;
209.4000;0.1514;-0.0311;
209.7000;0.1522;-0.0263;
210.0000;0.1530;-0.0263;
210.3000;0.1612;-0.0048;
210.6000;0.1620;0.0000;
210.9000;0.1522;-0.0215;
211.2000;0.1538;-0.0119;
211.5000;0.1506;-0.0167;
211.8000;0.1538;-0.0167;
212.1000;0.1538;-0.0119;
212.4000;0.1547;-0.0119;
212.7000;0.1514;-0.0191;
213.0000;0.1547;-0.0119;
213.3000;0.1538;-0.0072;
213.6000;0.1530;-0.0072;
213.9000;0.1514;-0.0119;
214.2000;0.1604;0.0096;
214.5000;0.1538;-0.0167;
214.8000;0.1547;-0.0119;
215.1000;0.1506;-0.0191;
215.4000;0.1628;0.0167;
215.7000;0.1416;-0.0406;
216.0000;0.1530;0.0024;
216.3000;0.1530;0.0215;
216.6000;0.1538;0.0215;
216.9000;0.1530;0.0096;
217.2000;0.1514;0.0024;
217.5000;0.1514;-0.0024;
217.8000;0.1538;0.0048;
218.1000;0.1514;0.0024;
218.4000;0.1522;0.0072;
218.7000;0.1547;0.0143;
219.0000;0.1490;0.0167;
219.3000;0.1538;0.0311;
219.6000;0.1522;0.0287;
219.9000;0.1547;0.0239;
220.2000;0.1530;0.0215;
220.5000;0.1490;0.0072;
220.8000;0.1514;0.0096;
221.1000;0.1522;0.0143;
221.4000;0.1522;0.0167;
221.7000;0.1506;0.0191;
222.0000;0.1506;0.0096;
222.3000;0.1547;0.0191;
222.6000;0.1522;0.0119;
222.9000;0.1514;0.0119;
223.2000;0.1514;0.0167;
223.5000;0.1530;0.0167;
223.8000;0.1473;0.0024;
224.1000;0.1530;0.0191;
224.4000;0.1547;0.0263;
224.7000;0.1522;0.0263;
225.0000;0.1538;0.0287;
225.3000;0.1547;0.0239;
225.6000;0.1490;0.0119;
225.9000;0.1506;0.0215;
226.2000;0.1514;0.0311;
226.5000;0.1571;0.0478;
226.8000;0.1530;0.0382;
227.1000;0.1530;0.0335;
227.4000;0.1514;0.0239;
227.7000;0.1530;0.0263;
228.0000;0.1530;0.0263;
228.3000;0.1514;0.0191;
228.6000;0.1538;0.0167;
228.9000;0.1530;0.0143;
229.2000;0.1530;0.0000;
229.5000;0.1547;0.0096;
229.8000;0.1530;0.0096;
230.1000;0.1506;0.0024;
230.4000;0.1538;0.0119;
230.7000;0.1538;0.0167;
231.0000;0.1522;0.0143;
231.3000;0.1506;0.0072;
231.6000;0.1514;0.0048;
231.9000;0.1522;-0.0048;
232.2000;0.1522;-0.0048;
232.5000;0.1514;-0.0119;
232.8000;0.1506;-0.0119;
233.1000;0.1530;-0.0072;
233.4000;0.1530;-0.0119;
233.7000;0.1530;-0.0263;
234.0000;0.1530;-0.0191;
234.3000;0.1441;-0.0406;
234.6000;0.1538;-0.0143;
234.9000;0.1490;-0.0239;
235.2000;0.1514;-0.0096;
235.5000;0.1547;0.0000;
235.8000;0.1555;-0.0024;
236.1000;0.1538;-0.0048;
236.4000;0.1457;-0.0239;
236.7000;0.1514;-0.0048;
237.0000;0.1530;0.0000;
237.3000;0.1514;-0.0024;
237.6000;0.1530;0.0072;
237.9000;0.1547;0.0143;
238.2000;0.1530;0.0167;
238.5000;0.1530;0.0143;
238.8000;0.1368;-0.0311;
239.1000;0.1506;0.0096;
239.4000;0.1490;0.0096;
239.7000;0.1498;0.0191;
240.0000;0.1522;0.0215;
240.3000;0.1522;0.0167;
240.6000;0.1538;0.0167;
240.9000;0.1530;0.0119;
241.2000;0.1530;0.0119;
241.5000;0.1416;-0.0191;
241.8000;0.1595;0.0215;
242.1000;0.1547;0.0024;
242.4000;0.1522;0.0024;
242.7000;0.1563;0.0096;
243.0000;0.1522;0.0000;
243.3000;0.1530;0.0072;
243.6000;0.1530;0.0119;
243.9000;0.1555;0.0167;
244.2000;0.1530;0.0096;
244.5000;0.1538;0.0167;
244.8000;0.1538;0.0167;
245.1000;0.1538;0.0096;
245.4000;0.1547;0.0096;
245.7000;0.1514;0.0000;
246.0000;0.1530;0.0072;
246.3000;0.1538;0.0024;
246.6000;0.1530;0.0072;
246.9000;0.1522;0.0024;
247.2000;0.1563;0.0167;
247.5000;0.1530;0.0119;
247.8000;0.1522;0.0119;
248.1000;0.1408;-0.0239;
248.4000;0.1514;0.0072;
248.7000;0.1555;0.0119;
249.0000;0.1530;0.0024;
249.3000;0.1465;-0.0167;
249.6000;0.1563;0.0119;
249.9000;0.1522;-0.0048;
250.2000;0.1538;0.0024;
250.5000;0.1514;-0.0072;
250.8000;0.1530;-0.0024;
251.1000;0.1530;0.0024;
251.4000;0.1538;0.0048;
251.7000;0.1506;-0.0024;
252.0000;0.1522;-0.0024;
252.3000;0.1538;-0.0024;
252.6000;0.1547;0.0024;
252.9000;0.1530;0.0048;
253.2000;0.1514;0.0048;
253.5000;0.1522;0.0096;
253.8000;0.1530;0.0143;
254.1000;0.1490;0.0048;
254.4000;0.1522;-0.0024;
254.7000;0.1522;0.0000;
255.0000;0.1538;0.0000;
255.3000;0.1538;0.0024;
255.6000;0.1522;0.0024;
255.9000;0.1522;-0.0024;
256.2000;0.1514;0.0000;
256.5000;0.1555;0.0000;
256.8000;0.1514;-0.0072;
257.1000;0.1522;-0.0048;
257.4000;0.1498;-0.0072;
257.7000;0.1530;0.0048;
258.0000;0.1538;0.0119;
258.3000;0.1555;0.0143;
258.6000;0.1547;0.0096;
258.9000;0.1555;0.0119;
259.2000;0.1620;0.0287;
259.5000;0.1522;-0.0096;
259.8000;0.1595;0.0048;
260.1000;0.1530;-0.0119;
260.4000;0.1538;-0.0119;
260.7000;0.1522;-0.0167;
261.0000;0.1530;-0.0096;
261.3000;0.1563;0.0000;
261.6000;0.1481;-0.0215;
261.9000;0.1530;0.0000;
262.2000;0.1522;0.0048;
262.5000;0.1555;0.0072;
262.8000;0.1538;0.0119;
263.1000;0.1514;0.0143;
263.4000;0.1457;0.0072;
263.7000;0.1498;0.0167;
264.0000;0.1530;0.0239;
264.3000;0.1514;0.0167;
264.6000;0.1522;0.0024;
264.9000;0.1530;0.0000;
265.2000;0.1538;0.0024;
265.5000;0.1514;-0.0191;
265.8000;0.1547;-0.0143;
266.1000;0.1522;-0.0119;
266.4000;0.1530;-0.0096;
266.7000;0.1530;-0.0024;
267.0000;0.1530;-0.0048;
267.3000;0.1555;0.0024;
267.6000;0.1538;-0.0143;
267.9000;0.1538;-0.0119;
268.2000;0.1530;-0.0167;
268.5000;0.1514;-0.0287;
268.8000;0.1522;-0.0239;
269.1000;0.1547;-0.0167;
269.4000;0.1522;-0.0143;
269.7000;0.1441;-0.0335;
270.0000;0.1538;-0.0024;
270.3000;0.1506;-0.0119;
270.6000;0.1514;-0.0096;
270.9000;0.1506;0.0024;
271.2000;0.1514;0.0072;
271.5000;0.1522;0.0000;
271.8000;0.1530;0.0048;
272.1000;0.1522;-0.0024;
272.4000;0.1530;-0.0072;
272.7000;0.1506;-0.0072;
273.0000;0.1538;-0.0024;
273.3000;0.1522;-0.0048;
273.6000;0.1514;-0.0119;
273.9000;0.1392;-0.0382;
274.2000;0.1530;-0.0024;
274.5000;0.1530;-0.0024;
274.8000;0.1522;0.0024;
275.1000;0.1514;0.0072;
275.4000;0.1522;0.0215;
275.7000;0.1498;0.0119;
276.0000;0.1530;0.0239;
276.3000;0.1555;0.0215;
276.6000;0.1530;0.0072;
276.9000;0.1416;-0.0191;
277.2000;0.1530;0.0024;
277.5000;0.1506;0.0000;
277.8000;0.1563;0.0096;
278.1000;0.1530;0.0072;
278.4000;0.1530;0.0096;
278.7000;0.1538;0.0143;
279.0000;0.1514;0.0000;
279.3000;0.1530;0.0000;
279.6000;0.1530;-0.0096;
279.9000;0.1449;-0.0358;
280.2000;0.1506;-0.0263;
280.5000;0.1530;-0.0263;
280.8000;0.1490;-0.0311;
281.1000;0.1652;0.0072;
281.4000;0.1547;-0.0335;
281.7000;0.1522;-0.0335;
282.0000;0.1514;-0.0430;
282.3000;0.1547;-0.0358;
282.6000;0.1547;-0.0239;
282.9000;0.1441;-0.0454;
283.2000;0.1595;0.0000;
283.5000;0.1538;-0.0191;
283.8000;0.1522;-0.0191;
284.1000;0.1579;-0.0048;
284.4000;0.1530;-0.0096;
284.7000;0.1538;-0.0048;
285.0000;0.1555;-0.0072;
285.3000;0.1587;0.0000;
285.6000;0.1530;-0.0191;
285.9000;0.1506;-0.0191;
286.2000;0.1538;-0.0143;
286.5000;0.1514;-0.0167;
286.8000;0.1506;-0.0119;
287.1000;0.1538;-0.0072;
287.4000;0.1530;-0.0024;
287.7000;0.1514;0.0000;
288.0000;0.1514;0.0072;
288.3000;0.1620;0.0335;
288.6000;0.1530;0.0072;
288.9000;0.1522;0.0072;
289.2000;0.1522;0.0024;
289.5000;0.1530;0.0024;
289.8000;0.1530;0.0024;
290.1000;0.1530;-0.0024;
290.4000;0.1465;-0.0239;
290.7000;0.1481;-0.0191;
291.0000;0.1547;-0.0048;
291.3000;0.1530;-0.0119;
291.6000;0.1522;-0.0119;
291.9000;0.1530;-0.0119;
292.2000;0.1514;-0.0096;
292.5000;0.1506;-0.0143;
292.8000;0.1514;-0.0119;
293.1000;0.1514;-0.0096;
293.4000;0.1612;0.0072;
293.7000;0.1490;-0.0167;
294.0000;0.1538;0.0024;
294.3000;0.1522;-0.0048;
294.6000;0.1522;-0.0072;
294.9000;0.1538;-0.0072;
295.2000;0.1530;-0.0096;
295.5000;0.1449;-0.0287;
295.8000;0.1514;-0.0143;
296.1000;0.1530;-0.0096;
296.4000;0.1612;0.0167;
296.7000;0.1530;-0.0072;
297.0000;0.1538;-0.0096;
297.3000;0.1538;-0.0048;
297.6000;0.1530;-0.0072;
297.9000;0.1538;0.0024;
298.2000;0.1473;-0.0143;
298.5000;0.1538;0.0096;
298.8000;0.1636;0.0382;
299.1000;0.1538;0.0119;
299.4000;0.1530;0.0072;
299.7000;0.1498;0.0000;
300.0000;0.1514;-0.0024;
300.3000;0.1555;0.0024;
300.6000;0.1530;-0.0072;
300.9000;0.1506;-0.0096;
301.2000;0.1547;0.0000;
301.5000;0.1538;-0.0024;
301.8000;0.1506;-0.0072;
302.1000;0.1506;0.0000;
302.4000;0.1506;0.0000;
302.7000;0.1547;0.0119;
303.0000;0.1538;0.0072;
303.3000;0.1522;0.0048;
303.6000;0.1522;0.0024;
303.9000;0.1571;0.0143;
304.2000;0.1530;0.0096;
304.5000;0.1530;0.0072;
304.8000;0.1473;-0.0048;
305.1000;0.1563;0.0143;
305.4000;0.1514;0.0000;
305.7000;0.1530;0.0119;
306.0000;0.1522;0.0072;
306.3000;0.1538;0.0096;
306.6000;0.1522;0.0096;
306.9000;0.1465;-0.0096;
307.2000;0.1522;0.0024;
307.5000;0.1522;-0.0024;
307.8000;0.1514;0.0024;
308.1000;0.1604;0.0239;
308.4000;0.1481;-0.0024;
308.7000;0.1473;0.0048;
309.0000;0.1522;0.0119;
309.3000;0.1530;0.0048;
309.6000;0.1530;0.0072;
309.9000;0.1514;-0.0096;
310.2000;0.1530;-0.0143;
310.5000;0.1538;-0.0096;
310.8000;0.1538;-0.0048;
311.1000;0.1514;-0.0024;
311.4000;0.1514;0.0143;
311.7000;0.1571;0.0239;
312.0000;0.1538;0.0263;
312.3000;0.1538;0.0287;
312.6000;0.1522;0.0143;
312.9000;0.1530;0.0096;
313.2000;0.1522;0.0072;
313.5000;0.1522;0.0096;
313.8000;0.1538;0.0143;
314.1000;0.1530;0.0119;
314.4000;0.1547;0.0119;
314.7000;0.1490;-0.0048;
315.0000;0.1506;-0.0024;
315.3000;0.1506;-0.0048;
315.6000;0.1555;0.0072;
315.9000;0.1563;-0.0048;
316.2000;0.1530;-0.0263;
316.5000;0.1514;-0.0335;
316.8000;0.1473;-0.0358;
317.1000;0.1604;0.0024;
317.4000;0.1604;-0.0024;
317.7000;0.1538;-0.0191;
318.0000;0.1522;-0.0119;
318.3000;0.1522;-0.0072;
318.6000;0.1555;-0.0096;
318.9000;0.1563;-0.0024;
319.2000;0.1530;-0.0119;
319.5000;0.1547;-0.0119;
319.8000;0.1376;-0.0550;
320.1000;0.1441;-0.0335;
320.4000;0.1555;-0.0072;
320.7000;0.1522;-0.0119;
321.0000;0.1547;-0.0119;
321.3000;0.1506;-0.0167;
321.6000;0.1522;0.0000;
321.9000;0.1522;0.0024;
322.2000;0.1579;0.0119;
322.5000;0.1538;-0.0024;
322.8000;0.1555;0.0072;
323.1000;0.1555;0.0072;
323.4000;0.1555;0.0191;
323.7000;0.1514;0.0000;
324.0000;0.1530;0.0072;
324.3000;0.1547;0.0119;
324.6000;0.1547;0.0143;
324.9000;0.1522;0.0024;
325.2000;0.1530;0.0000;
325.5000;0.1538;0.0096;
325.8000;0.1538;0.0215;
326.1000;0.1628;0.0478;
326.4000;0.1514;0.0143;
326.7000;0.1514;0.0167;
327.0000;0.1547;0.0287;
327.3000;0.1547;0.0263;
327.6000;0.1563;0.0143;
327.9000;0.1514;-0.0024;
328.2000;0.1514;0.0072;
328.5000;0.1514;0.0000;
328.8000;0.1547;0.0000;
329.1000;0.1555;0.0072;
329.4000;0.1530;0.0072;
329.7000;0.1506;0.0048;
330.0000;0.1538;0.0119;
330.3000;0.1473;-0.0096;
330.6000;0.1506;-0.0024;
330.9000;0.1571;0.0119;
331.2000;0.1530;0.0000;
331.5000;0.1538;0.0048;
331.8000;0.1530;0.0024;
332.1000;0.1530;0.0024;
332.4000;0.1376;-0.0311;
332.7000;0.1530;0.0119;
333.0000;0.1506;0.0024;
333.3000;0.1547;0.0143;
333.6000;0.1465;-0.0048;
333.9000;0.1555;0.0167;
334.2000;0.1506;-0.0024;
334.5000;0.1514;0.0024;
334.8000;0.1538;0.0000;
335.1000;0.1547;0.0000;
335.4000;0.1538;0.0000;
335.7000;0.1555;-0.0024;
336.0000;0.1498;-0.0143;
336.3000;0.1530;-0.0024;
336.6000;0.1530;-0.0024;
336.9000;0.1506;-0.0143;
337.2000;0.1522;-0.0024;
337.5000;0.1538;0.0072;
337.8000;0.1514;0.0096;
338.1000;0.1514;0.0119;
338.4000;0.1522;0.0215;
338.7000;0.1506;0.0215;
339.0000;0.1522;0.0215;
339.3000;0.1514;0.0167;
339.6000;0.1506;0.0191;
339.9000;0.1522;0.0143;
340.2000;0.1498;0.0143;
340.5000;0.1514;0.0191;
340.8000;0.1522;0.0287;
341.1000;0.1530;0.0263;
341.4000;0.1506;0.0191;
341.7000;0.1547;0.0239;
342.0000;0.1514;0.0143;
342.3000;0.1506;0.0096;
342.6000;0.1538;0.0167;
342.9000;0.1538;0.0167;
343.2000;0.1587;0.0239;
343.5000;0.1506;0.0000;
343.8000;0.1530;0.0000;
344.1000;0.1530;0.0048;
344.4000;0.1547;0.0072;
344.7000;0.1465;-0.0143;
345.0000;0.1514;-0.0048;
345.3000;0.1522;-0.0024;
345.6000;0.1498;-0.0119;
345.9000;0.1514;-0.0096;
346.2000;0.1506;-0.0096;
346.5000;0.1514;-0.0119;
346.8000;0.1530;0.0048;
347.1000;0.1538;0.0119;
347.4000;0.1514;0.0167;
347.7000;0.1547;0.0167;
348.0000;0.1514;0.0072;
348.3000;0.1514;0.0024;
348.6000;0.1530;0.0119;
348.9000;0.1522;0.0119;
349.2000;0.1522;0.0119;
349.5000;0.1530;0.0096;
349.8000;0.1530;0.0096;
350.1000;0.1530;0.0048;
350.4000;0.1579;0.0072;
350.7000;0.1481;-0.0072;
351.0000;0.1530;-0.0024;
351.3000;0.1522;-0.0096;
351.6000;0.1547;-0.0024;
351.9000;0.1522;-0.0119;
352.2000;0.1514;-0.0191;
352.5000;0.1547;-0.0119;
352.8000;0.1595;0.0119;
353.1000;0.1530;-0.0024;
353.4000;0.1457;-0.0167;
353.7000;0.1530;0.0000;
354.0000;0.1522;0.0000;
354.3000;0.1481;-0.0143;
354.6000;0.1522;-0.0048;
354.9000;0.1522;-0.0119;
355.2000;0.1555;-0.0119;
355.5000;0.1555;-0.0072;
355.8000;0.1522;-0.0096;
356.1000;0.1547;-0.0048;
356.4000;0.1612;0.0119;
356.7000;0.1530;-0.0119;
357.0000;0.1530;-0.0072;
357.3000;0.1514;-0.0048;
357.6000;0.1498;-0.0072;
357.9000;0.1522;0.0072;
358.2000;0.1522;0.0167;
358.5000;0.1555;0.0191;
358.8000;0.1538;0.0191;
359.1000;0.1522;0.0191;
359.4000;0.1538;0.0191;
359.7000;0.1473;0.0048;
360.0000;0.1530;0.0072;
360.3000;0.1522;0.0000;
360.6000;0.1530;0.0048;
360.9000;0.1547;0.0024;
361.2000;0.1522;-0.0048;
361.5000;0.1522;-0.0048;
361.8000;0.1514;-0.0096;
362.1000;0.1538;-0.0143;
362.4000;0.1514;-0.0239;
362.7000;0.1506;-0.0287;
363.0000;0.1530;-0.0191;
363.3000;0.1547;-0.0072;
363.6000;0.1522;-0.0048;
363.9000;0.1522;0.0000;
364.2000;0.1506;0.0000;
364.5000;0.1530;0.0072;
364.8000;0.1530;0.0096;
365.1000;0.1538;0.0119;
365.4000;0.1506;-0.0048;
365.7000;0.1522;0.0000;
366.0000;0.1538;0.0072;
366.3000;0.1538;0.0048;
366.6000;0.1530;0.0024;
366.9000;0.1530;-0.0024;
367.2000;0.1555;-0.0048;
367.5000;0.1538;-0.0143;
367.8000;0.1490;-0.0263;
368.1000;0.1522;-0.0072;
368.4000;0.1522;0.0024;
368.7000;0.1538;0.0024;
369.0000;0.1530;0.0048;
369.3000;0.1514;0.0000;
369.6000;0.1522;0.0024;
369.9000;0.1538;0.0048;
370.2000;0.1506;-0.0072;
370.5000;0.1547;0.0048;
370.8000;0.1465;-0.0191;
371.1000;0.1538;0.0143;
371.4000;0.1538;0.0024;
371.7000;0.1506;-0.0119;
372.0000;0.1538;-0.0024;
372.3000;0.1498;-0.0143;
372.6000;0.1522;-0.0096;
372.9000;0.1408;-0.0311;
373.2000;0.1530;0.0096;
373.5000;0.1498;0.0096;
373.8000;0.1522;0.0167;
374.1000;0.1506;0.0167;
374.4000;0.1612;0.0382;
374.7000;0.1514;0.0167;
375.0000;0.1530;0.0215;
375.3000;0.1555;0.0358;
375.6000;0.1522;0.0239;
375.9000;0.1522;0.0263;
376.2000;0.1538;0.0358;
376.5000;0.1514;0.0215;
376.8000;0.1522;0.0167;
377.1000;0.1530;0.0143;
377.4000;0.1587;0.0311;
377.7000;0.1538;0.0191;
378.0000;0.1530;0.0096;
378.3000;0.1522;0.0048;
378.6000;0.1530;0.0072;
378.9000;0.1522;0.0024;
379.2000;0.1538;0.0048;
379.5000;0.1604;0.0358;
379.8000;0.1514;0.0072;
380.1000;0.1530;0.0072;
380.4000;0.1522;0.0072;
380.7000;0.1571;0.0191;
381.0000;0.1514;0.0072;
381.3000;0.1547;0.0024;
381.6000;0.1514;0.0024;
381.9000;0.1530;0.0024;
382.2000;0.1522;-0.0024;
382.5000;0.1522;0.0000;
382.8000;0.1506;-0.0096;
383.1000;0.1530;-0.0119;
383.4000;0.1530;-0.0096;
383.7000;0.1498;-0.0167;
384.0000;0.1530;0.0000;
384.3000;0.1555;0.0000;
384.6000;0.1530;-0.0119;
384.9000;0.1441;-0.0406;
385.2000;0.1522;-0.0096;
385.5000;0.1514;0.0000;
385.8000;0.1538;0.0143;
386.1000;0.1522;0.0119;
386.4000;0.1522;0.0143;
386.7000;0.1538;0.0215;
387.0000;0.1522;0.0335;
387.3000;0.1563;0.0382;
387.6000;0.1522;0.0239;
387.9000;0.1538;0.0143;
388.2000;0.1530;0.0048;
388.5000;0.1530;0.0096;
388.8000;0.1530;0.0191;
389.1000;0.1587;0.0335;
389.4000;0.1506;0.0191;
389.7000;0.1530;0.0119;
390.0000;0.1522;0.0000;
390.3000;0.1506;-0.0072;
390.6000;0.1522;0.0024;
390.9000;0.1595;0.0215;
391.2000;0.1498;-0.0024;
391.5000;0.1547;0.0072;
391.8000;0.1612;0.0215;
392.1000;0.1538;-0.0096;
392.4000;0.1538;-0.0096;
392.7000;0.1636;0.0167;
393.0000;0.1465;-0.0311;
393.3000;0.1547;-0.0096;
393.6000;0.1514;-0.0215;
393.9000;0.1538;-0.0072;
394.2000;0.1547;0.0096;
394.5000;0.1563;0.0167;
394.8000;0.1506;0.0024;
395.1000;0.1514;0.0119;
395.4000;0.1498;0.0048;
395.7000;0.1538;0.0215;
396.0000;0.1612;0.0454;
396.3000;0.1522;0.0191;
396.6000;0.1522;0.0167;
396.9000;0.1514;0.0167;
397.2000;0.1547;0.0143;
397.5000;0.1530;0.0072;
397.8000;0.1595;0.0143;
398.1000;0.1530;0.0048;
398.4000;0.1530;0.0048;
398.7000;0.1563;0.0072;
399.0000;0.1530;0.0024;
399.3000;0.1547;-0.0048;
399.6000;0.1538;-0.0024;
399.9000;0.1530;0.0000;
400.2000;0.1490;-0.0119;
400.5000;0.1530;0.0000;
400.8000;0.1538;-0.0024;
401.1000;0.1522;-0.0072;
401.4000;0.1530;0.0048;
401.7000;0.1636;0.0382;
402.0000;0.1538;0.0215;
402.3000;0.1490;0.0048;
402.6000;0.1506;0.0024;
402.9000;0.1522;0.0072;
403.2000;0.1538;0.0048;
403.5000;0.1538;0.0096;
403.8000;0.1538;0.0119;
404.1000;0.1522;0.0072;
404.4000;0.1522;0.0048;
404.7000;0.1555;0.0096;
405.0000;0.1530;0.0048;
405.3000;0.1530;0.0024;
405.6000;0.1522;0.0000;
405.9000;0.1514;0.0048;
406.2000;0.1530;0.0048;
406.5000;0.1465;-0.0167;
406.8000;0.1514;0.0000;
407.1000;0.1506;-0.0024;
407.4000;0.1530;-0.0024;
407.7000;0.1506;-0.0096;
408.0000;0.1522;-0.0048;
408.3000;0.1522;-0.0072;
408.6000;0.1538;-0.0048;
408.9000;0.1522;-0.0119;
409.2000;0.1514;-0.0215;
409.5000;0.1547;-0.0191;
409.8000;0.1522;-0.0096;
410.1000;0.1530;-0.0096;
410.4000;0.1522;-0.0167;
410.7000;0.1351;-0.0693;
411.0000;0.1538;-0.0167;
411.3000;0.1408;-0.0478;
411.6000;0.1538;-0.0143;
411.9000;0.1514;-0.0167;
412.2000;0.1514;-0.0096;
412.5000;0.1530;-0.0024;
412.8000;0.1530;-0.0072;
413.1000;0.1457;-0.0287;
413.4000;0.1530;-0.0072;
413.7000;0.1547;-0.0048;
414.0000;0.1530;-0.0096;
414.3000;0.1530;-0.0048;
414.6000;0.1538;-0.0024;
414.9000;0.1530;-0.0024;
415.2000;0.1587;0.0191;
415.5000;0.1506;-0.0072;
415.8000;0.1538;0.0024;
416.1000;0.1538;0.0072;
416.4000;0.1547;0.0072;
416.7000;0.1538;0.0000;
417.0000;0.1530;-0.0096;
417.3000;0.1514;-0.0072;
417.6000;0.1481;-0.0167;
417.9000;0.1522;0.0024;
418.2000;0.1604;0.0215;
418.5000;0.1506;-0.0024;
418.8000;0.1408;-0.0239;
419.1000;0.1538;0.0024;
419.4000;0.1538;0.0167;
419.7000;0.1506;0.0096;
420.0000;0.1563;0.0167;
420.3000;0.1522;0.0072;
420.6000;0.1514;0.0048;
420.9000;0.1555;0.0143;
421.2000;0.1538;0.0048;
421.5000;0.1522;0.0000;
421.8000;0.1514;-0.0119;
422.1000;0.1530;-0.0119;
422.4000;0.1538;-0.0119;
422.7000;0.1538;0.0000;
423.0000;0.1506;0.0000;
423.3000;0.1563;0.0048;
423.6000;0.1604;0.0167;
423.9000;0.1514;-0.0048;
424.2000;0.1530;0.0096;
424.5000;0.1522;-0.0024;
424.8000;0.1555;0.0191;
425.1000;0.1538;0.0215;
425.4000;0.1522;0.0191;
425.7000;0.1530;0.0239;
426.0000;0.1506;0.0119;
426.3000;0.1514;0.0024;
426.6000;0.1498;-0.0024;
426.9000;0.1514;-0.0024;
427.2000;0.1498;-0.0072;
427.5000;0.1449;-0.0239;
427.8000;0.1530;0.0048;
428.1000;0.1522;0.0048;
428.4000;0.1481;0.0024;
428.7000;0.1514;0.0215;
429.0000;0.1530;0.0239;
429.3000;0.1408;-0.0119;
429.6000;0.1538;0.0239;
429.9000;0.1563;0.0311;
430.2000;0.1547;0.0287;
430.5000;0.1547;0.0430;
430.8000;0.1530;0.0406;
431.1000;0.1522;0.0406;
431.4000;0.1547;0.0382;
431.7000;0.1530;0.0406;
432.0000;0.1538;0.0406;
432.3000;0.1530;0.0358;
432.6000;0.1522;0.0358;
432.9000;0.1522;0.0358;
433.2000;0.1538;0.0430;
433.5000;0.1514;0.0335;
433.8000;0.1530;0.0382;
434.1000;0.1514;0.0358;
434.4000;0.1530;0.0287;
434.7000;0.1530;0.0287;
435.0000;0.1522;0.0167;
435.3000;0.1514;0.0191;
435.6000;0.1522;0.0239;
435.9000;0.1506;0.0239;
436.2000;0.1514;0.0263;
436.5000;0.1538;0.0263;
436.8000;0.1547;0.0263;
437.1000;0.1522;0.0239;
437.4000;0.1522;0.0215;
437.7000;0.1498;0.0215;
438.0000;0.1522;0.0263;
438.3000;0.1555;0.0358;
438.6000;0.1547;0.0430;
438.9000;0.1522;0.0430;
439.2000;0.1538;0.0406;
439.5000;0.1538;0.0454;
439.8000;0.1547;0.0478;
440.1000;0.1522;0.0406;
440.4000;0.1522;0.0430;
440.7000;0.1530;0.0311;
441.0000;0.1555;0.0406;
441.3000;0.1490;0.0287;
441.6000;0.1506;0.0335;
441.9000;0.1522;0.0358;
442.2000;0.1522;0.0382;
442.5000;0.1514;0.0311;
442.8000;0.1506;0.0311;
443.1000;0.1514;0.0335;
443.4000;0.1547;0.0478;
443.7000;0.1530;0.0454;
444.0000;0.1522;0.0454;
444.3000;0.1522;0.0454;
444.6000;0.1538;0.0406;
444.9000;0.1538;0.0478;
445.2000;0.1514;0.0382;
445.5000;0.1595;0.0526;
445.8000;0.1563;0.0478;
446.1000;0.1465;0.0215;
446.4000;0.1530;0.0335;
446.7000;0.1530;0.0335;
447.0000;0.1538;0.0430;
447.3000;0.1547;0.0454;
447.6000;0.1538;0.0406;
447.9000;0.1506;0.0335;
448.2000;0.1498;0.0311;
448.5000;0.1506;0.0406;
448.8000;0.1506;0.0358;
449.1000;0.1547;0.0454;
449.4000;0.1506;0.0454;
449.7000;0.1457;0.0335;
450.0000;0.1514;0.0502;
450.3000;0.1514;0.0550;
450.6000;0.1538;0.0550;
450.9000;0.1522;0.0478;
451.2000;0.1538;0.0454;
451.5000;0.1481;0.0287;
451.8000;0.1538;0.0430;
452.1000;0.1514;0.0382;
452.4000;0.1490;0.0287;
452.7000;0.1555;0.0550;
453.0000;0.1530;0.0358;
453.3000;0.1563;0.0454;
453.6000;0.1530;0.0311;
453.9000;0.1514;0.0239;
454.2000;0.1522;0.0239;
454.5000;0.1506;0.0311;
454.8000;0.1538;0.0406;
455.1000;0.1530;0.0358;
455.4000;0.1530;0.0335;
455.7000;0.1547;0.0287;
456.0000;0.1506;0.0167;
456.3000;0.1530;0.0287;
456.6000;0.1514;0.0335;
456.9000;0.1522;0.0358;
457.2000;0.1530;0.0311;
457.5000;0.1538;0.0406;
457.8000;0.1555;0.0335;
458.1000;0.1522;0.0287;
458.4000;0.1522;0.0239;
458.7000;0.1555;0.0335;
459.0000;0.1522;0.0311;
459.3000;0.1514;0.0311;
459.6000;0.1522;0.0358;
459.9000;0.1530;0.0382;
460.2000;0.1522;0.0335;
460.5000;0.1530;0.0287;
460.8000;0.1514;0.0287;
461.1000;0.1498;0.0215;
461.4000;0.1481;0.0191;
461.7000;0.1498;0.0239;
462.0000;0.1530;0.0215;
462.3000;0.1522;0.0215;
462.6000;0.1547;0.0215;
462.9000;0.1530;0.0167;
463.2000;0.1522;0.0119;
463.5000;0.1481;0.0072;
463.8000;0.1506;0.0191;
464.1000;0.1538;0.0311;
464.4000;0.1530;0.0335;
464.7000;0.1530;0.0358;
465.0000;0.1514;0.0287;
465.3000;0.1514;0.0191;
465.6000;0.1620;0.0311;
465.9000;0.1522;0.0024;
466.2000;0.1514;0.0000;
466.5000;0.1498;-0.0048;
466.8000;0.1547;0.0096;
467.1000;0.1636;0.0335;
467.4000;0.1400;-0.0215;
467.7000;0.1514;0.0000;
468.0000;0.1538;0.0024;
468.3000;0.1522;0.0048;
468.6000;0.1538;0.0143;
468.9000;0.1530;0.0167;
469.2000;0.1538;0.0191;
469.5000;0.1530;0.0215;
469.8000;0.1522;0.0287;
470.1000;0.1522;0.0335;
470.4000;0.1498;0.0263;
470.7000;0.1530;0.0358;
471.0000;0.1563;0.0430;
471.3000;0.1522;0.0358;
471.6000;0.1530;0.0358;
471.9000;0.1538;0.0430;
472.2000;0.1538;0.0406;
472.5000;0.1473;0.0215;
472.8000;0.1506;0.0311;
473.1000;0.1530;0.0382;
473.4000;0.1473;0.0215;
473.7000;0.1547;0.0382;
474.0000;0.1522;0.0215;
474.3000;0.1538;0.0167;
474.6000;0.1530;0.0215;
474.9000;0.1522;0.0191;
475.2000;0.1530;0.0263;
475.5000;0.1441;0.0000;
475.8000;0.1530;0.0311;
476.1000;0.1522;0.0335;
476.4000;0.1514;0.0382;
476.7000;0.1530;0.0430;
477.0000;0.1604;0.0550;
477.3000;0.1522;0.0430;
477.6000;0.1506;0.0430;
477.9000;0.1506;0.0406;
478.2000;0.1538;0.0406;
478.5000;0.1538;0.0358;
478.8000;0.1538;0.0311;
479.1000;0.1530;0.0430;
479.4000;0.1522;0.0430;
479.7000;0.1530;0.0406;
480.0000;0.1514;0.0406;
480.3000;0.1514;0.0335;
480.6000;0.1522;0.0406;
480.9000;0.1530;0.0478;
481.2000;0.1506;0.0406;
481.5000;0.1514;0.0430;
481.8000;0.1522;0.0430;
482.1000;0.1538;0.0430;
482.4000;0.1530;0.0502;
482.7000;0.1571;0.0597;
483.0000;0.1522;0.0574;
483.3000;0.1538;0.0550;
483.6000;0.1555;0.0502;
483.9000;0.1538;0.0358;
484.2000;0.1449;0.0048;
484.5000;0.1506;0.0263;
484.8000;0.1490;0.0239;
485.1000;0.1514;0.0287;
485.4000;0.1530;0.0335;
485.7000;0.1547;0.0358;
486.0000;0.1530;0.0406;
486.3000;0.1514;0.0358;
486.6000;0.1506;0.0287;
486.9000;0.1530;0.0358;
487.2000;0.1530;0.0430;
487.5000;0.1530;0.0430;
487.8000;0.1490;0.0335;
488.1000;0.1522;0.0358;
488.4000;0.1538;0.0382;
488.7000;0.1441;0.0048;
489.0000;0.1669;0.0621;
489.3000;0.1530;0.0406;
489.6000;0.1514;0.0406;
489.9000;0.1538;0.0406;
490.2000;0.1547;0.0454;
490.5000;0.1538;0.0335;
490.8000;0.1514;0.0215;
491.1000;0.1514;0.0215;
491.4000;0.1538;0.0287;
491.7000;0.1530;0.0215;
492.0000;0.1538;0.0287;
492.3000;0.1538;0.0311;
492.6000;0.1522;0.0311;
492.9000;0.1498;0.0239;
493.2000;0.1514;0.0358;
493.5000;0.1530;0.0430;
493.8000;0.1530;0.0430;
494.1000;0.1530;0.0430;
494.4000;0.1465;0.0287;
494.7000;0.1555;0.0430;
495.0000;0.1522;0.0335;
495.3000;0.1538;0.0382;
495.6000;0.1514;0.0430;
495.9000;0.1522;0.0430;
496.2000;0.1530;0.0454;
496.5000;0.1538;0.0502;
496.8000;0.1530;0.0430;
497.1000;0.1522;0.0358;
497.4000;0.1530;0.0430;
497.7000;0.1530;0.0430;
498.0000;0.1547;0.0454;
498.3000;0.1506;0.0406;
498.6000;0.1620;0.0669;
498.9000;0.1538;0.0382;
499.2000;0.1514;0.0263;
499.5000;0.1530;0.0406;
499.8000;0.1530;0.0478;
500.1000;0.1538;0.0454;
500.4000;0.1514;0.0406;
500.7000;0.1538;0.0430;
501.0000;0.1530;0.0430;
501.3000;0.1538;0.0430;
501.6000;0.1547;0.0454;
501.9000;0.1530;0.0502;
502.2000;0.1514;0.0478;
502.5000;0.1538;0.0406;
502.8000;0.1530;0.0287;
503.1000;0.1563;0.0287;
503.4000;0.1530;0.0287;
503.7000;0.1530;0.0263;
504.0000;0.1514;0.0263;
504.3000;0.1530;0.0311;
504.6000;0.1506;0.0287;
504.9000;0.1490;0.0287;
505.2000;0.1604;0.0574;
505.5000;0.1522;0.0335;
505.8000;0.1530;0.0311;
506.1000;0.1538;0.0191;
506.4000;0.1530;0.0143;
506.7000;0.1547;0.0119;
507.0000;0.1620;0.0311;
507.3000;0.1628;0.0287;
507.6000;0.1530;0.0072;
507.9000;0.1538;0.0143;
508.2000;0.1612;0.0406;
508.5000;0.1538;0.0239;
508.8000;0.1449;-0.0072;
509.1000;0.1538;0.0167;
509.4000;0.1530;0.0072;
509.7000;0.1530;0.0048;
510.0000;0.1514;0.0048;
510.3000;0.1563;0.0167;
510.6000;0.1555;0.0167;
510.9000;0.1538;0.0239;
511.2000;0.1514;0.0263;
511.5000;0.1555;0.0335;
511.8000;0.1433;0.0096;
512.1000;0.1498;0.0239;
512.4000;0.1514;0.0335;
512.7000;0.1530;0.0406;
513.0000;0.1604;0.0574;
513.3000;0.1522;0.0335;
513.6000;0.1530;0.0287;
513.9000;0.1522;0.0239;
514.2000;0.1522;0.0239;
514.5000;0.1506;0.0335;
514.8000;0.1514;0.0335;
515.1000;0.1457;0.0119;
515.4000;0.1522;0.0358;
515.7000;0.1514;0.0335;
516.0000;0.1555;0.0335;
516.3000;0.1538;0.0311;
516.6000;0.1530;0.0287;
516.9000;0.1636;0.0502;
517.2000;0.1522;0.0263;
517.5000;0.1514;0.0311;
517.8000;0.1514;0.0335;
518.1000;0.1538;0.0335;
518.4000;0.1547;0.0430;
518.7000;0.1538;0.0454;
519.0000;0.1522;0.0382;
519.3000;0.1514;0.0358;
519.6000;0.1522;0.0382;
519.9000;0.1368;-0.0096;
520.2000;0.1538;0.0358;
520.5000;0.1481;0.0239;
520.8000;0.1571;0.0526;
521.1000;0.1522;0.0311;
521.4000;0.1547;0.0406;
521.7000;0.1547;0.0335;
522.0000;0.1522;0.0358;
522.3000;0.1522;0.0382;
522.6000;0.1481;0.0239;
522.9000;0.1604;0.0454;
523.2000;0.1547;0.0358;
523.5000;0.1547;0.0358;
523.8000;0.1571;0.0358;
524.1000;0.1530;0.0287;
524.4000;0.1522;0.0406;
524.7000;0.1547;0.0502;
525.0000;0.1514;0.0406;
525.3000;0.1514;0.0358;
525.6000;0.1538;0.0406;
525.9000;0.1547;0.0311;
526.2000;0.1538;0.0263;
526.5000;0.1506;0.0215;
526.8000;0.1490;0.0167;
527.1000;0.1538;0.0263;
527.4000;0.1547;0.0263;
527.7000;0.1530;0.0215;
528.0000;0.1530;0.0167;
528.3000;0.1514;0.0191;
528.6000;0.1530;0.0239;
528.9000;0.1538;0.0263;
529.2000;0.1457;0.0000;
529.5000;0.1514;0.0215;
529.8000;0.1547;0.0311;
530.1000;0.1563;0.0382;
530.4000;0.1481;0.0191;
530.7000;0.1498;0.0263;
531.0000;0.1530;0.0335;
531.3000;0.1498;0.0311;
531.6000;0.1522;0.0287;
531.9000;0.1538;0.0287;
532.2000;0.1587;0.0382;
532.5000;0.1530;0.0311;
532.8000;0.1538;0.0311;
533.1000;0.1392;-0.0096;
533.4000;0.1547;0.0287;
533.7000;0.1538;0.0263;
534.0000;0.1522;0.0191;
534.3000;0.1571;0.0406;
534.6000;0.1506;0.0215;
534.9000;0.1538;0.0287;
535.2000;0.1514;0.0263;
535.5000;0.1522;0.0263;
535.8000;0.1530;0.0335;
536.1000;0.1514;0.0287;
536.4000;0.1522;0.0287;
536.7000;0.1498;0.0143;
537.0000;0.1473;0.0143;
537.3000;0.1522;0.0287;
537.6000;0.1538;0.0239;
537.9000;0.1490;0.0143;
538.2000;0.1481;0.0119;
538.5000;0.1506;0.0167;
538.8000;0.1522;0.0287;
539.1000;0.1490;0.0167;
539.4000;0.1563;0.0335;
539.7000;0.1514;0.0215;
540.0000;0.1547;0.0335;
540.3000;0.1530;0.0358;
540.6000;0.1538;0.0430;
540.9000;0.1538;0.0430;
541.2000;0.1579;0.0454;
541.5000;0.1473;0.0191;
541.8000;0.1522;0.0287;
542.1000;0.1514;0.0239;
542.4000;0.1498;0.0191;
542.7000;0.1522;0.0167;
543.0000;0.1514;0.0143;
543.3000;0.1595;0.0430;
543.6000;0.1547;0.0335;
543.9000;0.1538;0.0335;
544.2000;0.1530;0.0287;
544.5000;0.1571;0.0335;
544.8000;0.1595;0.0263;
545.1000;0.1547;0.0119;
545.4000;0.1612;0.0215;
545.7000;0.1538;0.0000;
546.0000;0.1628;0.0263;
546.3000;0.1522;0.0096;
546.6000;0.1473;0.0119;
546.9000;0.1555;0.0287;
547.2000;0.1530;0.0191;
547.5000;0.1465;0.0000;
547.8000;0.1514;0.0143;
548.1000;0.1547;0.0239;
548.4000;0.1465;0.0072;
548.7000;0.1514;0.0191;
549.0000;0.1522;0.0191;
549.3000;0.1547;0.0239;
549.6000;0.1530;0.0215;
549.9000;0.1538;0.0239;
550.2000;0.1522;0.0143;
550.5000;0.1530;0.0215;
550.8000;0.1563;0.0311;
551.1000;0.1481;0.0263;
551.4000;0.1498;0.0335;
551.7000;0.1514;0.0454;
552.0000;0.1522;0.0454;
552.3000;0.1530;0.0406;
552.6000;0.1522;0.0406;
552.9000;0.1514;0.0287;
553.2000;0.1514;0.0215;
553.5000;0.1522;0.0167;
553.8000;0.1498;0.0143;
554.1000;0.1473;0.0119;
554.4000;0.1522;0.0382;
554.7000;0.1522;0.0335;
555.0000;0.1514;0.0239;
555.3000;0.1514;0.0239;
555.6000;0.1555;0.0287;
555.9000;0.1555;0.0311;
556.2000;0.1530;0.0263;
556.5000;0.1522;0.0215;
556.8000;0.1547;0.0287;
557.1000;0.1530;0.0191;
557.4000;0.1514;0.0072;
557.7000;0.1498;0.0024;
558.0000;0.1506;-0.0048;
558.3000;0.1498;-0.0072;
558.6000;0.1563;0.0096;
558.9000;0.1522;0.0072;
559.2000;0.1538;0.0167;
559.5000;0.1547;0.0119;
559.8000;0.1538;0.0119;
560.1000;0.1530;0.0215;
560.4000;0.1481;0.0072;
560.7000;0.1538;0.0335;
561.0000;0.1530;0.0358;
561.3000;0.1481;0.0239;
561.6000;0.1522;0.0287;
561.9000;0.1579;0.0406;
562.2000;0.1465;0.0096;
562.5000;0.1522;0.0287;
562.8000;0.1538;0.0382;
563.1000;0.1530;0.0311;
563.4000;0.1498;0.0143;
563.7000;0.1522;0.0263;
564.0000;0.1522;0.0263;
564.3000;0.1457;0.0119;
564.6000;0.1522;0.0263;
564.9000;0.1547;0.0311;
565.2000;0.1547;0.0311;
565.5000;0.1514;0.0191;
565.8000;0.1547;0.0263;
566.1000;0.1538;0.0215;
566.4000;0.1587;0.0287;
566.7000;0.1530;0.0072;
567.0000;0.1538;0.0143;
567.3000;0.1408;-0.0239;
567.6000;0.1498;0.0048;
567.9000;0.1490;0.0024;
568.2000;0.1522;0.0239;
568.5000;0.1547;0.0287;
568.8000;0.1465;0.0048;
569.1000;0.1514;0.0191;
569.4000;0.1514;0.0215;
569.7000;0.1555;0.0382;
570.0000;0.1555;0.0382;
570.3000;0.1530;0.0263;
570.6000;0.1514;0.0215;
570.9000;0.1538;0.0263;
571.2000;0.1530;0.0287;
571.5000;0.1530;0.0335;
571.8000;0.1522;0.0311;
572.1000;0.1522;0.0287;
572.4000;0.1579;0.0382;
572.7000;0.1530;0.0215;
573.0000;0.1522;0.0287;
573.3000;0.1530;0.0311;
573.6000;0.1530;0.0263;
573.9000;0.1530;0.0191;
574.2000;0.1547;0.0287;
574.5000;0.1514;0.0263;
574.8000;0.1522;0.0335;
575.1000;0.1563;0.0406;
575.4000;0.1498;0.0287;
575.7000;0.1522;0.0311;
576.0000;0.1514;0.0263;
576.3000;0.1547;0.0382;
576.6000;0.1563;0.0406;
576.9000;0.1530;0.0287;
577.2000;0.1506;0.0167;
577.5000;0.1522;0.0287;
577.8000;0.1547;0.0311;
578.1000;0.1530;0.0215;
578.4000;0.1547;0.0263;
578.7000;0.1530;0.0191;
579.0000;0.1530;0.0191;
579.3000;0.1490;0.0143;
579.6000;0.1522;0.0167;
579.9000;0.1530;0.0215;
580.2000;0.1425;-0.0119;
580.5000;0.1530;0.0143;
580.8000;0.1416;-0.0072;
581.1000;0.1514;0.0215;
581.4000;0.1547;0.0263;
581.7000;0.1522;0.0167;
582.0000;0.1441;-0.0072;
582.3000;0.1595;0.0382;
582.6000;0.1514;0.0191;
582.9000;0.1514;0.0167;
583.2000;0.1522;0.0215;
583.5000;0.1473;0.0072;
583.8000;0.1490;0.0215;
584.1000;0.1465;0.0191;
584.4000;0.1522;0.0358;
584.7000;0.1490;0.0335;
585.0000;0.1530;0.0430;
585.3000;0.1514;0.0358;
585.6000;0.1522;0.0335;
585.9000;0.1490;0.0167;
586.2000;0.1522;0.0311;
586.5000;0.1514;0.0335;
586.8000;0.1612;0.0550;
587.1000;0.1530;0.0335;
587.4000;0.1514;0.0287;
587.7000;0.1522;0.0335;
588.0000;0.1555;0.0406;
588.3000;0.1530;0.0311;
588.6000;0.1522;0.0287;
588.9000;0.1514;0.0167;
589.2000;0.1457;-0.0024;
589.5000;0.1547;0.0263;
589.8000;0.1530;0.0215;
590.1000;0.1506;0.0143;
590.4000;0.1514;0.0263;
590.7000;0.1522;0.0263;
591.0000;0.1514;0.0335;
591.3000;0.1514;0.0287;
591.6000;0.1530;0.0215;
591.9000;0.1538;0.0263;
592.2000;0.1538;0.0287;
592.5000;0.1522;0.0335;
592.8000;0.1538;0.0406;
593.1000;0.1547;0.0382;
593.4000;0.1490;0.0263;
593.7000;0.1481;0.0239;
594.0000;0.1522;0.0358;
594.3000;0.1530;0.0358;
594.6000;0.1530;0.0430;
594.9000;0.1514;0.0406;
595.2000;0.1522;0.0358;
595.5000;0.1547;0.0358;
595.8000;0.1555;0.0406;
596.1000;0.1514;0.0263;
596.4000;0.1498;0.0191;
596.7000;0.1530;0.0263;
597.0000;0.1538;0.0239;
597.3000;0.1514;0.0191;
597.6000;0.1457;0.0048;
597.9000;0.1522;0.0191;
598.2000;0.1522;0.0167;
598.5000;0.1522;0.0167;
598.8000;0.1530;0.0311;
599.1000;0.1571;0.0287;
599.4000;0.1547;0.0239;
599.7000;0.1661;0.0502;
600.0000;0.1530;0.0167;
600.3000;0.1506;0.0191;
600.6000;0.1547;0.0215;
600.9000;0.1530;0.0143;
601.2000;0.1530;0.0143;
601.5000;0.1636;0.0311;
601.8000;0.1506;-0.0119;
602.1000;0.1555;-0.0167;
602.4000;0.1498;-0.0358;
602.7000;0.1522;-0.0478;
603.0000;0.1522;-0.0574;
603.3000;0.1522;-0.0645;
603.6000;0.1506;-0.0741;
603.9000;0.1481;-0.0693;
604.2000;0.1530;-0.0669;
604.5000;0.1522;-0.0645;
604.8000;0.1530;-0.0621;
605.1000;0.1514;-0.0669;
605.4000;0.1498;-0.0765;
605.7000;0.1522;-0.0741;
606.0000;0.1522;-0.0836;
606.3000;0.1530;-0.0908;
606.6000;0.1522;-0.0884;
606.9000;0.1506;-0.0884;
607.2000;0.1506;-0.0884;
607.5000;0.1506;-0.0932;
607.8000;0.1498;-0.0884;
608.1000;0.1514;-0.0812;
608.4000;0.1555;-0.0669;
608.7000;0.1522;-0.0765;
609.0000;0.1522;-0.0717;
609.3000;0.1514;-0.0789;
609.6000;0.1538;-0.0741;
609.9000;0.1538;-0.0765;
610.2000;0.1506;-0.0741;
610.5000;0.1506;-0.0741;
610.8000;0.1514;-0.0717;
611.1000;0.1514;-0.0693;
611.4000;0.1506;-0.0741;
611.7000;0.1457;-0.1004;
612.0000;0.1490;-0.0884;
612.3000;0.1514;-0.0765;
612.6000;0.1506;-0.0836;
612.9000;0.1408;-0.1123;
613.2000;0.1547;-0.0765;
613.5000;0.1498;-0.0884;
613.8000;0.1514;-0.0836;
614.1000;0.1506;-0.0836;
614.4000;0.1465;-0.0860;
614.7000;0.1514;-0.0812;
615.0000;0.1506;-0.0717;
615.3000;0.1530;-0.0741;
615.6000;0.1506;-0.0836;
615.9000;0.1506;-0.0812;
616.2000;0.1498;-0.0812;
616.5000;0.1490;-0.0765;
616.8000;0.1522;-0.0597;
617.1000;0.1514;-0.0526;
617.4000;0.1522;-0.0502;
617.7000;0.1490;-0.0645;
618.0000;0.1506;-0.0597;
618.3000;0.1481;-0.0741;
618.6000;0.1522;-0.0693;
618.9000;0.1595;-0.0550;
619.2000;0.1506;-0.0717;
619.5000;0.1506;-0.0741;
619.8000;0.1498;-0.0860;
620.1000;0.1498;-0.0836;
620.4000;0.1522;-0.0812;
620.7000;0.1473;-0.1004;
621.0000;0.1498;-0.0932;
621.3000;0.1514;-0.0860;
621.6000;0.1571;-0.0669;
621.9000;0.1604;-0.0669;
622.2000;0.1506;-0.0932;
622.5000;0.1490;-0.1051;
622.8000;0.1522;-0.1075;
623.1000;0.1514;-0.1075;
623.4000;0.1490;-0.1051;
623.7000;0.1595;-0.0741;
624.0000;0.1506;-0.0932;
624.3000;0.1506;-0.0884;
624.6000;0.1506;-0.0908;
624.9000;0.1490;-0.0908;
625.2000;0.1547;-0.0765;
625.5000;0.1506;-0.0860;
625.8000;0.1506;-0.0884;
626.1000;0.1498;-0.0860;
626.4000;0.1514;-0.0765;
626.7000;0.1522;-0.0717;
627.0000;0.1498;-0.0812;
627.3000;0.1498;-0.0812;
627.6000;0.1547;-0.0717;
627.9000;0.1506;-0.0932;
628.2000;0.1514;-0.0956;
628.5000;0.1449;-0.1075;
628.8000;0.1400;-0.1219;
629.1000;0.1522;-0.0836;
629.4000;0.1514;-0.0789;
629.7000;0.1506;-0.0860;
630.0000;0.1506;-0.0884;
630.3000;0.1490;-0.0836;
630.6000;0.1498;-0.0836;
630.9000;0.1522;-0.0860;
631.2000;0.1579;-0.0669;
631.5000;0.1514;-0.0908;
631.8000;0.1506;-0.0884;
632.1000;0.1522;-0.0789;
632.4000;0.1506;-0.0789;
632.7000;0.1449;-0.0980;
633.0000;0.1506;-0.0836;
633.3000;0.1506;-0.0908;
633.6000;0.1457;-0.1075;
633.9000;0.1522;-0.0884;
634.2000;0.1490;-0.0932;
634.5000;0.1514;-0.0980;
634.8000;0.1514;-0.0932;
635.1000;0.1514;-0.0908;
635.4000;0.1522;-0.1004;
635.7000;0.1506;-0.0956;
636.0000;0.1514;-0.0908;
636.3000;0.1595;-0.0645;
636.6000;0.1530;-0.0812;
636.9000;0.1416;-0.1123;
637.2000;0.1498;-0.0860;
637.5000;0.1392;-0.1219;
637.8000;0.1465;-0.0980;
638.1000;0.1490;-0.0836;
638.4000;0.1498;-0.0789;
638.7000;0.1465;-0.0908;
639.0000;0.1579;-0.0645;
639.3000;0.1547;-0.0693;
639.6000;0.1514;-0.0836;
639.9000;0.1465;-0.1004;
640.2000;0.1498;-0.0836;
640.5000;0.1408;-0.1004;
640.8000;0.1514;-0.0765;
641.1000;0.1514;-0.0717;
641.4000;0.1506;-0.0741;
641.7000;0.1530;-0.0645;
642.0000;0.1522;-0.0669;
642.3000;0.1473;-0.0860;
642.6000;0.1514;-0.0836;
642.9000;0.1538;-0.0717;
643.2000;0.1498;-0.0932;
643.5000;0.1498;-0.0956;
643.8000;0.1473;-0.0980;
644.1000;0.1538;-0.0860;
644.4000;0.1514;-0.0980;
644.7000;0.1506;-0.1099;
645.0000;0.1490;-0.1147;
645.3000;0.1514;-0.1147;
645.6000;0.1490;-0.1171;
645.9000;0.1522;-0.1028;
646.2000;0.1506;-0.1123;
646.5000;0.1490;-0.1075;
646.8000;0.1506;-0.1051;
647.1000;0.1595;-0.0860;
647.4000;0.1506;-0.1051;
647.7000;0.1506;-0.1051;
648.0000;0.1506;-0.1075;
648.3000;0.1522;-0.1028;
648.6000;0.1514;-0.0980;
648.9000;0.1457;-0.1099;
649.2000;0.1490;-0.1028;
649.5000;0.1498;-0.1004;
649.8000;0.1498;-0.1004;
650.1000;0.1490;-0.1028;
650.4000;0.1563;-0.0932;
650.7000;0.1506;-0.1123;
651.0000;0.1522;-0.1123;
651.3000;0.1522;-0.1123;
651.6000;0.1522;-0.1051;
651.9000;0.1506;-0.1099;
652.2000;0.1538;-0.0980;
652.5000;0.1636;-0.0669;
652.8000;0.1538;-0.0932;
653.1000;0.1498;-0.1004;
653.4000;0.1514;-0.1004;
653.7000;0.1522;-0.0908;
654.0000;0.1490;-0.1004;
654.3000;0.1514;-0.1028;
654.6000;0.1514;-0.1004;
654.9000;0.1490;-0.1075;
655.2000;0.1522;-0.1004;
655.5000;0.1498;-0.1075;
655.8000;0.1514;-0.1075;
656.1000;0.1514;-0.1004;
656.4000;0.1498;-0.1028;
656.7000;0.1506;-0.0932;
657.0000;0.1555;-0.0765;
657.3000;0.1449;-0.0908;
657.6000;0.1538;-0.0741;
657.9000;0.1522;-0.0717;
658.2000;0.1425;-0.0956;
658.5000;0.1425;-0.1123;
658.8000;0.1473;-0.1099;
659.1000;0.1490;-0.1123;
659.4000;0.1522;-0.1075;
659.7000;0.1481;-0.1171;
660.0000;0.1514;-0.1099;
660.3000;0.1555;-0.1004;
660.6000;0.1506;-0.1051;
660.9000;0.1473;-0.1147;
661.2000;0.1498;-0.1075;
661.5000;0.1563;-0.0932;
661.8000;0.1530;-0.1028;
662.1000;0.1514;-0.1028;
662.4000;0.1498;-0.1004;
662.7000;0.1522;-0.0932;
663.0000;0.1514;-0.0932;
663.3000;0.1465;-0.1075;
663.6000;0.1538;-0.0884;
663.9000;0.1555;-0.0812;
664.2000;0.1514;-0.0908;
664.5000;0.1571;-0.0693;
664.8000;0.1481;-0.1051;
665.1000;0.1498;-0.0932;
665.4000;0.1506;-0.0980;
665.7000;0.1481;-0.1099;
666.0000;0.1473;-0.1147;
666.3000;0.1498;-0.1099;
666.6000;0.1498;-0.1099;
666.9000;0.1522;-0.1171;
667.2000;0.1498;-0.1243;
667.5000;0.1636;-0.0812;
667.8000;0.1522;-0.1147;
668.1000;0.1506;-0.1147;
668.4000;0.1498;-0.1099;
668.7000;0.1506;-0.1075;
669.0000;0.1490;-0.1147;
669.3000;0.1522;-0.1099;
669.6000;0.1506;-0.1075;
669.9000;0.1498;-0.1028;
670.2000;0.1530;-0.0980;
670.5000;0.1522;-0.1051;
670.8000;0.1506;-0.1075;
671.1000;0.1514;-0.1051;
671.4000;0.1498;-0.1123;
671.7000;0.1522;-0.1075;
672.0000;0.1522;-0.1028;
672.3000;0.1490;-0.1075;
672.6000;0.1530;-0.0884;
672.9000;0.1514;-0.0884;
673.2000;0.1522;-0.0812;
673.5000;0.1514;-0.0860;
673.8000;0.1522;-0.0836;
674.1000;0.1514;-0.0860;
674.4000;0.1498;-0.0908;
674.7000;0.1506;-0.0860;
675.0000;0.1514;-0.0812;
675.3000;0.1522;-0.0812;
675.6000;0.1506;-0.0836;
675.9000;0.1514;-0.0884;
676.2000;0.1498;-0.0908;
676.5000;0.1522;-0.0932;
676.8000;0.1368;-0.1362;
677.1000;0.1433;-0.1243;
677.4000;0.1498;-0.1195;
677.7000;0.1530;-0.1075;
678.0000;0.1473;-0.1171;
678.3000;0.1514;-0.1099;
678.6000;0.1514;-0.1123;
678.9000;0.1555;-0.0980;
679.2000;0.1506;-0.1075;
679.5000;0.1514;-0.1004;
679.8000;0.1514;-0.0956;
680.1000;0.1498;-0.0980;
680.4000;0.1498;-0.0980;
680.7000;0.1457;-0.1028;
681.0000;0.1506;-0.0884;
681.3000;0.1538;-0.0812;
681.6000;0.1530;-0.0812;
681.9000;0.1514;-0.0908;
682.2000;0.1490;-0.0956;
682.5000;0.1498;-0.1028;
682.8000;0.1514;-0.0908;
683.1000;0.1490;-0.0908;
683.4000;0.1547;-0.0765;
683.7000;0.1498;-0.0956;
684.0000;0.1506;-0.1051;
684.3000;0.1506;-0.1147;
684.6000;0.1481;-0.1266;
684.9000;0.1490;-0.1195;
685.2000;0.1514;-0.1219;
685.5000;0.1490;-0.1290;
685.8000;0.1522;-0.1171;
686.1000;0.1555;-0.1051;
686.4000;0.1481;-0.1195;
686.7000;0.1498;-0.1147;
687.0000;0.1514;-0.1147;
687.3000;0.1490;-0.1195;
687.6000;0.1514;-0.1171;
687.9000;0.1490;-0.1219;
688.2000;0.1498;-0.1195;
688.5000;0.1514;-0.1171;
688.8000;0.1490;-0.1123;
689.1000;0.1490;-0.1099;
689.4000;0.1473;-0.1171;
689.7000;0.1498;-0.1099;
690.0000;0.1514;-0.1123;
690.3000;0.1490;-0.1195;
690.6000;0.1514;-0.1171;
690.9000;0.1530;-0.1147;
691.2000;0.1490;-0.1266;
691.5000;0.1473;-0.1243;
691.8000;0.1506;-0.1147;
692.1000;0.1498;-0.1028;
692.4000;0.1530;-0.0980;
692.7000;0.1490;-0.1147;
693.0000;0.1506;-0.1171;
693.3000;0.1604;-0.0884;
693.6000;0.1514;-0.1099;
693.9000;0.1490;-0.1195;
694.2000;0.1490;-0.1195;
694.5000;0.1481;-0.1195;
694.8000;0.1498;-0.1171;
695.1000;0.1368;-0.1553;
695.4000;0.1490;-0.1195;
695.7000;0.1498;-0.1219;
696.0000;0.1522;-0.1147;
696.3000;0.1425;-0.1314;
696.6000;0.1498;-0.1028;
696.9000;0.1473;-0.1171;
697.2000;0.1530;-0.1051;
697.5000;0.1498;-0.1147;
697.8000;0.1481;-0.1171;
698.1000;0.1457;-0.1123;
698.4000;0.1498;-0.1004;
698.7000;0.1449;-0.1123;
699.0000;0.1490;-0.1099;
699.3000;0.1473;-0.1028;
699.6000;0.1416;-0.1243;
699.9000;0.1571;-0.0812;
700.2000;0.1506;-0.0980;
700.5000;0.1522;-0.0980;
700.8000;0.1498;-0.0980;
701.1000;0.1522;-0.0860;
701.4000;0.1506;-0.0884;
701.7000;0.1514;-0.0956;
702.0000;0.1506;-0.1147;
702.3000;0.1481;-0.1123;
702.6000;0.1457;-0.1147;
702.9000;0.1506;-0.0980;
703.2000;0.1473;-0.1099;
703.5000;0.1506;-0.0980;
703.8000;0.1498;-0.0956;
704.1000;0.1498;-0.0932;
704.4000;0.1514;-0.0860;
704.7000;0.1498;-0.0932;
705.0000;0.1514;-0.0932;
705.3000;0.1465;-0.1075;
705.6000;0.1514;-0.1028;
705.9000;0.1530;-0.0908;
706.2000;0.1506;-0.0932;
706.5000;0.1481;-0.0932;
706.8000;0.1514;-0.0860;
707.1000;0.1481;-0.0932;
707.4000;0.1506;-0.0932;
707.7000;0.1514;-0.0956;
708.0000;0.1490;-0.1004;
708.3000;0.1490;-0.1028;
708.6000;0.1498;-0.0956;
708.9000;0.1498;-0.0956;
709.2000;0.1506;-0.0908;
709.5000;0.1620;-0.0645;
709.8000;0.1498;-0.0908;
710.1000;0.1490;-0.0860;
710.4000;0.1498;-0.0860;
710.7000;0.1498;-0.0860;
711.0000;0.1506;-0.0836;
711.3000;0.1506;-0.0884;
711.6000;0.1490;-0.1028;
711.9000;0.1530;-0.0884;
712.2000;0.1514;-0.0836;
712.5000;0.1506;-0.0836;
712.8000;0.1522;-0.0836;
713.1000;0.1514;-0.0908;
713.4000;0.1498;-0.0884;
713.7000;0.1490;-0.0836;
714.0000;0.1481;-0.0812;
714.3000;0.1522;-0.0741;
714.6000;0.1490;-0.0741;
714.9000;0.1498;-0.0765;
715.2000;0.1490;-0.0836;
715.5000;0.1514;-0.0812;
715.8000;0.1433;-0.1004;
716.1000;0.1506;-0.0789;
716.4000;0.1506;-0.0765;
716.7000;0.1498;-0.0765;
717.0000;0.1514;-0.0717;
717.3000;0.1530;-0.0645;
717.6000;0.1563;-0.0645;
717.9000;0.1514;-0.0836;
718.2000;0.1514;-0.0884;
718.5000;0.1498;-0.0860;
718.8000;0.1498;-0.0836;
719.1000;0.1490;-0.0932;
719.4000;0.1490;-0.0908;
719.7000;0.1481;-0.0932;
720.0000;0.1473;-0.1028;
720.3000;0.1506;-0.0884;
720.6000;0.1514;-0.0860;
720.9000;0.1506;-0.0884;
721.2000;0.1506;-0.0765;
721.5000;0.1481;-0.0884;
721.8000;0.1416;-0.1004;
722.1000;0.1473;-0.0884;
722.4000;0.1481;-0.0908;
722.7000;0.1481;-0.0860;
723.0000;0.1506;-0.0836;
723.3000;0.1490;-0.0884;
723.6000;0.1555;-0.0645;
723.9000;0.1490;-0.0860;
724.2000;0.1498;-0.0836;
724.5000;0.1506;-0.0836;
724.8000;0.1498;-0.0812;
725.1000;0.1498;-0.0956;
725.4000;0.1498;-0.1028;
725.7000;0.1506;-0.1028;
726.0000;0.1506;-0.0980;
726.3000;0.1490;-0.1028;
726.6000;0.1416;-0.1171;
726.9000;0.1530;-0.0884;
727.2000;0.1530;-0.0956;
727.5000;0.1498;-0.0956;
727.8000;0.1498;-0.0860;
728.1000;0.1498;-0.0932;
728.4000;0.1498;-0.0908;
728.7000;0.1522;-0.0908;
729.0000;0.1498;-0.1004;
729.3000;0.1530;-0.1004;
729.6000;0.1514;-0.1051;
729.9000;0.1490;-0.1099;
730.2000;0.1498;-0.1075;
730.5000;0.1490;-0.1004;
730.8000;0.1490;-0.0980;
731.1000;0.1490;-0.0956;
731.4000;0.1579;-0.0836;
731.7000;0.1408;-0.1314;
732.0000;0.1522;-0.1028;
732.3000;0.1514;-0.0980;
732.6000;0.1538;-0.0884;
732.9000;0.1514;-0.0932;
733.2000;0.1522;-0.0908;
733.5000;0.1522;-0.0908;
733.8000;0.1506;-0.0884;
734.1000;0.1514;-0.0932;
734.4000;0.1506;-0.0932;
734.7000;0.1490;-0.0956;
735.0000;0.1514;-0.0932;
735.3000;0.1506;-0.0980;
735.6000;0.1514;-0.0956;
735.9000;0.1473;-0.0980;
736.2000;0.1506;-0.0980;
736.5000;0.1514;-0.0932;
736.8000;0.1563;-0.0884;
737.1000;0.1506;-0.1028;
737.4000;0.1490;-0.1051;
737.7000;0.1522;-0.0980;
738.0000;0.1506;-0.1028;
738.3000;0.1506;-0.1075;
738.6000;0.1506;-0.1099;
738.9000;0.1481;-0.1075;
739.2000;0.1514;-0.0932;
739.5000;0.1498;-0.0932;
739.8000;0.1506;-0.0980;
740.1000;0.1555;-0.0980;
740.4000;0.1490;-0.1075;
740.7000;0.1473;-0.1051;
741.0000;0.1522;-0.1028;
741.3000;0.1481;-0.1195;
741.6000;0.1498;-0.1123;
741.9000;0.1392;-0.1266;
742.2000;0.1506;-0.1028;
742.5000;0.1498;-0.1075;
742.8000;0.1563;-0.0908;
743.1000;0.1563;-0.0932;
743.4000;0.1514;-0.1051;
743.7000;0.1514;-0.1075;
744.0000;0.1514;-0.0980;
744.3000;0.1530;-0.1028;
744.6000;0.1506;-0.1171;
744.9000;0.1538;-0.1123;
745.2000;0.1530;-0.1147;
745.5000;0.1514;-0.1123;
745.8000;0.1433;-0.1314;
746.1000;0.1514;-0.1075;
746.4000;0.1506;-0.1123;
746.7000;0.1498;-0.1099;
747.0000;0.1563;-0.0884;
747.3000;0.1498;-0.1075;
747.6000;0.1522;-0.1004;
747.9000;0.1506;-0.1051;
748.2000;0.1498;-0.1075;
748.5000;0.1506;-0.1051;
748.8000;0.1498;-0.1051;
749.1000;0.1595;-0.0812;
749.4000;0.1522;-0.1051;
749.7000;0.1506;-0.1075;
750.0000;0.1571;-0.0789;
750.3000;0.1538;-0.0884;
750.6000;0.1392;-0.1266;
750.9000;0.1481;-0.1099;
751.2000;0.1498;-0.1051;
751.5000;0.1612;-0.0669;
751.8000;0.1530;-0.0860;
752.1000;0.1530;-0.0884;
752.4000;0.1506;-0.0884;
752.7000;0.1579;-0.0621;
753.0000;0.1522;-0.0836;
753.3000;0.1579;-0.0621;
753.6000;0.1522;-0.0789;
753.9000;0.1514;-0.0812;
754.2000;0.1522;-0.0789;
754.5000;0.1522;-0.0860;
754.8000;0.1490;-0.0908;
755.1000;0.1506;-0.0932;
755.4000;0.1506;-0.0980;
755.7000;0.1514;-0.0908;
756.0000;0.1506;-0.0836;
756.3000;0.1522;-0.0789;
756.6000;0.1514;-0.0741;
756.9000;0.1522;-0.0812;
757.2000;0.1514;-0.0789;
757.5000;0.1481;-0.0884;
757.8000;0.1506;-0.0789;
758.1000;0.1530;-0.0693;
758.4000;0.1514;-0.0812;
758.7000;0.1506;-0.0860;
759.0000;0.1498;-0.0884;
759.3000;0.1522;-0.0860;
759.6000;0.1514;-0.0932;
759.9000;0.1473;-0.1075;
760.2000;0.1522;-0.1004;
760.5000;0.1522;-0.0980;
760.8000;0.1522;-0.0956;
761.1000;0.1571;-0.0884;
761.4000;0.1522;-0.0980;
761.7000;0.1571;-0.0812;
762.0000;0.1506;-0.0908;
762.3000;0.1490;-0.0908;
762.6000;0.1514;-0.0836;
762.9000;0.1473;-0.0884;
763.2000;0.1506;-0.0836;
763.5000;0.1498;-0.0908;
763.8000;0.1514;-0.0812;
764.1000;0.1498;-0.0884;
764.4000;0.1490;-0.0932;
764.7000;0.1473;-0.1051;
765.0000;0.1481;-0.1051;
765.3000;0.1579;-0.0836;
765.6000;0.1498;-0.1028;
765.9000;0.1514;-0.0932;
766.2000;0.1530;-0.0836;
766.5000;0.1400;-0.1195;
766.8000;0.1351;-0.1243;
767.1000;0.1514;-0.0884;
767.4000;0.1514;-0.0884;
767.7000;0.1498;-0.1004;
768.0000;0.1522;-0.1051;
768.3000;0.1498;-0.1123;
768.6000;0.1425;-0.1434;
768.9000;0.1522;-0.1123;
769.2000;0.1514;-0.1147;
769.5000;0.1530;-0.1028;
769.8000;0.1498;-0.1099;
770.1000;0.1628;-0.0765;
770.4000;0.1506;-0.1051;
770.7000;0.1498;-0.1075;
771.0000;0.1490;-0.1028;
771.3000;0.1490;-0.1004;
771.6000;0.1449;-0.1147;
771.9000;0.1514;-0.1004;
772.2000;0.1522;-0.0908;
772.5000;0.1392;-0.1195;
772.8000;0.1481;-0.0860;
773.1000;0.1498;-0.0884;
773.4000;0.1490;-0.0836;
773.7000;0.1506;-0.0860;
774.0000;0.1498;-0.0860;
774.3000;0.1506;-0.0860;
774.6000;0.1506;-0.1004;
774.9000;0.1522;-0.1004;
775.2000;0.1571;-0.0860;
775.5000;0.1506;-0.0980;
775.8000;0.1481;-0.1099;
776.1000;0.1498;-0.0908;
776.4000;0.1547;-0.0717;
776.7000;0.1522;-0.0884;
777.0000;0.1514;-0.0908;
777.3000;0.1563;-0.0717;
777.6000;0.1506;-0.0884;
777.9000;0.1506;-0.0812;
778.2000;0.1506;-0.0812;
778.5000;0.1530;-0.0812;
778.8000;0.1498;-0.0908;
779.1000;0.1514;-0.0908;
779.4000;0.1498;-0.0860;
779.7000;0.1498;-0.0884;
780.0000;0.1481;-0.0980;
780.3000;0.1481;-0.0980;
780.6000;0.1490;-0.0980;
780.9000;0.1506;-0.0956;
781.2000;0.1498;-0.1004;
781.5000;0.1506;-0.1051;
781.8000;0.1498;-0.1075;
782.1000;0.1498;-0.1123;
782.4000;0.1514;-0.1004;
782.7000;0.1522;-0.1075;
783.0000;0.1506;-0.1075;
783.3000;0.1481;-0.1123;
783.6000;0.1473;-0.1075;
783.9000;0.1449;-0.1266;
784.2000;0.1514;-0.1051;
784.5000;0.1506;-0.0980;
784.8000;0.1514;-0.1004;
785.1000;0.1481;-0.1099;
785.4000;0.1506;-0.1051;
785.7000;0.1498;-0.1004;
786.0000;0.1547;-0.0836;
786.3000;0.1538;-0.0908;
786.6000;0.1514;-0.0908;
786.9000;0.1490;-0.1004;
787.2000;0.1490;-0.1075;
787.5000;0.1522;-0.1004;
787.8000;0.1522;-0.1099;
788.1000;0.1481;-0.1195;
788.4000;0.1490;-0.1171;
788.7000;0.1506;-0.1099;
789.0000;0.1530;-0.0956;
789.3000;0.1441;-0.1171;
789.6000;0.1514;-0.1075;
789.9000;0.1506;-0.1004;
790.2000;0.1530;-0.0956;
790.5000;0.1547;-0.0908;
790.8000;0.1506;-0.1051;
791.1000;0.1441;-0.1219;
791.4000;0.1506;-0.1075;
791.7000;0.1522;-0.0956;
792.0000;0.1522;-0.1004;
792.3000;0.1498;-0.1051;
792.6000;0.1481;-0.1099;
792.9000;0.1530;-0.0980;
793.2000;0.1498;-0.1004;
793.5000;0.1473;-0.1075;
793.8000;0.1538;-0.0908;
794.1000;0.1506;-0.0980;
794.4000;0.1612;-0.0765;
794.7000;0.1498;-0.1171;
795.0000;0.1506;-0.1099;
795.3000;0.1481;-0.1099;
795.6000;0.1506;-0.1099;
795.9000;0.1506;-0.1147;
796.2000;0.1506;-0.1075;
796.5000;0.1506;-0.1028;
796.8000;0.1481;-0.1051;
797.1000;0.1579;-0.0860;
797.4000;0.1530;-0.1004;
797.7000;0.1514;-0.0980;
798.0000;0.1490;-0.1004;
798.3000;0.1506;-0.1051;
798.6000;0.1498;-0.1051;
798.9000;0.1441;-0.1219;
799.2000;0.1449;-0.1266;
799.5000;0.1522;-0.1051;
799.8000;0.1490;-0.1099;
800.1000;0.1506;-0.1028;
800.4000;0.1481;-0.1004;
800.7000;0.1522;-0.0812;
801.0000;0.1490;-0.0812;
801.3000;0.1481;-0.0789;
801.6000;0.1473;-0.0860;
801.9000;0.1514;-0.0884;
802.2000;0.1522;-0.0956;
802.5000;0.1522;-0.0980;
802.8000;0.1506;-0.1004;
803.1000;0.1506;-0.1075;
803.4000;0.1522;-0.1171;
803.7000;0.1490;-0.1314;
804.0000;0.1506;-0.1314;
804.3000;0.1490;-0.1290;
804.6000;0.1498;-0.1290;
804.9000;0.1490;-0.1219;
805.2000;0.1506;-0.1123;
805.5000;0.1522;-0.1004;
805.8000;0.1506;-0.1147;
806.1000;0.1506;-0.1051;
806.4000;0.1473;-0.1195;
806.7000;0.1498;-0.1195;
807.0000;0.1514;-0.1147;
807.3000;0.1498;-0.1219;
807.6000;0.1514;-0.1266;
807.9000;0.1530;-0.1266;
808.2000;0.1514;-0.1266;
808.5000;0.1506;-0.1219;
808.8000;0.1481;-0.1243;
809.1000;0.1547;-0.1028;
809.4000;0.1514;-0.1123;
809.7000;0.1498;-0.1147;
810.0000;0.1514;-0.1171;
810.3000;0.1555;-0.1123;
810.6000;0.1514;-0.1266;
810.9000;0.1514;-0.1219;
811.2000;0.1498;-0.1219;
811.5000;0.1498;-0.1051;
811.8000;0.1563;-0.0789;
812.1000;0.1473;-0.1123;
812.4000;0.1522;-0.1028;
812.7000;0.1506;-0.1051;
813.0000;0.1498;-0.1099;
813.3000;0.1587;-0.0860;
813.6000;0.1522;-0.1028;
813.9000;0.1514;-0.1123;
814.2000;0.1506;-0.1075;
814.5000;0.1359;-0.1458;
814.8000;0.1522;-0.1147;
815.1000;0.1522;-0.1099;
815.4000;0.1514;-0.1171;
815.7000;0.1506;-0.1195;
816.0000;0.1506;-0.1099;
816.3000;0.1490;-0.1123;
816.6000;0.1530;-0.1004;
816.9000;0.1441;-0.1243;
817.2000;0.1490;-0.1075;
817.5000;0.1351;-0.1434;
817.8000;0.1506;-0.1123;
818.1000;0.1490;-0.1123;
818.4000;0.1555;-0.1004;
818.7000;0.1530;-0.1004;
819.0000;0.1498;-0.1123;
819.3000;0.1506;-0.1123;
819.6000;0.1441;-0.1314;
819.9000;0.1506;-0.1051;
820.2000;0.1498;-0.1028;
820.5000;0.1506;-0.1075;
820.8000;0.1498;-0.1123;
821.1000;0.1498;-0.1051;
821.4000;0.1514;-0.0908;
821.7000;0.1490;-0.0980;
822.0000;0.1498;-0.0980;
822.3000;0.1481;-0.1028;
822.6000;0.1514;-0.1028;
822.9000;0.1490;-0.1028;
823.2000;0.1498;-0.1051;
823.5000;0.1514;-0.1028;
823.8000;0.1530;-0.1004;
824.1000;0.1514;-0.0956;
824.4000;0.1514;-0.1004;
824.7000;0.1473;-0.1123;
825.0000;0.1514;-0.1051;
825.3000;0.1522;-0.1075;
825.6000;0.1506;-0.1171;
825.9000;0.1506;-0.1075;
826.2000;0.1538;-0.1051;
826.5000;0.1506;-0.1147;
826.8000;0.1514;-0.1099;
827.1000;0.1506;-0.1099;
827.4000;0.1530;-0.0932;
827.7000;0.1514;-0.1099;
828.0000;0.1530;-0.1075;
828.3000;0.1490;-0.1147;
828.6000;0.1481;-0.1099;
828.9000;0.1555;-0.1004;
829.2000;0.1514;-0.1195;
829.5000;0.1490;-0.1219;
829.8000;0.1506;-0.1171;
830.1000;0.1506;-0.1123;
830.4000;0.1547;-0.0956;
830.7000;0.1514;-0.1028;
831.0000;0.1514;-0.1051;
831.3000;0.1498;-0.1147;
831.6000;0.1530;-0.1004;
831.9000;0.1457;-0.1195;
832.2000;0.1498;-0.1075;
832.5000;0.1514;-0.1004;
832.8000;0.1498;-0.0980;
833.1000;0.1473;-0.1099;
833.4000;0.1490;-0.1147;
833.7000;0.1522;-0.1099;
834.0000;0.1522;-0.1028;
834.3000;0.1620;-0.0741;
834.6000;0.1506;-0.1028;
834.9000;0.1530;-0.1051;
835.2000;0.1530;-0.1051;
835.5000;0.1579;-0.1004;
835.8000;0.1555;-0.0932;
836.1000;0.1506;-0.1099;
836.4000;0.1490;-0.1099;
836.7000;0.1506;-0.1099;
837.0000;0.1514;-0.1075;
837.3000;0.1441;-0.1314;
837.6000;0.1563;-0.1075;
837.9000;0.1522;-0.1219;
838.2000;0.1522;-0.1266;
838.5000;0.1514;-0.1338;
838.8000;0.1498;-0.1362;
839.1000;0.1490;-0.1362;
839.4000;0.1514;-0.1314;
839.7000;0.1506;-0.1338;
840.0000;0.1514;-0.1290;
840.3000;0.1522;-0.1195;
840.6000;0.1481;-0.1434;
840.9000;0.1498;-0.1266;
841.2000;0.1498;-0.1219;
841.5000;0.1514;-0.1147;
841.8000;0.1522;-0.1147;
842.1000;0.1506;-0.1099;
842.4000;0.1506;-0.1171;
842.7000;0.1465;-0.1243;
843.0000;0.1490;-0.1147;
843.3000;0.1514;-0.1075;
843.6000;0.1579;-0.0836;
843.9000;0.1506;-0.0956;
844.2000;0.1514;-0.0956;
844.5000;0.1538;-0.0884;
844.8000;0.1530;-0.0860;
845.1000;0.1473;-0.0980;
845.4000;0.1538;-0.0812;
845.7000;0.1563;-0.0789;
846.0000;0.1506;-0.0836;
846.3000;0.1498;-0.0884;
846.6000;0.1490;-0.0884;
846.9000;0.1530;-0.0836;
847.2000;0.1522;-0.0884;
847.5000;0.1514;-0.0812;
847.8000;0.1514;-0.0765;
848.1000;0.1514;-0.0765;
848.4000;0.1506;-0.0717;
848.7000;0.1595;-0.0550;
849.0000;0.1481;-0.0860;
849.3000;0.1522;-0.0741;
849.6000;0.1498;-0.0789;
849.9000;0.1506;-0.0812;
850.2000;0.1433;-0.1028;
850.5000;0.1498;-0.0860;
850.8000;0.1514;-0.0812;
851.1000;0.1522;-0.0789;
851.4000;0.1498;-0.0812;
851.7000;0.1506;-0.0765;
852.0000;0.1481;-0.0884;
852.3000;0.1522;-0.0884;
852.6000;0.1514;-0.0860;
852.9000;0.1506;-0.0860;
853.2000;0.1506;-0.0836;
853.5000;0.1498;-0.0789;
853.8000;0.1498;-0.0836;
854.1000;0.1498;-0.0860;
854.4000;0.1506;-0.0860;
854.7000;0.1522;-0.0812;
855.0000;0.1506;-0.0836;
855.3000;0.1481;-0.0860;
855.6000;0.1514;-0.0836;
855.9000;0.1498;-0.0884;
856.2000;0.1514;-0.0836;
856.5000;0.1498;-0.0908;
856.8000;0.1514;-0.0956;
857.1000;0.1547;-0.0789;
857.4000;0.1538;-0.0860;
857.7000;0.1522;-0.0836;
858.0000;0.1514;-0.0765;
858.3000;0.1457;-0.0884;
858.6000;0.1514;-0.0860;
858.9000;0.1506;-0.0836;
859.2000;0.1522;-0.0932;
859.5000;0.1514;-0.0932;
859.8000;0.1490;-0.0956;
860.1000;0.1506;-0.0932;
860.4000;0.1490;-0.1004;
860.7000;0.1506;-0.0932;
861.0000;0.1498;-0.0980;
861.3000;0.1514;-0.0980;
861.6000;0.1498;-0.0908;
861.9000;0.1571;-0.0717;
862.2000;0.1506;-0.0860;
862.5000;0.1514;-0.0789;
862.8000;0.1490;-0.0812;
863.1000;0.1514;-0.0693;
863.4000;0.1587;-0.0526;
863.7000;0.1506;-0.0765;
864.0000;0.1514;-0.0741;
864.3000;0.1441;-0.0956;
864.6000;0.1498;-0.0812;
864.9000;0.1506;-0.0765;
865.2000;0.1514;-0.0812;
865.5000;0.1506;-0.0812;
865.8000;0.1595;-0.0693;
866.1000;0.1498;-0.0908;
866.4000;0.1514;-0.0884;
866.7000;0.1571;-0.0693;
867.0000;0.1392;-0.1147;
867.3000;0.1530;-0.0908;
867.6000;0.1530;-0.0932;
867.9000;0.1473;-0.1051;
868.2000;0.1498;-0.0956;
868.5000;0.1522;-0.0956;
868.8000;0.1498;-0.1028;
869.1000;0.1530;-0.0884;
869.4000;0.1506;-0.0956;
869.7000;0.1457;-0.1028;
870.0000;0.1522;-0.0860;
870.3000;0.1514;-0.0884;
870.6000;0.1522;-0.0908;
870.9000;0.1571;-0.0717;
871.2000;0.1490;-0.0908;
871.5000;0.1506;-0.0836;
871.8000;0.1538;-0.0789;
872.1000;0.1514;-0.0884;
872.4000;0.1571;-0.0741;
872.7000;0.1506;-0.0932;
873.0000;0.1522;-0.0741;
873.3000;0.1498;-0.0765;
873.6000;0.1514;-0.0597;
873.9000;0.1490;-0.0550;
874.2000;0.1498;-0.0478;
874.5000;0.1457;-0.0693;
874.8000;0.1506;-0.0597;
875.1000;0.1522;-0.0574;
875.4000;0.1506;-0.0693;
875.7000;0.1481;-0.0765;
876.0000;0.1514;-0.0669;
876.3000;0.1506;-0.0669;
876.6000;0.1498;-0.0621;
876.9000;0.1481;-0.0693;
877.2000;0.1498;-0.0693;
877.5000;0.1490;-0.0741;
877.8000;0.1498;-0.0741;
878.1000;0.1514;-0.0789;
878.4000;0.1498;-0.0860;
878.7000;0.1498;-0.0860;
879.0000;0.1506;-0.0812;
879.3000;0.1514;-0.0789;
879.6000;0.1514;-0.0812;
879.9000;0.1522;-0.0812;
880.2000;0.1514;-0.0956;
880.5000;0.1498;-0.1051;
880.8000;0.1506;-0.1075;
881.1000;0.1506;-0.1123;
881.4000;0.1498;-0.1099;
881.7000;0.1441;-0.1195;
882.0000;0.1538;-0.0908;
882.3000;0.1490;-0.1028;
882.6000;0.1563;-0.0765;
882.9000;0.1498;-0.0908;
883.2000;0.1506;-0.0932;
883.5000;0.1522;-0.0860;
883.8000;0.1498;-0.0956;
884.1000;0.1498;-0.1004;
884.4000;0.1506;-0.1099;
884.7000;0.1522;-0.0980;
885.0000;0.1490;-0.1004;
885.3000;0.1481;-0.1123;
885.6000;0.1498;-0.1051;
885.9000;0.1506;-0.1099;
886.2000;0.1506;-0.1099;
886.5000;0.1522;-0.1123;
886.8000;0.1514;-0.1147;
887.1000;0.1522;-0.1051;
887.4000;0.1530;-0.0956;
887.7000;0.1522;-0.0956;
888.0000;0.1522;-0.0980;
888.3000;0.1514;-0.0980;
888.6000;0.1498;-0.0980;
888.9000;0.1449;-0.1075;
889.2000;0.1498;-0.0884;
889.5000;0.1506;-0.0884;
889.8000;0.1595;-0.0669;
890.1000;0.1465;-0.1051;
890.4000;0.1522;-0.0980;
890.7000;0.1449;-0.1171;
891.0000;0.1571;-0.0860;
891.3000;0.1538;-0.1004;
891.6000;0.1498;-0.1051;
891.9000;0.1506;-0.0980;
892.2000;0.1473;-0.1171;
892.5000;0.1490;-0.1123;
892.8000;0.1490;-0.1099;
893.1000;0.1498;-0.1028;
893.4000;0.1490;-0.1075;
893.7000;0.1530;-0.0956;
894.0000;0.1498;-0.0980;
894.3000;0.1498;-0.1004;
894.6000;0.1514;-0.0956;
894.9000;0.1522;-0.0980;
895.2000;0.1490;-0.1028;
895.5000;0.1506;-0.0908;
895.8000;0.1538;-0.0812;
896.1000;0.1530;-0.0908;
896.4000;0.1514;-0.1004;
896.7000;0.1514;-0.1051;
897.0000;0.1538;-0.1075;
897.3000;0.1522;-0.1028;
897.6000;0.1498;-0.1147;
897.9000;0.1547;-0.1099;
898.2000;0.1506;-0.1099;
898.5000;0.1514;-0.1051;
898.8000;0.1498;-0.1099;
899.1000;0.1498;-0.1075;
899.4000;0.1481;-0.1171;
899.7000;0.1498;-0.1219;
900.0000;0.1514;-0.1171;
900.3000;0.1514;-0.1171;
900.6000;0.1514;-0.1147;
900.9000;0.1522;-0.1219;
901.2000;0.1498;-0.1195;
901.5000;0.1449;-0.1410;
901.8000;0.1530;-0.1314;
902.1000;0.1506;-0.1314;
902.4000;0.1522;-0.1243;
902.7000;0.1506;-0.1266;
903.0000;0.1514;-0.1243;
903.3000;0.1522;-0.1195;
903.6000;0.1514;-0.1195;
903.9000;0.1481;-0.1314;
904.2000;0.1498;-0.1195;
904.5000;0.1514;-0.1123;
904.8000;0.1408;-0.1314;
905.1000;0.1530;-0.1051;
905.4000;0.1481;-0.1219;
905.7000;0.1498;-0.1123;
906.0000;0.1506;-0.1075;
906.3000;0.1506;-0.1099;
906.6000;0.1465;-0.1099;
906.9000;0.1473;-0.1099;
907.2000;0.1481;-0.1123;
907.5000;0.1506;-0.1028;
907.8000;0.1514;-0.1051;
908.1000;0.1522;-0.1004;
908.4000;0.1522;-0.1099;
908.7000;0.1522;-0.1075;
909.0000;0.1555;-0.0884;
909.3000;0.1514;-0.0956;
909.6000;0.1498;-0.0956;
909.9000;0.1547;-0.0765;
910.2000;0.1522;-0.0836;
910.5000;0.1563;-0.0789;
910.8000;0.1481;-0.0980;
911.1000;0.1587;-0.0765;
911.4000;0.1506;-0.1051;
911.7000;0.1514;-0.1099;
912.0000;0.1433;-0.1314;
912.3000;0.1506;-0.1099;
912.6000;0.1498;-0.1075;
912.9000;0.1563;-0.0860;
913.2000;0.1514;-0.0980;
913.5000;0.1514;-0.0908;
913.8000;0.1498;-0.0932;
914.1000;0.1514;-0.0980;
914.4000;0.1481;-0.1028;
914.7000;0.1490;-0.0956;
915.0000;0.1506;-0.0956;
915.3000;0.1514;-0.0956;
915.6000;0.1522;-0.0956;
915.9000;0.1498;-0.1051;
916.2000;0.1498;-0.1147;
916.5000;0.1514;-0.1266;
916.8000;0.1506;-0.1386;
917.1000;0.1498;-0.1290;
917.4000;0.1498;-0.1219;
917.7000;0.1490;-0.1195;
918.0000;0.1514;-0.1075;
918.3000;0.1498;-0.1051;
918.6000;0.1498;-0.1123;
918.9000;0.1498;-0.1004;
919.2000;0.1514;-0.1075;
919.5000;0.1506;-0.1051;
919.8000;0.1506;-0.1075;
920.1000;0.1506;-0.1123;
920.4000;0.1514;-0.1075;
920.7000;0.1514;-0.1028;
921.0000;0.1490;-0.1075;
921.3000;0.1514;-0.0980;
921.6000;0.1530;-0.1004;
921.9000;0.1506;-0.1099;
922.2000;0.1506;-0.1123;
922.5000;0.1498;-0.1195;
922.8000;0.1514;-0.1147;
923.1000;0.1514;-0.1171;
923.4000;0.1514;-0.1219;
923.7000;0.1514;-0.1243;
924.0000;0.1490;-0.1266;
924.3000;0.1514;-0.1195;
924.6000;0.1522;-0.1171;
924.9000;0.1490;-0.1266;
925.2000;0.1490;-0.1195;
925.5000;0.1530;-0.1099;
925.8000;0.1481;-0.1195;
926.1000;0.1506;-0.1051;
926.4000;0.1514;-0.1075;
926.7000;0.1514;-0.1075;
927.0000;0.1506;-0.1075;
927.3000;0.1661;-0.0621;
927.6000;0.1514;-0.0884;
927.9000;0.1571;-0.0789;
928.2000;0.1490;-0.1051;
928.5000;0.1498;-0.1123;
928.8000;0.1490;-0.1195;
929.1000;0.1465;-0.1243;
929.4000;0.1506;-0.1075;
929.7000;0.1498;-0.1123;
930.0000;0.1498;-0.1099;
930.3000;0.1555;-0.0956;
930.6000;0.1538;-0.0956;
930.9000;0.1498;-0.1004;
931.2000;0.1490;-0.1051;
931.5000;0.1587;-0.0789;
931.8000;0.1498;-0.1051;
932.1000;0.1571;-0.0932;
932.4000;0.1579;-0.0956;
932.7000;0.1522;-0.1075;
933.0000;0.1506;-0.1099;
933.3000;0.1522;-0.1075;
933.6000;0.1506;-0.1099;
933.9000;0.1506;-0.1171;
934.2000;0.1506;-0.1099;
934.5000;0.1514;-0.1051;
934.8000;0.1498;-0.1099;
935.1000;0.1506;-0.1051;
935.4000;0.1514;-0.0980;
935.7000;0.1498;-0.1028;
936.0000;0.1587;-0.0812;
936.3000;0.1506;-0.0980;
936.6000;0.1498;-0.1123;
936.9000;0.1490;-0.1147;
937.2000;0.1481;-0.1171;
937.5000;0.1530;-0.0884;
937.8000;0.1506;-0.0980;
938.1000;0.1514;-0.1028;
938.4000;0.1506;-0.1051;
938.7000;0.1522;-0.1051;
939.0000;0.1514;-0.1075;
939.3000;0.1514;-0.1028;
939.6000;0.1384;-0.1243;
939.9000;0.1506;-0.1051;
940.2000;0.1506;-0.1123;
940.5000;0.1514;-0.1147;
940.8000;0.1498;-0.1051;
941.1000;0.1506;-0.1028;
941.4000;0.1498;-0.1051;
941.7000;0.1514;-0.0908;
942.0000;0.1514;-0.0908;
942.3000;0.1498;-0.0932;
942.6000;0.1522;-0.0932;
942.9000;0.1498;-0.0980;
943.2000;0.1498;-0.1028;
943.5000;0.1449;-0.1171;
943.8000;0.1538;-0.1051;
944.1000;0.1490;-0.1147;
944.4000;0.1522;-0.1075;
944.7000;0.1498;-0.1099;
945.0000;0.1506;-0.1099;
945.3000;0.1530;-0.1028;
945.6000;0.1498;-0.1147;
945.9000;0.1522;-0.1075;
946.2000;0.1490;-0.1075;
946.5000;0.1465;-0.1219;
946.8000;0.1514;-0.1147;
947.1000;0.1473;-0.1219;
947.4000;0.1506;-0.1243;
947.7000;0.1538;-0.1195;
948.0000;0.1498;-0.1338;
948.3000;0.1481;-0.1338;
948.6000;0.1506;-0.1266;
948.9000;0.1490;-0.1266;
949.2000;0.1514;-0.1266;
949.5000;0.1522;-0.1314;
949.8000;0.1498;-0.1362;
950.1000;0.1506;-0.1386;
950.4000;0.1506;-0.1338;
950.7000;0.1514;-0.1362;
951.0000;0.1473;-0.1482;
951.3000;0.1498;-0.1362;
951.6000;0.1506;-0.1338;
951.9000;0.1441;-0.1458;
952.2000;0.1400;-0.1553;
952.5000;0.1498;-0.1266;
952.8000;0.1530;-0.1099;
953.1000;0.1506;-0.1219;
953.4000;0.1514;-0.1219;
953.7000;0.1506;-0.1314;
954.0000;0.1465;-0.1290;
954.3000;0.1498;-0.1290;
954.6000;0.1506;-0.1266;
954.9000;0.1514;-0.1266;
955.2000;0.1612;-0.1004;
955.5000;0.1449;-0.1410;
955.8000;0.1498;-0.1195;
956.1000;0.1514;-0.1123;
956.4000;0.1465;-0.1290;
956.7000;0.1465;-0.1338;
957.0000;0.1498;-0.1243;
957.3000;0.1498;-0.1243;
957.6000;0.1490;-0.1171;
957.9000;0.1514;-0.1147;
958.2000;0.1506;-0.1075;
958.5000;0.1498;-0.1028;
958.8000;0.1506;-0.1051;
959.1000;0.1457;-0.1243;
959.4000;0.1530;-0.1099;
959.7000;0.1416;-0.1338;
960.0000;0.1514;-0.1099;
960.3000;0.1530;-0.1075;
960.6000;0.1498;-0.1243;
960.9000;0.1514;-0.1195;
961.2000;0.1555;-0.1075;
961.5000;0.1514;-0.1123;
961.8000;0.1514;-0.1123;
962.1000;0.1530;-0.1028;
962.4000;0.1481;-0.1195;
962.7000;0.1612;-0.0836;
963.0000;0.1514;-0.1123;
963.3000;0.1538;-0.1075;
963.6000;0.1498;-0.1195;
963.9000;0.1490;-0.1243;
964.2000;0.1441;-0.1386;
964.5000;0.1514;-0.1266;
964.8000;0.1604;-0.1123;
965.1000;0.1514;-0.1362;
965.4000;0.1563;-0.1219;
965.7000;0.1416;-0.1529;
966.0000;0.1514;-0.1314;
966.3000;0.1547;-0.1147;
966.6000;0.1530;-0.1147;
966.9000;0.1514;-0.1171;
967.2000;0.1506;-0.1219;
967.5000;0.1498;-0.1290;
967.8000;0.1604;-0.0980;
968.1000;0.1514;-0.1266;
968.4000;0.1522;-0.1314;
968.7000;0.1457;-0.1434;
969.0000;0.1498;-0.1386;
969.3000;0.1481;-0.1386;
969.6000;0.1587;-0.1123;
969.9000;0.1514;-0.1362;
970.2000;0.1498;-0.1386;
970.5000;0.1490;-0.1434;
970.8000;0.1498;-0.1386;
971.1000;0.1514;-0.1338;
971.4000;0.1481;-0.1386;
971.7000;0.1490;-0.1290;
972.0000;0.1522;-0.1243;
972.3000;0.1522;-0.1386;
972.6000;0.1498;-0.1458;
972.9000;0.1506;-0.1529;
973.2000;0.1481;-0.1601;
973.5000;0.1514;-0.1529;
973.8000;0.1506;-0.1601;
974.1000;0.1514;-0.1577;
974.4000;0.1416;-0.1721;
974.7000;0.1522;-0.1434;
975.0000;0.1490;-0.1482;
975.3000;0.1522;-0.1386;
975.6000;0.1490;-0.1338;
975.9000;0.1514;-0.1219;
976.2000;0.1506;-0.1147;
976.5000;0.1506;-0.1099;
976.8000;0.1498;-0.1099;
977.1000;0.1522;-0.1099;
977.4000;0.1498;-0.1195;
977.7000;0.1506;-0.1075;
978.0000;0.1506;-0.1099;
978.3000;0.1530;-0.1123;
978.6000;0.1506;-0.1123;
978.9000;0.1579;-0.1051;
979.2000;0.1555;-0.1051;
979.5000;0.1457;-0.1243;
979.8000;0.1563;-0.1004;
980.1000;0.1416;-0.1338;
980.4000;0.1384;-0.1434;
980.7000;0.1612;-0.0836;
981.0000;0.1490;-0.1123;
981.3000;0.1530;-0.1123;
981.6000;0.1547;-0.1123;
981.9000;0.1514;-0.1266;
982.2000;0.1490;-0.1290;
982.5000;0.1522;-0.1195;
982.8000;0.1530;-0.1147;
983.1000;0.1441;-0.1338;
983.4000;0.1481;-0.1266;
983.7000;0.1506;-0.1195;
984.0000;0.1481;-0.1362;
984.3000;0.1498;-0.1195;
984.6000;0.1506;-0.1099;
984.9000;0.1498;-0.1147;
985.2000;0.1441;-0.1243;
985.5000;0.1522;-0.1195;
985.8000;0.1506;-0.1171;
986.1000;0.1449;-0.1338;
986.4000;0.1490;-0.1290;
986.7000;0.1465;-0.1290;
987.0000;0.1498;-0.1195;
987.3000;0.1555;-0.1051;
987.6000;0.1506;-0.1290;
987.9000;0.1498;-0.1410;
988.2000;0.1465;-0.1529;
988.5000;0.1514;-0.1290;
988.8000;0.1514;-0.1314;
989.1000;0.1490;-0.1338;
989.4000;0.1587;-0.1075;
989.7000;0.1490;-0.1243;
990.0000;0.1498;-0.1147;
990.3000;0.1506;-0.1075;
990.6000;0.1522;-0.1147;
990.9000;0.1498;-0.1266;
991.2000;0.1522;-0.1266;
991.5000;0.1522;-0.1266;
991.8000;0.1522;-0.1266;
992.1000;0.1530;-0.1147;
992.4000;0.1514;-0.1099;
992.7000;0.1506;-0.1123;
993.0000;0.1481;-0.1195;
993.3000;0.1506;-0.1051;
993.6000;0.1514;-0.0980;
993.9000;0.1538;-0.0956;
994.2000;0.1506;-0.0956;
994.5000;0.1522;-0.0884;
994.8000;0.1530;-0.0908;
995.1000;0.1522;-0.0884;
995.4000;0.1514;-0.0932;
995.7000;0.1530;-0.0884;
996.0000;0.1498;-0.0980;
996.3000;0.1514;-0.0908;
996.6000;0.1473;-0.1075;
996.9000;0.1506;-0.0956;
997.2000;0.1587;-0.0693;
997.5000;0.1473;-0.1075;
997.8000;0.1506;-0.1028;
998.1000;0.1530;-0.0956;
998.4000;0.1457;-0.1219;
998.7000;0.1368;-0.1386;
999.0000;0.1506;-0.0980;
999.3000;0.1425;-0.1243;
999.6000;0.1547;-0.0956;
999.9000;0.1481;-0.1123;
1000.2000;0.1481;-0.1147;
1000.5000;0.1514;-0.1099;
1000.8000;0.1514;-0.1219;
1001.1000;0.1490;-0.1290;
1001.4000;0.1628;-0.0884;
1001.7000;0.1481;-0.1266;
1002.0000;0.1498;-0.1243;
1002.3000;0.1514;-0.1147;
1002.6000;0.1506;-0.1195;
1002.9000;0.1652;-0.0789;
1003.2000;0.1506;-0.1123;
1003.5000;0.1498;-0.1099;
1003.8000;0.1506;-0.1051;
1004.1000;0.1400;-0.1362;
1004.4000;0.1498;-0.1075;
1004.7000;0.1449;-0.1243;
1005.0000;0.1465;-0.1338;
1005.3000;0.1506;-0.1219;
1005.6000;0.1522;-0.1195;
1005.9000;0.1522;-0.1171;
1006.2000;0.1514;-0.1266;
1006.5000;0.1481;-0.1338;
1006.8000;0.1481;-0.1266;
1007.1000;0.1506;-0.1386;
1007.4000;0.1514;-0.1338;
1007.7000;0.1465;-0.1386;
1008.0000;0.1465;-0.1362;
1008.3000;0.1498;-0.1171;
1008.6000;0.1538;-0.1147;
1008.9000;0.1530;-0.1123;
1009.2000;0.1473;-0.1243;
1009.5000;0.1490;-0.1290;
1009.8000;0.1514;-0.1171;
1010.1000;0.1473;-0.1243;
1010.4000;0.1514;-0.1123;
1010.7000;0.1538;-0.1004;
1011.0000;0.1530;-0.0980;
1011.3000;0.1506;-0.0980;
1011.6000;0.1506;-0.1028;
1011.9000;0.1490;-0.1123;
1012.2000;0.1441;-0.1243;
1012.5000;0.1514;-0.0956;
1012.8000;0.1481;-0.1028;
1013.1000;0.1530;-0.1004;
1013.4000;0.1514;-0.1028;
1013.7000;0.1522;-0.1075;
1014.0000;0.1514;-0.1051;
1014.3000;0.1506;-0.1075;
1014.6000;0.1506;-0.1123;
1014.9000;0.1498;-0.1171;
1015.2000;0.1514;-0.1171;
1015.5000;0.1498;-0.1243;
1015.8000;0.1538;-0.1123;
1016.1000;0.1498;-0.1290;
1016.4000;0.1514;-0.1314;
1016.7000;0.1514;-0.1266;
1017.0000;0.1490;-0.1266;
1017.3000;0.1498;-0.1219;
1017.6000;0.1514;-0.1099;
1017.9000;0.1506;-0.1123;
1018.2000;0.1514;-0.1075;
1018.5000;0.1522;-0.1099;
1018.8000;0.1530;-0.1075;
1019.1000;0.1522;-0.1123;
1019.4000;0.1514;-0.1028;
1019.7000;0.1514;-0.1075;
1020.0000;0.1522;-0.0980;
1020.3000;0.1514;-0.0956;
1020.6000;0.1490;-0.1004;
1020.9000;0.1555;-0.0884;
1021.2000;0.1538;-0.1051;
1021.5000;0.1490;-0.1195;
1021.8000;0.1522;-0.1075;
1022.1000;0.1506;-0.1123;
1022.4000;0.1506;-0.1075;
1022.7000;0.1522;-0.0956;
1023.0000;0.1514;-0.1004;
1023.3000;0.1498;-0.1123;
1023.6000;0.1530;-0.1099;
1023.9000;0.1498;-0.1147;
1024.2000;0.1579;-0.0956;
1024.5000;0.1498;-0.1243;
1024.8000;0.1465;-0.1219;
1025.1000;0.1563;-0.0956;
1025.4000;0.1547;-0.1028;
1025.7000;0.1530;-0.1123;
1026.0000;0.1465;-0.1243;
1026.3000;0.1628;-0.0884;
1026.6000;0.1498;-0.1266;
1026.9000;0.1506;-0.1219;
1027.2000;0.1498;-0.1195;
1027.5000;0.1449;-0.1243;
1027.8000;0.1514;-0.1147;
1028.1000;0.1506;-0.1123;
1028.4000;0.1522;-0.1099;
1028.7000;0.1506;-0.1075;
1029.0000;0.1506;-0.1123;
1029.3000;0.1530;-0.1075;
1029.6000;0.1514;-0.1099;
1029.9000;0.1522;-0.1147;
1030.2000;0.1514;-0.1123;
1030.5000;0.1538;-0.1075;
1030.8000;0.1498;-0.1195;
1031.1000;0.1522;-0.1004;
1031.4000;0.1530;-0.0980;
1031.7000;0.1514;-0.1028;
1032.0000;0.1506;-0.1123;
1032.3000;0.1522;-0.1123;
1032.6000;0.1514;-0.1123;
1032.9000;0.1490;-0.1195;
1033.2000;0.1530;-0.1051;
1033.5000;0.1498;-0.1147;
1033.8000;0.1506;-0.1171;
1034.1000;0.1538;-0.1075;
1034.4000;0.1522;-0.1075;
1034.7000;0.1506;-0.1028;
1035.0000;0.1514;-0.1075;
1035.3000;0.1498;-0.1004;
1035.6000;0.1522;-0.0956;
1035.9000;0.1514;-0.1004;
1036.2000;0.1506;-0.1004;
1036.5000;0.1530;-0.1004;
1036.8000;0.1530;-0.0980;
1037.1000;0.1506;-0.1075;
1037.4000;0.1506;-0.1075;
1037.7000;0.1498;-0.1099;
1038.0000;0.1522;-0.1051;
1038.3000;0.1522;-0.1099;
1038.6000;0.1498;-0.1243;
1038.9000;0.1490;-0.1266;
1039.2000;0.1522;-0.1195;
1039.5000;0.1490;-0.1243;
1039.8000;0.1498;-0.1219;
1040.1000;0.1530;-0.1195;
1040.4000;0.1522;-0.1219;
1040.7000;0.1498;-0.1171;
1041.0000;0.1506;-0.1219;
1041.3000;0.1547;-0.1195;
1041.6000;0.1522;-0.1171;
1041.9000;0.1522;-0.1147;
1042.2000;0.1530;-0.1099;
1042.5000;0.1490;-0.1243;
1042.8000;0.1506;-0.1171;
1043.1000;0.1538;-0.1075;
1043.4000;0.1522;-0.1099;
1043.7000;0.1522;-0.1123;
1044.0000;0.1514;-0.1123;
1044.3000;0.1514;-0.1028;
1044.6000;0.1506;-0.1004;
1044.9000;0.1506;-0.0956;
1045.2000;0.1465;-0.1075;
1045.5000;0.1514;-0.1028;
1045.8000;0.1522;-0.1075;
1046.1000;0.1506;-0.1219;
1046.4000;0.1506;-0.1219;
1046.7000;0.1530;-0.1123;
1047.0000;0.1506;-0.1123;
1047.3000;0.1538;-0.1123;
1047.6000;0.1498;-0.1266;
1047.9000;0.1506;-0.1290;
1048.2000;0.1506;-0.1219;
1048.5000;0.1506;-0.1243;
1048.8000;0.1481;-0.1195;
1049.1000;0.1522;-0.1051;
1049.4000;0.1498;-0.1171;
1049.7000;0.1506;-0.1123;
1050.0000;0.1506;-0.1123;
1050.3000;0.1457;-0.1338;
1050.6000;0.1514;-0.1219;
1050.9000;0.1498;-0.1290;
1051.2000;0.1514;-0.1219;
1051.5000;0.1514;-0.1123;
1051.8000;0.1514;-0.1123;
1052.1000;0.1514;-0.1075;
1052.4000;0.1514;-0.1195;
1052.7000;0.1506;-0.1219;
1053.0000;0.1522;-0.1004;
1053.3000;0.1530;-0.0980;
1053.6000;0.1530;-0.0860;
1053.9000;0.1465;-0.1028;
1054.2000;0.1498;-0.0980;
1054.5000;0.1506;-0.0980;
1054.8000;0.1481;-0.1004;
1055.1000;0.1506;-0.1099;
1055.4000;0.1498;-0.1219;
1055.7000;0.1481;-0.1290;
1056.0000;0.1538;-0.1147;
1056.3000;0.1555;-0.1075;
1056.6000;0.1522;-0.1075;
1056.9000;0.1530;-0.1028;
1057.2000;0.1498;-0.1075;
1057.5000;0.1571;-0.0932;
1057.8000;0.1530;-0.1004;
1058.1000;0.1514;-0.0932;
1058.4000;0.1514;-0.1004;
1058.7000;0.1514;-0.1028;
1059.0000;0.1530;-0.0980;
1059.3000;0.1522;-0.0980;
1059.6000;0.1498;-0.1028;
1059.9000;0.1490;-0.0980;
1060.2000;0.1490;-0.1004;
1060.5000;0.1514;-0.0884;
1060.8000;0.1498;-0.0932;
1061.1000;0.1547;-0.0884;
1061.4000;0.1506;-0.0980;
1061.7000;0.1506;-0.0980;
1062.0000;0.1490;-0.0980;
1062.3000;0.1514;-0.1004;
1062.6000;0.1522;-0.0956;
1062.9000;0.1498;-0.0956;
1063.2000;0.1490;-0.1028;
1063.5000;0.1498;-0.1028;
1063.8000;0.1522;-0.0956;
1064.1000;0.1506;-0.1004;
1064.4000;0.1481;-0.1075;
1064.7000;0.1547;-0.0860;
1065.0000;0.1514;-0.0908;
1065.3000;0.1465;-0.1004;
1065.6000;0.1514;-0.0932;
1065.9000;0.1481;-0.0956;
1066.2000;0.1498;-0.1028;
1066.5000;0.1433;-0.1290;
1066.8000;0.1498;-0.1075;
1067.1000;0.1498;-0.1123;
1067.4000;0.1506;-0.1075;
1067.7000;0.1433;-0.1290;
1068.0000;0.1465;-0.1147;
1068.3000;0.1506;-0.1147;
1068.6000;0.1449;-0.1290;
1068.9000;0.1384;-0.1482;
1069.2000;0.1506;-0.1147;
1069.5000;0.1514;-0.1123;
1069.8000;0.1563;-0.1075;
1070.1000;0.1538;-0.1099;
1070.4000;0.1506;-0.1171;
1070.7000;0.1506;-0.1123;
1071.0000;0.1514;-0.1243;
1071.3000;0.1514;-0.1219;
1071.6000;0.1522;-0.1171;
1071.9000;0.1490;-0.1266;
1072.2000;0.1514;-0.1243;
1072.5000;0.1498;-0.1219;
1072.8000;0.1538;-0.1099;
1073.1000;0.1473;-0.1219;
1073.4000;0.1506;-0.1195;
1073.7000;0.1522;-0.1051;
1074.0000;0.1612;-0.0812;
1074.3000;0.1490;-0.1099;
1074.6000;0.1506;-0.0980;
1074.9000;0.1473;-0.1004;
1075.2000;0.1506;-0.1099;
1075.5000;0.1530;-0.1004;
1075.8000;0.1506;-0.1075;
1076.1000;0.1514;-0.1195;
1076.4000;0.1498;-0.1243;
1076.7000;0.1498;-0.1290;
1077.0000;0.1514;-0.1290;
1077.3000;0.1514;-0.1195;
1077.6000;0.1579;-0.1051;
1077.9000;0.1506;-0.1147;
1078.2000;0.1530;-0.1147;
1078.5000;0.1555;-0.1075;
1078.8000;0.1514;-0.1195;
1079.1000;0.1490;-0.1243;
1079.4000;0.1506;-0.1266;
1079.7000;0.1514;-0.1219;
1080.0000;0.1514;-0.1243;
1080.3000;0.1514;-0.1219;
1080.6000;0.1522;-0.1219;
1080.9000;0.1506;-0.1219;
1081.2000;0.1490;-0.1195;
1081.5000;0.1514;-0.1051;
1081.8000;0.1522;-0.0956;
1082.1000;0.1514;-0.1028;
1082.4000;0.1514;-0.1004;
1082.7000;0.1514;-0.1028;
1083.0000;0.1514;-0.0980;
1083.3000;0.1481;-0.1028;
1083.6000;0.1481;-0.1099;
1083.9000;0.1506;-0.1099;
1084.2000;0.1514;-0.1099;
1084.5000;0.1506;-0.1123;
1084.8000;0.1498;-0.1099;
1085.1000;0.1522;-0.1099;
1085.4000;0.1441;-0.1219;
1085.7000;0.1522;-0.0908;
1086.0000;0.1498;-0.0980;
1086.3000;0.1514;-0.0980;
1086.6000;0.1514;-0.0932;
1086.9000;0.1384;-0.1314;
1087.2000;0.1498;-0.0956;
1087.5000;0.1481;-0.1028;
1087.8000;0.1522;-0.0980;
1088.1000;0.1522;-0.1004;
1088.4000;0.1514;-0.1075;
1088.7000;0.1522;-0.1099;
1089.0000;0.1530;-0.1099;
1089.3000;0.1514;-0.1075;
1089.6000;0.1563;-0.0956;
1089.9000;0.1587;-0.0860;
1090.2000;0.1506;-0.1051;
1090.5000;0.1481;-0.1171;
1090.8000;0.1522;-0.1075;
1091.1000;0.1506;-0.1147;
1091.4000;0.1490;-0.1195;
1091.7000;0.1514;-0.1147;
1092.0000;0.1457;-0.1243;
1092.3000;0.1522;-0.1099;
1092.6000;0.1400;-0.1482;
1092.9000;0.1514;-0.1123;
1093.2000;0.1514;-0.1123;
1093.5000;0.1449;-0.1314;
1093.8000;0.1587;-0.1004;
1094.1000;0.1465;-0.1266;
1094.4000;0.1514;-0.1147;
1094.7000;0.1579;-0.0908;
1095.0000;0.1433;-0.1362;
1095.3000;0.1506;-0.1099;
1095.6000;0.1522;-0.1123;
1095.9000;0.1522;-0.1075;
1096.2000;0.1506;-0.1075;
1096.5000;0.1506;-0.1004;
1096.8000;0.1506;-0.1004;
1097.1000;0.1587;-0.0836;
1097.4000;0.1522;-0.1099;
1097.7000;0.1449;-0.1266;
1098.0000;0.1490;-0.1099;
1098.3000;0.1514;-0.1075;
1098.6000;0.1522;-0.1075;
1098.9000;0.1612;-0.0765;
1099.2000;0.1473;-0.1099;
1099.5000;0.1522;-0.1028;
1099.8000;0.1530;-0.0956;
1100.1000;0.1522;-0.0932;
1100.4000;0.1498;-0.1099;
1100.7000;0.1441;-0.1266;
1101.0000;0.1530;-0.1051;
1101.3000;0.1604;-0.0789;
1101.6000;0.1514;-0.1075;
1101.9000;0.1457;-0.1266;
1102.2000;0.1522;-0.1123;
1102.5000;0.1498;-0.1123;
1102.8000;0.1498;-0.1004;
1103.1000;0.1514;-0.0956;
1103.4000;0.1530;-0.0908;
1103.7000;0.1522;-0.1004;
1104.0000;0.1530;-0.0956;
1104.3000;0.1522;-0.0932;
1104.6000;0.1522;-0.0932;
1104.9000;0.1498;-0.1051;
1105.2000;0.1522;-0.1171;
1105.5000;0.1498;-0.1338;
1105.8000;0.1506;-0.1290;
1106.1000;0.1522;-0.1219;
1106.4000;0.1522;-0.1219;
1106.7000;0.1530;-0.1171;
1107.0000;0.1514;-0.1123;
1107.3000;0.1522;-0.1099;
1107.6000;0.1498;-0.1219;
1107.9000;0.1514;-0.1195;
1108.2000;0.1490;-0.1338;
1108.5000;0.1498;-0.1386;
1108.8000;0.1514;-0.1338;
1109.1000;0.1514;-0.1314;
1109.4000;0.1498;-0.1243;
1109.7000;0.1506;-0.1219;
1110.0000;0.1506;-0.1243;
1110.3000;0.1514;-0.1243;
1110.6000;0.1514;-0.1195;
1110.9000;0.1481;-0.1290;
1111.2000;0.1514;-0.1243;
1111.5000;0.1522;-0.1195;
1111.8000;0.1498;-0.1314;
1112.1000;0.1538;-0.1243;
1112.4000;0.1522;-0.1243;
1112.7000;0.1555;-0.1099;
1113.0000;0.1498;-0.1123;
1113.3000;0.1433;-0.1362;
1113.6000;0.1514;-0.1195;
1113.9000;0.1506;-0.1171;
1114.2000;0.1490;-0.1219;
1114.5000;0.1425;-0.1386;
1114.8000;0.1498;-0.1243;
1115.1000;0.1571;-0.0908;
1115.4000;0.1506;-0.1099;
1115.7000;0.1498;-0.1051;
1116.0000;0.1368;-0.1314;
1116.3000;0.1530;-0.1028;
1116.6000;0.1538;-0.0980;
1116.9000;0.1530;-0.1051;
1117.2000;0.1416;-0.1386;
1117.5000;0.1506;-0.1147;
1117.8000;0.1506;-0.1123;
1118.1000;0.1514;-0.1123;
1118.4000;0.1530;-0.1099;
1118.7000;0.1538;-0.0956;
1119.0000;0.1514;-0.1028;
1119.3000;0.1530;-0.1028;
1119.6000;0.1506;-0.1147;
1119.9000;0.1498;-0.1147;
1120.2000;0.1514;-0.1195;
1120.5000;0.1514;-0.1266;
1120.8000;0.1514;-0.1266;
1121.1000;0.1481;-0.1314;
1121.4000;0.1490;-0.1338;
1121.7000;0.1522;-0.1219;
1122.0000;0.1547;-0.1195;
1122.3000;0.1522;-0.1290;
1122.6000;0.1547;-0.1219;
1122.9000;0.1522;-0.1243;
1123.2000;0.1522;-0.1243;
1123.5000;0.1506;-0.1266;
1123.8000;0.1498;-0.1266;
1124.1000;0.1514;-0.1243;
1124.4000;0.1530;-0.1219;
1124.7000;0.1506;-0.1266;
1125.0000;0.1506;-0.1266;
1125.3000;0.1506;-0.1195;
1125.6000;0.1490;-0.1219;
1125.9000;0.1530;-0.1075;
1126.2000;0.1530;-0.1171;
1126.5000;0.1490;-0.1338;
1126.8000;0.1530;-0.1219;
1127.1000;0.1498;-0.1362;
1127.4000;0.1465;-0.1505;
1127.7000;0.1522;-0.1362;
1128.0000;0.1498;-0.1386;
1128.3000;0.1498;-0.1386;
1128.6000;0.1506;-0.1314;
1128.9000;0.1522;-0.1243;
1129.2000;0.1506;-0.1290;
1129.5000;0.1530;-0.1266;
1129.8000;0.1506;-0.1290;
1130.1000;0.1514;-0.1219;
1130.4000;0.1538;-0.1219;
1130.7000;0.1498;-0.1338;
1131.0000;0.1522;-0.1123;
1131.3000;0.1449;-0.1314;
1131.6000;0.1506;-0.1266;
1131.9000;0.1522;-0.1243;
1132.2000;0.1481;-0.1386;
1132.5000;0.1506;-0.1290;
1132.8000;0.1506;-0.1266;
1133.1000;0.1506;-0.1171;
1133.4000;0.1514;-0.1195;
1133.7000;0.1530;-0.1195;
1134.0000;0.1522;-0.1195;
1134.3000;0.1514;-0.1219;
1134.6000;0.1522;-0.1147;
1134.9000;0.1473;-0.1290;
1135.2000;0.1530;-0.1171;
1135.5000;0.1514;-0.1147;
1135.8000;0.1579;-0.1051;
1136.1000;0.1481;-0.1290;
1136.4000;0.1522;-0.1195;
1136.7000;0.1498;-0.1290;
1137.0000;0.1522;-0.1266;
1137.3000;0.1514;-0.1362;
1137.6000;0.1538;-0.1195;
1137.9000;0.1514;-0.1290;
1138.2000;0.1506;-0.1243;
1138.5000;0.1522;-0.1147;
1138.8000;0.1530;-0.1147;
1139.1000;0.1457;-0.1410;
1139.4000;0.1498;-0.1314;
1139.7000;0.1547;-0.1123;
1140.0000;0.1506;-0.1362;
1140.3000;0.1433;-0.1410;
1140.6000;0.1457;-0.1243;
1140.9000;0.1506;-0.1123;
1141.2000;0.1538;-0.1147;
1141.5000;0.1514;-0.1266;
1141.8000;0.1522;-0.1219;
1142.1000;0.1514;-0.1266;
1142.4000;0.1547;-0.1314;
1142.7000;0.1490;-0.1410;
1143.0000;0.1587;-0.1051;
1143.3000;0.1465;-0.1266;
1143.6000;0.1506;-0.1147;
1143.9000;0.1465;-0.1075;
1144.2000;0.1490;-0.0980;
1144.5000;0.1473;-0.1147;
1144.8000;0.1506;-0.1099;
1145.1000;0.1514;-0.1123;
1145.4000;0.1620;-0.0789;
1145.7000;0.1506;-0.1075;
1146.0000;0.1522;-0.1123;
1146.3000;0.1514;-0.1243;
1146.6000;0.1514;-0.1195;
1146.9000;0.1506;-0.1195;
1147.2000;0.1522;-0.1051;
1147.5000;0.1498;-0.1075;
1147.8000;0.1473;-0.1028;
1148.1000;0.1522;-0.1004;
1148.4000;0.1514;-0.1051;
1148.7000;0.1506;-0.1195;
1149.0000;0.1506;-0.1266;
1149.3000;0.1465;-0.1314;
1149.6000;0.1481;-0.1290;
1149.9000;0.1522;-0.1195;
1150.2000;0.1530;-0.1219;
1150.5000;0.1506;-0.1266;
1150.8000;0.1530;-0.1314;
1151.1000;0.1481;-0.1434;
1151.4000;0.1514;-0.1314;
1151.7000;0.1498;-0.1290;
1152.0000;0.1498;-0.1243;
1152.3000;0.1473;-0.1219;
1152.6000;0.1514;-0.1123;
1152.9000;0.1595;-0.0908;
1153.2000;0.1530;-0.1028;
1153.5000;0.1506;-0.1099;
1153.8000;0.1425;-0.1362;
1154.1000;0.1555;-0.1004;
1154.4000;0.1506;-0.1123;
1154.7000;0.1571;-0.0980;
1155.0000;0.1530;-0.0932;
1155.3000;0.1514;-0.0956;
1155.6000;0.1506;-0.1075;
1155.9000;0.1465;-0.1219;
1156.2000;0.1498;-0.1051;
1156.5000;0.1506;-0.1075;
1156.8000;0.1498;-0.1051;
1157.1000;0.1522;-0.1028;
1157.4000;0.1498;-0.1051;
1157.7000;0.1481;-0.1075;
1158.0000;0.1530;-0.0956;
1158.3000;0.1514;-0.1004;
1158.6000;0.1522;-0.1028;
1158.9000;0.1514;-0.1004;
1159.2000;0.1498;-0.1051;
1159.5000;0.1490;-0.1051;
1159.8000;0.1538;-0.0956;
1160.1000;0.1522;-0.0932;
1160.4000;0.1506;-0.1028;
1160.7000;0.1522;-0.0980;
1161.0000;0.1530;-0.0884;
1161.3000;0.1490;-0.1004;
1161.6000;0.1522;-0.0860;
1161.9000;0.1408;-0.1195;
1162.2000;0.1506;-0.0932;
1162.5000;0.1514;-0.0932;
1162.8000;0.1514;-0.1051;
1163.1000;0.1595;-0.0908;
1163.4000;0.1514;-0.1123;
1163.7000;0.1490;-0.1290;
1164.0000;0.1473;-0.1266;
1164.3000;0.1530;-0.1099;
1164.6000;0.1506;-0.1195;
1164.9000;0.1506;-0.1147;
1165.2000;0.1547;-0.1075;
1165.5000;0.1522;-0.1099;
1165.8000;0.1506;-0.1123;
1166.1000;0.1538;-0.1075;
1166.4000;0.1514;-0.1147;
1166.7000;0.1587;-0.0932;
1167.0000;0.1514;-0.1219;
1167.3000;0.1514;-0.1266;
1167.6000;0.1514;-0.1219;
1167.9000;0.1490;-0.1243;
1168.2000;0.1498;-0.1147;
1168.5000;0.1514;-0.1099;
1168.8000;0.1506;-0.1028;
1169.1000;0.1563;-0.0980;
1169.4000;0.1530;-0.1051;
1169.7000;0.1514;-0.1051;
1170.0000;0.1579;-0.0956;
1170.3000;0.1506;-0.1171;
1170.6000;0.1506;-0.1219;
1170.9000;0.1359;-0.1577;
1171.2000;0.1498;-0.1171;
1171.5000;0.1514;-0.1147;
1171.8000;0.1514;-0.1123;
1172.1000;0.1538;-0.1075;
1172.4000;0.1481;-0.1195;
1172.7000;0.1473;-0.1171;
1173.0000;0.1522;-0.1099;
1173.3000;0.1506;-0.1195;
1173.6000;0.1514;-0.1243;
1173.9000;0.1522;-0.1290;
1174.2000;0.1522;-0.1314;
1174.5000;0.1506;-0.1362;
1174.8000;0.1498;-0.1290;
1175.1000;0.1481;-0.1290;
1175.4000;0.1473;-0.1290;
1175.7000;0.1538;-0.1075;
1176.0000;0.1555;-0.1147;
1176.3000;0.1514;-0.1243;
1176.6000;0.1547;-0.1051;
1176.9000;0.1587;-0.0884;
1177.2000;0.1522;-0.1051;
1177.5000;0.1514;-0.1075;
1177.8000;0.1522;-0.1147;
1178.1000;0.1465;-0.1338;
1178.4000;0.1579;-0.0980;
1178.7000;0.1514;-0.1075;
1179.0000;0.1514;-0.1028;
1179.3000;0.1481;-0.1004;
1179.6000;0.1514;-0.0980;
1179.9000;0.1506;-0.1099;
1180.2000;0.1514;-0.1147;
1180.5000;0.1498;-0.1219;
1180.8000;0.1514;-0.1290;
1181.1000;0.1506;-0.1243;
1181.4000;0.1587;-0.1051;
1181.7000;0.1522;-0.1171;
1182.0000;0.1514;-0.1219;
1182.3000;0.1514;-0.1099;
1182.6000;0.1465;-0.1290;
1182.9000;0.1506;-0.1123;
1183.2000;0.1530;-0.1123;
1183.5000;0.1522;-0.1147;
1183.8000;0.1506;-0.1171;
1184.1000;0.1514;-0.1219;
1184.4000;0.1514;-0.1219;
1184.7000;0.1514;-0.1123;
1185.0000;0.1514;-0.1123;
1185.3000;0.1498;-0.1147;
1185.6000;0.1506;-0.1051;
1185.9000;0.1408;-0.1290;
1186.2000;0.1522;-0.1004;
1186.5000;0.1522;-0.1004;
1186.8000;0.1579;-0.0932;
1187.1000;0.1522;-0.1123;
1187.4000;0.1514;-0.1075;
1187.7000;0.1514;-0.1147;
1188.0000;0.1473;-0.1219;
1188.3000;0.1498;-0.1075;
1188.6000;0.1506;-0.1075;
1188.9000;0.1514;-0.1028;
1189.2000;0.1522;-0.1099;
1189.5000;0.1498;-0.1195;
1189.8000;0.1522;-0.1147;
1190.1000;0.1514;-0.1123;
1190.4000;0.1514;-0.1051;
1190.7000;0.1506;-0.1099;
1191.0000;0.1506;-0.1004;
1191.3000;0.1530;-0.1051;
1191.6000;0.1506;-0.1075;
1191.9000;0.1514;-0.1099;
1192.2000;0.1490;-0.1147;
1192.5000;0.1522;-0.1123;
1192.8000;0.1514;-0.1219;
1193.1000;0.1449;-0.1386;
1193.4000;0.1514;-0.1147;
1193.7000;0.1490;-0.1290;
1194.0000;0.1449;-0.1362;
1194.3000;0.1530;-0.1219;
1194.6000;0.1514;-0.1195;
1194.9000;0.1587;-0.0932;
1195.2000;0.1514;-0.1051;
1195.5000;0.1449;-0.1195;
1195.8000;0.1506;-0.1004;
1196.1000;0.1506;-0.1004;
1196.4000;0.1506;-0.1075;
1196.7000;0.1506;-0.1075;
1197.0000;0.1522;-0.1051;
1197.3000;0.1506;-0.1004;
1197.6000;0.1514;-0.0980;
1197.9000;0.1530;-0.0980;
1198.2000;0.1490;-0.1075;
1198.5000;0.1506;-0.0980;
1198.8000;0.1514;-0.0956;
1199.1000;0.1530;-0.1099;
1199.4000;0.1506;-0.1195;
1199.7000;0.1506;-0.1195;
1200.0000;0.1514;-0.1171;
1200.3000;0.1506;-0.1243;
1200.6000;0.1506;-0.1266;
1200.9000;0.1481;-0.1434;
1201.2000;0.1490;-0.1505;
1201.5000;0.1481;-0.1482;
1201.8000;0.1506;-0.1362;
1202.1000;0.1522;-0.1314;
1202.4000;0.1465;-0.1458;
1202.7000;0.1514;-0.1362;
1203.0000;0.1514;-0.1338;
1203.3000;0.1514;-0.1314;
1203.6000;0.1506;-0.1266;
1203.9000;0.1473;-0.1386;
1204.2000;0.1498;-0.1243;
1204.5000;0.1514;-0.1195;
1204.8000;0.1538;-0.1099;
1205.1000;0.1514;-0.1123;
1205.4000;0.1506;-0.1099;
1205.7000;0.1506;-0.1051;
1206.0000;0.1522;-0.1051;
1206.3000;0.1555;-0.0956;
1206.6000;0.1563;-0.0908;
1206.9000;0.1506;-0.0980;
1207.2000;0.1522;-0.0908;
1207.5000;0.1595;-0.0693;
1207.8000;0.1506;-0.0908;
1208.1000;0.1522;-0.0932;
1208.4000;0.1498;-0.1004;
1208.7000;0.1416;-0.1314;
1209.0000;0.1481;-0.1075;
1209.3000;0.1555;-0.0908;
1209.6000;0.1441;-0.1219;
1209.9000;0.1636;-0.0741;
1210.2000;0.1522;-0.0980;
1210.5000;0.1514;-0.1004;
1210.8000;0.1636;-0.0741;
1211.1000;0.1498;-0.1195;
1211.4000;0.1579;-0.1004;
1211.7000;0.1498;-0.1266;
1212.0000;0.1498;-0.1266;
1212.3000;0.1506;-0.1123;
1212.6000;0.1522;-0.1099;
1212.9000;0.1522;-0.1051;
1213.2000;0.1636;-0.0717;
1213.5000;0.1595;-0.0812;
1213.8000;0.1498;-0.1004;
1214.1000;0.1530;-0.0956;
1214.4000;0.1514;-0.1028;
1214.7000;0.1506;-0.1099;
1215.0000;0.1514;-0.1123;
1215.3000;0.1506;-0.1147;
1215.6000;0.1490;-0.1243;
1215.9000;0.1563;-0.1004;
1216.2000;0.1522;-0.1075;
1216.5000;0.1620;-0.0812;
1216.8000;0.1514;-0.1075;
1217.1000;0.1514;-0.1051;
1217.4000;0.1530;-0.1004;
1217.7000;0.1547;-0.0908;
1218.0000;0.1384;-0.1386;
1218.3000;0.1522;-0.1004;
1218.6000;0.1457;-0.1123;
1218.9000;0.1628;-0.0693;
1219.2000;0.1522;-0.0956;
1219.5000;0.1514;-0.0956;
1219.8000;0.1506;-0.0932;
1220.1000;0.1506;-0.0884;
1220.4000;0.1538;-0.0789;
1220.7000;0.1490;-0.0932;
1221.0000;0.1490;-0.1004;
1221.3000;0.1530;-0.0884;
1221.6000;0.1490;-0.0908;
1221.9000;0.1441;-0.1195;
1222.2000;0.1506;-0.1075;
1222.5000;0.1506;-0.1075;
1222.8000;0.1530;-0.1028;
1223.1000;0.1506;-0.1075;
1223.4000;0.1579;-0.0765;
1223.7000;0.1563;-0.0812;
1224.0000;0.1514;-0.0932;
1224.3000;0.1522;-0.0860;
1224.6000;0.1514;-0.0884;
1224.9000;0.1555;-0.0836;
1225.2000;0.1522;-0.0908;
1225.5000;0.1514;-0.0932;
1225.8000;0.1530;-0.0932;
1226.1000;0.1514;-0.0908;
1226.4000;0.1547;-0.0789;
1226.7000;0.1538;-0.0860;
1227.0000;0.1498;-0.0884;
1227.3000;0.1481;-0.0908;
1227.6000;0.1522;-0.0812;
1227.9000;0.1506;-0.0765;
1228.2000;0.1522;-0.0812;
1228.5000;0.1571;-0.0717;
1228.8000;0.1514;-0.0932;
1229.1000;0.1433;-0.1243;
1229.4000;0.1522;-0.1051;
1229.7000;0.1538;-0.1051;
1230.0000;0.1473;-0.1147;
1230.3000;0.1514;-0.1004;
1230.6000;0.1457;-0.1195;
1230.9000;0.1522;-0.0980;
1231.2000;0.1465;-0.1099;
1231.5000;0.1538;-0.0932;
1231.8000;0.1530;-0.0932;
1232.1000;0.1620;-0.0741;
1232.4000;0.1506;-0.1004;
1232.7000;0.1587;-0.0812;
1233.0000;0.1522;-0.0932;
1233.3000;0.1498;-0.1028;
1233.6000;0.1595;-0.0789;
1233.9000;0.1595;-0.0693;
1234.2000;0.1490;-0.1004;
1234.5000;0.1522;-0.0908;
1234.8000;0.1408;-0.1171;
1235.1000;0.1530;-0.0860;
1235.4000;0.1530;-0.0860;
1235.7000;0.1522;-0.0860;
1236.0000;0.1449;-0.1075;
1236.3000;0.1514;-0.0836;
1236.6000;0.1538;-0.0741;
1236.9000;0.1506;-0.0812;
1237.2000;0.1498;-0.0836;
1237.5000;0.1498;-0.0932;
1237.8000;0.1498;-0.1028;
1238.1000;0.1400;-0.1362;
1238.4000;0.1400;-0.1338;
1238.7000;0.1481;-0.1147;
1239.0000;0.1425;-0.1266;
1239.3000;0.1514;-0.1195;
1239.6000;0.1498;-0.1338;
1239.9000;0.1514;-0.1338;
1240.2000;0.1538;-0.1290;
1240.5000;0.1473;-0.1553;
1240.8000;0.1538;-0.1338;
1241.1000;0.1449;-0.1577;
1241.4000;0.1595;-0.1266;
1241.7000;0.1530;-0.1338;
1242.0000;0.1530;-0.1362;
1242.3000;0.1514;-0.1338;
1242.6000;0.1506;-0.1362;
1242.9000;0.1530;-0.1195;
1243.2000;0.1530;-0.1195;
1243.5000;0.1498;-0.1338;
1243.8000;0.1498;-0.1386;
1244.1000;0.1514;-0.1266;
1244.4000;0.1514;-0.1338;
1244.7000;0.1506;-0.1338;
1245.0000;0.1457;-0.1410;
1245.3000;0.1530;-0.1314;
1245.6000;0.1514;-0.1314;
1245.9000;0.1547;-0.1266;
1246.2000;0.1514;-0.1314;
1246.5000;0.1498;-0.1266;
1246.8000;0.1490;-0.1266;
1247.1000;0.1514;-0.1123;
1247.4000;0.1473;-0.1338;
1247.7000;0.1514;-0.1243;
1248.0000;0.1538;-0.1123;
1248.3000;0.1506;-0.1171;
1248.6000;0.1506;-0.1075;
1248.9000;0.1514;-0.1123;
1249.2000;0.1384;-0.1482;
1249.5000;0.1522;-0.1243;
1249.8000;0.1530;-0.1266;
1250.1000;0.1506;-0.1314;
1250.4000;0.1530;-0.1099;
1250.7000;0.1604;-0.0884;
1251.0000;0.1522;-0.1028;
1251.3000;0.1538;-0.1051;
1251.6000;0.1490;-0.1243;
1251.9000;0.1514;-0.1243;
1252.2000;0.1473;-0.1338;
1252.5000;0.1490;-0.1266;
1252.8000;0.1506;-0.1195;
1253.1000;0.1538;-0.1099;
1253.4000;0.1538;-0.1075;
1253.7000;0.1457;-0.1314;
1254.0000;0.1457;-0.1434;
1254.3000;0.1530;-0.1171;
1254.6000;0.1579;-0.1004;
1254.9000;0.1538;-0.1147;
1255.2000;0.1587;-0.1004;
1255.5000;0.1506;-0.1171;
1255.8000;0.1579;-0.0932;
1256.1000;0.1514;-0.1075;
1256.4000;0.1506;-0.1099;
1256.7000;0.1530;-0.0980;
1257.0000;0.1441;-0.1147;
1257.3000;0.1530;-0.0812;
1257.6000;0.1473;-0.0956;
1257.9000;0.1514;-0.0884;
1258.2000;0.1563;-0.0765;
1258.5000;0.1522;-0.0884;
1258.8000;0.1498;-0.0956;
1259.1000;0.1514;-0.0884;
1259.4000;0.1514;-0.0836;
1259.7000;0.1514;-0.0860;
1260.0000;0.1538;-0.0836;
1260.3000;0.1514;-0.0956;
1260.6000;0.1506;-0.1051;
1260.9000;0.1498;-0.1075;
1261.2000;0.1506;-0.1075;
1261.5000;0.1498;-0.1123;
1261.8000;0.1522;-0.1147;
1262.1000;0.1514;-0.1219;
1262.4000;0.1514;-0.1171;
1262.7000;0.1522;-0.1123;
1263.0000;0.1514;-0.1099;
1263.3000;0.1522;-0.1075;
1263.6000;0.1514;-0.1075;
1263.9000;0.1538;-0.1028;
1264.2000;0.1530;-0.1099;
1264.5000;0.1506;-0.1028;
1264.8000;0.1530;-0.1004;
1265.1000;0.1498;-0.1051;
1265.4000;0.1514;-0.1075;
1265.7000;0.1522;-0.1004;
1266.0000;0.1530;-0.0932;
1266.3000;0.1514;-0.0980;
1266.6000;0.1506;-0.1099;
1266.9000;0.1514;-0.1075;
1267.2000;0.1538;-0.1099;
1267.5000;0.1522;-0.1195;
1267.8000;0.1514;-0.1195;
1268.1000;0.1514;-0.1171;
1268.4000;0.1514;-0.1099;
1268.7000;0.1522;-0.1099;
1269.0000;0.1490;-0.1123;
1269.3000;0.1538;-0.1028;
1269.6000;0.1506;-0.1004;
1269.9000;0.1514;-0.0980;
1270.2000;0.1522;-0.1028;
1270.5000;0.1498;-0.1099;
1270.8000;0.1514;-0.1099;
1271.1000;0.1522;-0.1028;
1271.4000;0.1506;-0.1123;
1271.7000;0.1514;-0.1195;
1272.0000;0.1555;-0.1075;
1272.3000;0.1620;-0.0860;
1272.6000;0.1522;-0.1147;
1272.9000;0.1530;-0.1051;
1273.2000;0.1408;-0.1290;
1273.5000;0.1522;-0.1099;
1273.8000;0.1538;-0.1171;
1274.1000;0.1498;-0.1266;
1274.4000;0.1522;-0.1171;
1274.7000;0.1490;-0.1290;
1275.0000;0.1514;-0.1338;
1275.3000;0.1522;-0.1410;
1275.6000;0.1498;-0.1482;
1275.9000;0.1481;-0.1434;
1276.2000;0.1538;-0.1266;
1276.5000;0.1563;-0.1147;
1276.8000;0.1490;-0.1314;
1277.1000;0.1514;-0.1219;
1277.4000;0.1506;-0.1147;
1277.7000;0.1514;-0.1123;
1278.0000;0.1514;-0.1147;
1278.3000;0.1498;-0.1290;
1278.6000;0.1506;-0.1314;
1278.9000;0.1506;-0.1362;
1279.2000;0.1506;-0.1266;
1279.5000;0.1514;-0.1243;
1279.8000;0.1514;-0.1219;
1280.1000;0.1506;-0.1219;
1280.4000;0.1506;-0.1243;
1280.7000;0.1498;-0.1243;
1281.0000;0.1514;-0.1195;
1281.3000;0.1522;-0.1147;
1281.6000;0.1514;-0.1099;
1281.9000;0.1530;-0.1028;
1282.2000;0.1490;-0.1147;
1282.5000;0.1473;-0.1195;
1282.8000;0.1506;-0.1195;
1283.1000;0.1514;-0.1123;
1283.4000;0.1579;-0.0884;
1283.7000;0.1514;-0.1004;
1284.0000;0.1490;-0.1028;
1284.3000;0.1506;-0.1004;
1284.6000;0.1514;-0.1028;
1284.9000;0.1506;-0.1004;
1285.2000;0.1498;-0.1099;
1285.5000;0.1522;-0.1051;
1285.8000;0.1538;-0.0956;
1286.1000;0.1449;-0.1266;
1286.4000;0.1506;-0.1195;
1286.7000;0.1498;-0.1243;
1287.0000;0.1514;-0.1099;
1287.3000;0.1490;-0.1123;
1287.6000;0.1473;-0.1195;
1287.9000;0.1490;-0.1123;
1288.2000;0.1506;-0.1123;
1288.5000;0.1522;-0.1028;
1288.8000;0.1522;-0.1004;
1289.1000;0.1506;-0.1075;
1289.4000;0.1522;-0.0956;
1289.7000;0.1530;-0.0932;
1290.0000;0.1498;-0.0980;
1290.3000;0.1498;-0.1004;
1290.6000;0.1530;-0.0908;
1290.9000;0.1514;-0.0956;
1291.2000;0.1522;-0.0908;
1291.5000;0.1481;-0.1075;
1291.8000;0.1506;-0.1075;
1292.1000;0.1514;-0.1051;
1292.4000;0.1490;-0.1099;
1292.7000;0.1498;-0.1195;
1293.0000;0.1506;-0.1195;
1293.3000;0.1571;-0.1075;
1293.6000;0.1498;-0.1362;
1293.9000;0.1498;-0.1338;
1294.2000;0.1530;-0.1171;
1294.5000;0.1530;-0.1195;
1294.8000;0.1522;-0.1195;
1295.1000;0.1522;-0.1195;
1295.4000;0.1620;-0.0980;
1295.7000;0.1514;-0.1266;
1296.0000;0.1522;-0.1243;
1296.3000;0.1522;-0.1290;
1296.6000;0.1498;-0.1266;
1296.9000;0.1530;-0.1219;
1297.2000;0.1514;-0.1314;
1297.5000;0.1579;-0.1099;
1297.8000;0.1473;-0.1410;
1298.1000;0.1522;-0.1266;
1298.4000;0.1514;-0.1266;
1298.7000;0.1465;-0.1386;
1299.0000;0.1514;-0.1243;
1299.3000;0.1522;-0.1314;
1299.6000;0.1522;-0.1243;
1299.9000;0.1563;-0.1147;
1300.2000;0.1522;-0.1195;
1300.5000;0.1547;-0.1075;
1300.8000;0.1628;-0.0765;
1301.1000;0.1522;-0.1051;
1301.4000;0.1465;-0.1219;
1301.7000;0.1473;-0.1219;
1302.0000;0.1506;-0.1147;
1302.3000;0.1514;-0.1075;
1302.6000;0.1547;-0.0932;
1302.9000;0.1506;-0.0956;
1303.2000;0.1530;-0.0980;
1303.5000;0.1530;-0.1075;
1303.8000;0.1555;-0.1099;
1304.1000;0.1547;-0.1099;
1304.4000;0.1498;-0.1219;
1304.7000;0.1506;-0.1195;
1305.0000;0.1506;-0.1195;
1305.3000;0.1506;-0.1123;
1305.6000;0.1522;-0.1051;
1305.9000;0.1522;-0.1075;
1306.2000;0.1522;-0.1075;
1306.5000;0.1547;-0.1051;
1306.8000;0.1604;-0.0932;
1307.1000;0.1506;-0.1195;
1307.4000;0.1514;-0.1099;
1307.7000;0.1604;-0.0884;
1308.0000;0.1490;-0.1171;
1308.3000;0.1481;-0.1290;
1308.6000;0.1506;-0.1243;
1308.9000;0.1530;-0.1219;
1309.2000;0.1522;-0.1243;
1309.5000;0.1547;-0.1219;
1309.8000;0.1514;-0.1314;
1310.1000;0.1604;-0.0956;
1310.4000;0.1490;-0.1266;
1310.7000;0.1522;-0.1171;
1311.0000;0.1522;-0.1171;
1311.3000;0.1506;-0.1171;
1311.6000;0.1506;-0.1171;
1311.9000;0.1490;-0.1219;
1312.2000;0.1506;-0.1171;
1312.5000;0.1514;-0.1171;
1312.8000;0.1514;-0.1147;
1313.1000;0.1506;-0.1099;
1313.4000;0.1522;-0.0956;
1313.7000;0.1514;-0.1004;
1314.0000;0.1522;-0.1075;
1314.3000;0.1514;-0.1123;
1314.6000;0.1514;-0.1123;
1314.9000;0.1514;-0.1099;
1315.2000;0.1530;-0.0980;
1315.5000;0.1522;-0.1075;
1315.8000;0.1506;-0.1147;
1316.1000;0.1506;-0.1099;
1316.4000;0.1522;-0.1123;
1316.7000;0.1481;-0.1219;
1317.0000;0.1522;-0.1195;
1317.3000;0.1506;-0.1219;
1317.6000;0.1530;-0.1147;
1317.9000;0.1530;-0.1123;
1318.2000;0.1514;-0.1147;
1318.5000;0.1530;-0.1171;
1318.8000;0.1433;-0.1410;
1319.1000;0.1506;-0.1266;
1319.4000;0.1481;-0.1338;
1319.7000;0.1498;-0.1290;
1320.0000;0.1514;-0.1243;
1320.3000;0.1498;-0.1290;
1320.6000;0.1481;-0.1290;
1320.9000;0.1514;-0.1123;
1321.2000;0.1514;-0.1195;
1321.5000;0.1514;-0.1243;
1321.8000;0.1530;-0.1195;
1322.1000;0.1530;-0.1338;
1322.4000;0.1506;-0.1338;
1322.7000;0.1465;-0.1434;
1323.0000;0.1522;-0.1147;
1323.3000;0.1538;-0.1028;
1323.6000;0.1612;-0.0789;
1323.9000;0.1514;-0.1075;
1324.2000;0.1506;-0.1195;
1324.5000;0.1506;-0.1195;
1324.8000;0.1514;-0.1266;
1325.1000;0.1506;-0.1266;
1325.4000;0.1522;-0.1266;
1325.7000;0.1571;-0.1099;
1326.0000;0.1514;-0.1219;
1326.3000;0.1498;-0.1266;
1326.6000;0.1587;-0.1099;
1326.9000;0.1522;-0.1266;
1327.2000;0.1636;-0.0812;
1327.5000;0.1522;-0.1243;
1327.8000;0.1555;-0.1123;
1328.1000;0.1636;-0.0860;
1328.4000;0.1498;-0.1266;
1328.7000;0.1441;-0.1505;
1329.0000;0.1514;-0.1314;
1329.3000;0.1473;-0.1386;
1329.6000;0.1506;-0.1314;
1329.9000;0.1555;-0.1219;
1330.2000;0.1514;-0.1290;
1330.5000;0.1522;-0.1314;
1330.8000;0.1538;-0.1338;
1331.1000;0.1538;-0.1386;
1331.4000;0.1563;-0.1314;
1331.7000;0.1457;-0.1553;
1332.0000;0.1579;-0.1171;
1332.3000;0.1522;-0.1338;
1332.6000;0.1514;-0.1410;
1332.9000;0.1530;-0.1338;
1333.2000;0.1522;-0.1314;
1333.5000;0.1530;-0.1338;
1333.8000;0.1522;-0.1338;
1334.1000;0.1481;-0.1410;
1334.4000;0.1530;-0.1195;
1334.7000;0.1514;-0.1266;
1335.0000;0.1506;-0.1219;
1335.3000;0.1522;-0.1266;
1335.6000;0.1498;-0.1290;
1335.9000;0.1514;-0.1219;
1336.2000;0.1514;-0.1195;
1336.5000;0.1481;-0.1243;
1336.8000;0.1522;-0.1123;
1337.1000;0.1498;-0.1171;
1337.4000;0.1514;-0.1099;
1337.7000;0.1530;-0.1195;
1338.0000;0.1514;-0.1266;
1338.3000;0.1514;-0.1123;
1338.6000;0.1547;-0.0956;
1338.9000;0.1538;-0.1123;
1339.2000;0.1506;-0.1171;
1339.5000;0.1490;-0.1266;
1339.8000;0.1530;-0.1171;
1340.1000;0.1530;-0.1123;
1340.4000;0.1571;-0.0932;
1340.7000;0.1514;-0.0956;
1341.0000;0.1498;-0.1028;
1341.3000;0.1506;-0.1051;
1341.6000;0.1490;-0.1028;
1341.9000;0.1530;-0.0908;
1342.2000;0.1522;-0.1051;
1342.5000;0.1498;-0.1051;
1342.8000;0.1506;-0.1051;
1343.1000;0.1490;-0.1051;
1343.4000;0.1522;-0.1051;
1343.7000;0.1522;-0.1075;
1344.0000;0.1506;-0.1123;
1344.3000;0.1514;-0.1123;
1344.6000;0.1547;-0.1123;
1344.9000;0.1538;-0.1171;
1345.2000;0.1538;-0.1028;
1345.5000;0.1498;-0.1171;
1345.8000;0.1514;-0.1123;
1346.1000;0.1506;-0.1243;
1346.4000;0.1490;-0.1195;
1346.7000;0.1490;-0.1171;
1347.0000;0.1506;-0.1219;
1347.3000;0.1490;-0.1219;
1347.6000;0.1441;-0.1338;
1347.9000;0.1457;-0.1290;
1348.2000;0.1530;-0.1075;
1348.5000;0.1530;-0.0980;
1348.8000;0.1571;-0.0836;
1349.1000;0.1514;-0.0980;
1349.4000;0.1530;-0.0932;
1349.7000;0.1555;-0.0884;
1350.0000;0.1506;-0.1028;
1350.3000;0.1506;-0.0980;
1350.6000;0.1547;-0.0860;
1350.9000;0.1457;-0.1028;
1351.2000;0.1522;-0.0884;
1351.5000;0.1514;-0.0908;
1351.8000;0.1538;-0.0884;
1352.1000;0.1530;-0.1004;
1352.4000;0.1498;-0.1028;
1352.7000;0.1498;-0.0932;
1353.0000;0.1506;-0.0956;
1353.3000;0.1514;-0.0908;
1353.6000;0.1522;-0.0884;
1353.9000;0.1530;-0.0884;
1354.2000;0.1514;-0.0932;
1354.5000;0.1514;-0.0932;
1354.8000;0.1506;-0.0908;
1355.1000;0.1506;-0.0860;
1355.4000;0.1530;-0.0717;
1355.7000;0.1530;-0.0741;
1356.0000;0.1465;-0.0908;
1356.3000;0.1538;-0.0765;
1356.6000;0.1506;-0.0836;
1356.9000;0.1490;-0.0908;
1357.2000;0.1514;-0.0884;
1357.5000;0.1490;-0.0860;
1357.8000;0.1514;-0.0860;
1358.1000;0.1563;-0.0717;
1358.4000;0.1498;-0.0908;
1358.7000;0.1498;-0.0956;
1359.0000;0.1506;-0.0908;
1359.3000;0.1514;-0.0908;
1359.6000;0.1490;-0.0860;
1359.9000;0.1490;-0.0860;
1360.2000;0.1538;-0.0860;
1360.5000;0.1547;-0.0956;
1360.8000;0.1530;-0.0932;
1361.1000;0.1490;-0.0980;
1361.4000;0.1506;-0.0908;
1361.7000;0.1457;-0.0980;
1362.0000;0.1498;-0.0884;
1362.3000;0.1522;-0.0908;
1362.6000;0.1530;-0.0908;
1362.9000;0.1498;-0.1051;
1363.2000;0.1530;-0.0932;
1363.5000;0.1481;-0.1051;
1363.8000;0.1506;-0.1099;
1364.1000;0.1498;-0.1028;
1364.4000;0.1571;-0.0836;
1364.7000;0.1514;-0.1099;
1365.0000;0.1498;-0.1147;
1365.3000;0.1506;-0.1123;
1365.6000;0.1490;-0.1099;
1365.9000;0.1538;-0.0980;
1366.2000;0.1514;-0.0908;
1366.5000;0.1595;-0.0860;
1366.8000;0.1498;-0.1147;
1367.1000;0.1473;-0.1266;
1367.4000;0.1481;-0.1243;
1367.7000;0.1506;-0.1147;
1368.0000;0.1522;-0.1123;
1368.3000;0.1547;-0.1099;
1368.6000;0.1514;-0.1147;
1368.9000;0.1449;-0.1219;
1369.2000;0.1498;-0.1051;
1369.5000;0.1522;-0.1004;
1369.8000;0.1522;-0.0884;
1370.1000;0.1506;-0.0980;
1370.4000;0.1522;-0.1075;
1370.7000;0.1514;-0.1051;
1371.0000;0.1530;-0.1028;
1371.3000;0.1498;-0.1004;
1371.6000;0.1514;-0.0980;
1371.9000;0.1465;-0.1123;
1372.2000;0.1538;-0.0980;
1372.5000;0.1636;-0.0621;
1372.8000;0.1490;-0.1028;
1373.1000;0.1530;-0.0884;
1373.4000;0.1514;-0.0932;
1373.7000;0.1522;-0.0884;
1374.0000;0.1514;-0.0956;
1374.3000;0.1498;-0.1051;
1374.6000;0.1498;-0.1123;
1374.9000;0.1522;-0.1004;
1375.2000;0.1465;-0.1099;
1375.5000;0.1514;-0.0908;
1375.8000;0.1530;-0.0836;
1376.1000;0.1457;-0.0980;
1376.4000;0.1514;-0.0836;
1376.7000;0.1506;-0.0908;
1377.0000;0.1457;-0.1075;
1377.3000;0.1481;-0.1004;
1377.6000;0.1522;-0.1004;
1377.9000;0.1506;-0.1051;
1378.2000;0.1490;-0.1147;
1378.5000;0.1473;-0.1219;
1378.8000;0.1522;-0.1171;
1379.1000;0.1481;-0.1243;
1379.4000;0.1514;-0.1171;
1379.7000;0.1514;-0.1147;
1380.0000;0.1473;-0.1075;
1380.3000;0.1506;-0.1099;
1380.6000;0.1498;-0.1075;
1380.9000;0.1595;-0.0789;
1381.2000;0.1522;-0.0884;
1381.5000;0.1498;-0.0932;
1381.8000;0.1481;-0.0956;
1382.1000;0.1522;-0.0812;
1382.4000;0.1522;-0.0836;
1382.7000;0.1514;-0.0884;
1383.0000;0.1498;-0.1004;
1383.3000;0.1563;-0.0908;
1383.6000;0.1506;-0.1028;
1383.9000;0.1506;-0.1075;
1384.2000;0.1514;-0.1075;
1384.5000;0.1498;-0.0980;
1384.8000;0.1514;-0.0980;
1385.1000;0.1506;-0.1004;
1385.4000;0.1563;-0.0789;
1385.7000;0.1530;-0.0836;
1386.0000;0.1506;-0.0932;
1386.3000;0.1547;-0.0812;
1386.6000;0.1425;-0.1147;
1386.9000;0.1514;-0.0836;
1387.2000;0.1498;-0.0884;
1387.5000;0.1571;-0.0621;
1387.8000;0.1530;-0.0741;
1388.1000;0.1530;-0.0789;
1388.4000;0.1538;-0.0765;
1388.7000;0.1538;-0.0812;
1389.0000;0.1522;-0.0836;
1389.3000;0.1490;-0.0908;
1389.6000;0.1473;-0.0956;
1389.9000;0.1514;-0.0860;
1390.2000;0.1571;-0.0741;
1390.5000;0.1506;-0.0932;
1390.8000;0.1490;-0.0908;
1391.1000;0.1506;-0.0908;
1391.4000;0.1490;-0.1004;
1391.7000;0.1514;-0.0908;
1392.0000;0.1498;-0.0932;
1392.3000;0.1514;-0.0836;
1392.6000;0.1530;-0.0789;
1392.9000;0.1506;-0.0860;
1393.2000;0.1506;-0.0908;
1393.5000;0.1498;-0.0932;
1393.8000;0.1416;-0.1051;
1394.1000;0.1522;-0.0765;
1394.4000;0.1514;-0.0765;
1394.7000;0.1506;-0.0884;
1395.0000;0.1498;-0.0836;
1395.3000;0.1481;-0.0932;
1395.6000;0.1506;-0.0932;
1395.9000;0.1498;-0.0956;
1396.2000;0.1465;-0.1051;
1396.5000;0.1522;-0.0789;
1396.8000;0.1522;-0.0789;
1397.1000;0.1530;-0.0789;
1397.4000;0.1481;-0.0836;
1397.7000;0.1522;-0.0789;
1398.0000;0.1547;-0.0789;
1398.3000;0.1514;-0.0860;
1398.6000;0.1506;-0.0884;
1398.9000;0.1563;-0.0693;
1399.2000;0.1457;-0.1004;
1399.5000;0.1506;-0.0884;
1399.8000;0.1506;-0.0908;
