time/ms;Fluo/V;P700 deltaI/I x10³;
-199.8000;0.1571;-0.0908;
-199.5000;0.1465;-0.1266;
-199.2000;0.1490;-0.1195;
-198.9000;0.1522;-0.1243;
-198.6000;0.1530;-0.1171;
-198.3000;0.1530;-0.1075;
-198.0000;0.1522;-0.1028;
-197.7000;0.1498;-0.1051;
-197.4000;0.1506;-0.1075;
-197.1000;0.1522;-0.1028;
-196.8000;0.1514;-0.1075;
-196.5000;0.1669;-0.0693;
-196.2000;0.1530;-0.0956;
-195.9000;0.1416;-0.1243;
-195.6000;0.1555;-0.0980;
-195.3000;0.1514;-0.1075;
-195.0000;0.1522;-0.0980;
-194.7000;0.1555;-0.0932;
-194.4000;0.1612;-0.0836;
-194.1000;0.1514;-0.1028;
-193.8000;0.1538;-0.1028;
-193.5000;0.1498;-0.1099;
-193.2000;0.1547;-0.1004;
-192.9000;0.1538;-0.0956;
-192.6000;0.1604;-0.0789;
-192.3000;0.1522;-0.1147;
-192.0000;0.1530;-0.1147;
-191.7000;0.1604;-0.0908;
-191.4000;0.1547;-0.1075;
-191.1000;0.1555;-0.1028;
-190.8000;0.1571;-0.0860;
-190.5000;0.1538;-0.0908;
-190.2000;0.1498;-0.0980;
-189.9000;0.1522;-0.0908;
-189.6000;0.1514;-0.0908;
-189.3000;0.1449;-0.0980;
-189.0000;0.1579;-0.0669;
-188.7000;0.1530;-0.0860;
-188.4000;0.1538;-0.0932;
-188.1000;0.1547;-0.0860;
-187.8000;0.1433;-0.1195;
-187.5000;0.1547;-0.0884;
-187.2000;0.1522;-0.0932;
-186.9000;0.1465;-0.1028;
-186.6000;0.1490;-0.0908;
-186.3000;0.1547;-0.0836;
-186.0000;0.1530;-0.0908;
-185.7000;0.1522;-0.1004;
-185.4000;0.1587;-0.0836;
-185.1000;0.1530;-0.1004;
-184.8000;0.1522;-0.1075;
-184.5000;0.1514;-0.1171;
-184.2000;0.1595;-0.0980;
-183.9000;0.1538;-0.1123;
-183.6000;0.1530;-0.1099;
-183.3000;0.1514;-0.1123;
-183.0000;0.1530;-0.0956;
-182.7000;0.1538;-0.0884;
-182.4000;0.1538;-0.0765;
-182.1000;0.1473;-0.0932;
-181.8000;0.1522;-0.0932;
-181.5000;0.1522;-0.0932;
-181.2000;0.1555;-0.0884;
-180.9000;0.1506;-0.1004;
-180.6000;0.1587;-0.0884;
-180.3000;0.1522;-0.1099;
-180.0000;0.1547;-0.0956;
-179.7000;0.1506;-0.1004;
-179.4000;0.1506;-0.0932;
-179.1000;0.1522;-0.0860;
-178.8000;0.1555;-0.0836;
-178.5000;0.1571;-0.0693;
-178.2000;0.1522;-0.0836;
-177.9000;0.1538;-0.0908;
-177.6000;0.1547;-0.0908;
-177.3000;0.1571;-0.0884;
-177.0000;0.1538;-0.0884;
-176.7000;0.1555;-0.0884;
-176.4000;0.1490;-0.1171;
-176.1000;0.1538;-0.1075;
-175.8000;0.1538;-0.1075;
-175.5000;0.1506;-0.1195;
-175.2000;0.1530;-0.1099;
-174.9000;0.1522;-0.1099;
-174.6000;0.1571;-0.0956;
-174.3000;0.1530;-0.1075;
-174.0000;0.1547;-0.1051;
-173.7000;0.1563;-0.0956;
-173.4000;0.1481;-0.1075;
-173.1000;0.1490;-0.1028;
-172.8000;0.1522;-0.0980;
-172.5000;0.1538;-0.1004;
-172.2000;0.1538;-0.1028;
-171.9000;0.1579;-0.0956;
-171.6000;0.1587;-0.0956;
-171.3000;0.1538;-0.1004;
-171.0000;0.1522;-0.1051;
-170.7000;0.1555;-0.0956;
-170.4000;0.1563;-0.1075;
-170.1000;0.1457;-0.1266;
-169.8000;0.1538;-0.1147;
-169.5000;0.1538;-0.1195;
-169.2000;0.1547;-0.1266;
-168.9000;0.1498;-0.1314;
-168.6000;0.1547;-0.1243;
-168.3000;0.1612;-0.1099;
-168.0000;0.1514;-0.1362;
-167.7000;0.1522;-0.1290;
-167.4000;0.1538;-0.1171;
-167.1000;0.1538;-0.1147;
-166.8000;0.1555;-0.1075;
-166.5000;0.1547;-0.1075;
-166.2000;0.1522;-0.1051;
-165.9000;0.1530;-0.0884;
-165.6000;0.1563;-0.0812;
-165.3000;0.1538;-0.0836;
-165.0000;0.1506;-0.0908;
-164.7000;0.1530;-0.0741;
-164.4000;0.1547;-0.0741;
-164.1000;0.1547;-0.0741;
-163.8000;0.1555;-0.0812;
-163.5000;0.1547;-0.0908;
-163.2000;0.1514;-0.0932;
-162.9000;0.1522;-0.0812;
-162.6000;0.1506;-0.0812;
-162.3000;0.1522;-0.0789;
-162.0000;0.1490;-0.0932;
-161.7000;0.1522;-0.0908;
-161.4000;0.1530;-0.0908;
-161.1000;0.1538;-0.0884;
-160.8000;0.1522;-0.0908;
-160.5000;0.1530;-0.0980;
-160.2000;0.1506;-0.1004;
-159.9000;0.1555;-0.0908;
-159.6000;0.1522;-0.0908;
-159.3000;0.1522;-0.0956;
-159.0000;0.1522;-0.0980;
-158.7000;0.1547;-0.0860;
-158.4000;0.1522;-0.0884;
-158.1000;0.1538;-0.0932;
-157.8000;0.1547;-0.0932;
-157.5000;0.1498;-0.1028;
-157.2000;0.1538;-0.0908;
-156.9000;0.1522;-0.0956;
-156.6000;0.1498;-0.1028;
-156.3000;0.1498;-0.1028;
-156.0000;0.1530;-0.0956;
-155.7000;0.1522;-0.0956;
-155.4000;0.1530;-0.0860;
-155.1000;0.1490;-0.1099;
-154.8000;0.1498;-0.0956;
-154.5000;0.1522;-0.0980;
-154.2000;0.1538;-0.0956;
-153.9000;0.1530;-0.0908;
-153.6000;0.1522;-0.0908;
-153.3000;0.1538;-0.0932;
-153.0000;0.1514;-0.1028;
-152.7000;0.1506;-0.1051;
-152.4000;0.1514;-0.1147;
-152.1000;0.1530;-0.1147;
-151.8000;0.1522;-0.1171;
-151.5000;0.1530;-0.1147;
-151.2000;0.1522;-0.1147;
-150.9000;0.1530;-0.1123;
-150.6000;0.1522;-0.1099;
-150.3000;0.1538;-0.1123;
-150.0000;0.1538;-0.1171;
-149.7000;0.1530;-0.1219;
-149.4000;0.1538;-0.1314;
-149.1000;0.1538;-0.1290;
-148.8000;0.1547;-0.1243;
-148.5000;0.1506;-0.1290;
-148.2000;0.1530;-0.1075;
-147.9000;0.1522;-0.1051;
-147.6000;0.1530;-0.1028;
-147.3000;0.1555;-0.1004;
-147.0000;0.1538;-0.0980;
-146.7000;0.1530;-0.0956;
-146.4000;0.1538;-0.0956;
-146.1000;0.1547;-0.1028;
-145.8000;0.1538;-0.1051;
-145.5000;0.1547;-0.0956;
-145.2000;0.1530;-0.1051;
-144.9000;0.1530;-0.0932;
-144.6000;0.1530;-0.0932;
-144.3000;0.1522;-0.1051;
-144.0000;0.1547;-0.1051;
-143.7000;0.1530;-0.1099;
-143.4000;0.1514;-0.1147;
-143.1000;0.1538;-0.1028;
-142.8000;0.1530;-0.1123;
-142.5000;0.1522;-0.1099;
-142.2000;0.1547;-0.1099;
-141.9000;0.1538;-0.1075;
-141.6000;0.1555;-0.0860;
-141.3000;0.1555;-0.0884;
-141.0000;0.1547;-0.1004;
-140.7000;0.1506;-0.1147;
-140.4000;0.1392;-0.1434;
-140.1000;0.1571;-0.1028;
-139.8000;0.1530;-0.1147;
-139.5000;0.1547;-0.1004;
-139.2000;0.1530;-0.1004;
-138.9000;0.1530;-0.1075;
-138.6000;0.1538;-0.1075;
-138.3000;0.1530;-0.1028;
-138.0000;0.1506;-0.1051;
-137.7000;0.1530;-0.1004;
-137.4000;0.1530;-0.1004;
-137.1000;0.1555;-0.0908;
-136.8000;0.1490;-0.1004;
-136.5000;0.1514;-0.0860;
-136.2000;0.1547;-0.0884;
-135.9000;0.1547;-0.0860;
-135.6000;0.1522;-0.0884;
-135.3000;0.1530;-0.0836;
-135.0000;0.1530;-0.0884;
-134.7000;0.1538;-0.0884;
-134.4000;0.1522;-0.0956;
-134.1000;0.1530;-0.0980;
-133.8000;0.1538;-0.1075;
-133.5000;0.1522;-0.1099;
-133.2000;0.1522;-0.1123;
-132.9000;0.1522;-0.1123;
-132.6000;0.1587;-0.0932;
-132.3000;0.1563;-0.1028;
-132.0000;0.1530;-0.1028;
-131.7000;0.1514;-0.1099;
-131.4000;0.1538;-0.1051;
-131.1000;0.1555;-0.1051;
-130.8000;0.1522;-0.1171;
-130.5000;0.1522;-0.1195;
-130.2000;0.1473;-0.1290;
-129.9000;0.1514;-0.1219;
-129.6000;0.1522;-0.1243;
-129.3000;0.1538;-0.1219;
-129.0000;0.1506;-0.1266;
-128.7000;0.1522;-0.1266;
-128.4000;0.1514;-0.1219;
-128.1000;0.1571;-0.1028;
-127.8000;0.1506;-0.1195;
-127.5000;0.1547;-0.1028;
-127.2000;0.1530;-0.1051;
-126.9000;0.1563;-0.1028;
-126.6000;0.1530;-0.1099;
-126.3000;0.1530;-0.1099;
-126.0000;0.1547;-0.1051;
-125.7000;0.1506;-0.1051;
-125.4000;0.1530;-0.0980;
-125.1000;0.1522;-0.0956;
-124.8000;0.1538;-0.1051;
-124.5000;0.1538;-0.0980;
-124.2000;0.1465;-0.1051;
-123.9000;0.1514;-0.0956;
-123.6000;0.1538;-0.0908;
-123.3000;0.1555;-0.0884;
-123.0000;0.1530;-0.0908;
-122.7000;0.1530;-0.0980;
-122.4000;0.1538;-0.1028;
-122.1000;0.1538;-0.1004;
-121.8000;0.1530;-0.1028;
-121.5000;0.1522;-0.1051;
-121.2000;0.1538;-0.1051;
-120.9000;0.1555;-0.1123;
-120.6000;0.1547;-0.1123;
-120.3000;0.1522;-0.1171;
-120.0000;0.1490;-0.1314;
-119.7000;0.1522;-0.1147;
-119.4000;0.1530;-0.1028;
-119.1000;0.1506;-0.1147;
-118.8000;0.1530;-0.1004;
-118.5000;0.1522;-0.1004;
-118.2000;0.1522;-0.1099;
-117.9000;0.1522;-0.1075;
-117.6000;0.1522;-0.1243;
-117.3000;0.1514;-0.1219;
-117.0000;0.1514;-0.1195;
-116.7000;0.1514;-0.1123;
-116.4000;0.1538;-0.1051;
-116.1000;0.1538;-0.0980;
-115.8000;0.1514;-0.0980;
-115.5000;0.1530;-0.0932;
-115.2000;0.1538;-0.0932;
-114.9000;0.1555;-0.1028;
-114.6000;0.1530;-0.1028;
-114.3000;0.1547;-0.1099;
-114.0000;0.1563;-0.1171;
-113.7000;0.1490;-0.1290;
-113.4000;0.1530;-0.1219;
-113.1000;0.1530;-0.1219;
-112.8000;0.1547;-0.1219;
-112.5000;0.1522;-0.1290;
-112.2000;0.1530;-0.1195;
-111.9000;0.1506;-0.1123;
-111.6000;0.1555;-0.1099;
-111.3000;0.1522;-0.1219;
-111.0000;0.1571;-0.1051;
-110.7000;0.1636;-0.0860;
-110.4000;0.1538;-0.1171;
-110.1000;0.1555;-0.1171;
-109.8000;0.1441;-0.1410;
-109.5000;0.1514;-0.1243;
-109.2000;0.1530;-0.1243;
-108.9000;0.1547;-0.1171;
-108.6000;0.1522;-0.1243;
-108.3000;0.1514;-0.1171;
-108.0000;0.1522;-0.1243;
-107.7000;0.1514;-0.1314;
-107.4000;0.1530;-0.1243;
-107.1000;0.1514;-0.1243;
-106.8000;0.1538;-0.1195;
-106.5000;0.1547;-0.1147;
-106.2000;0.1530;-0.1075;
-105.9000;0.1530;-0.1028;
-105.6000;0.1595;-0.0836;
-105.3000;0.1547;-0.0956;
-105.0000;0.1522;-0.1028;
-104.7000;0.1506;-0.1147;
-104.4000;0.1547;-0.1051;
-104.1000;0.1547;-0.0908;
-103.8000;0.1514;-0.0980;
-103.5000;0.1522;-0.1147;
-103.2000;0.1538;-0.1075;
-102.9000;0.1538;-0.1099;
-102.6000;0.1522;-0.1123;
-102.3000;0.1514;-0.1171;
-102.0000;0.1522;-0.1147;
-101.7000;0.1555;-0.1123;
-101.4000;0.1538;-0.1004;
-101.1000;0.1530;-0.1028;
-100.8000;0.1538;-0.1028;
-100.5000;0.1571;-0.0908;
-100.2000;0.1530;-0.1051;
-99.9000;0.1547;-0.1123;
-99.6000;0.1538;-0.1099;
-99.3000;0.1522;-0.1123;
-99.0000;0.1538;-0.1123;
-98.7000;0.1538;-0.1075;
-98.4000;0.1530;-0.1028;
-98.1000;0.1522;-0.1028;
-97.8000;0.1514;-0.1099;
-97.5000;0.1579;-0.0980;
-97.2000;0.1522;-0.1051;
-96.9000;0.1530;-0.1004;
-96.6000;0.1530;-0.0980;
-96.3000;0.1522;-0.0980;
-96.0000;0.1547;-0.0932;
-95.7000;0.1506;-0.1028;
-95.4000;0.1522;-0.1028;
-95.1000;0.1547;-0.1099;
-94.8000;0.1547;-0.1028;
-94.5000;0.1538;-0.1123;
-94.2000;0.1530;-0.1147;
-93.9000;0.1530;-0.1075;
-93.6000;0.1555;-0.0980;
-93.3000;0.1547;-0.0980;
-93.0000;0.1530;-0.1051;
-92.7000;0.1514;-0.1123;
-92.4000;0.1538;-0.1147;
-92.1000;0.1530;-0.1099;
-91.8000;0.1506;-0.1075;
-91.5000;0.1547;-0.1028;
-91.2000;0.1538;-0.1004;
-90.9000;0.1522;-0.0980;
-90.6000;0.1538;-0.0884;
-90.3000;0.1530;-0.0812;
-90.0000;0.1587;-0.0645;
-89.7000;0.1555;-0.0717;
-89.4000;0.1522;-0.0765;
-89.1000;0.1473;-0.0908;
-88.8000;0.1750;-0.0287;
-88.5000;0.1547;-0.0860;
-88.2000;0.1530;-0.0956;
-87.9000;0.1538;-0.0908;
-87.6000;0.1473;-0.1195;
-87.3000;0.1506;-0.1028;
-87.0000;0.1530;-0.1051;
-86.7000;0.1522;-0.1028;
-86.4000;0.1530;-0.1075;
-86.1000;0.1579;-0.0908;
-85.8000;0.1579;-0.0908;
-85.5000;0.1538;-0.1075;
-85.2000;0.1571;-0.1028;
-84.9000;0.1514;-0.1099;
-84.6000;0.1530;-0.0980;
-84.3000;0.1506;-0.0980;
-84.0000;0.1636;-0.0550;
-83.7000;0.1522;-0.0908;
-83.4000;0.1547;-0.0884;
-83.1000;0.1547;-0.0956;
-82.8000;0.1530;-0.1028;
-82.5000;0.1522;-0.1051;
-82.2000;0.1514;-0.0932;
-81.9000;0.1514;-0.0932;
-81.6000;0.1538;-0.0860;
-81.3000;0.1522;-0.0956;
-81.0000;0.1490;-0.1099;
-80.7000;0.1538;-0.1028;
-80.4000;0.1530;-0.1028;
-80.1000;0.1498;-0.1171;
-79.8000;0.1538;-0.1075;
-79.5000;0.1530;-0.1004;
-79.2000;0.1538;-0.1028;
-78.9000;0.1498;-0.1099;
-78.6000;0.1563;-0.1004;
-78.3000;0.1530;-0.1195;
-78.0000;0.1530;-0.1099;
-77.7000;0.1522;-0.1123;
-77.4000;0.1538;-0.1051;
-77.1000;0.1538;-0.1004;
-76.8000;0.1555;-0.0956;
-76.5000;0.1490;-0.1147;
-76.2000;0.1522;-0.1028;
-75.9000;0.1522;-0.1051;
-75.6000;0.1547;-0.0932;
-75.3000;0.1538;-0.1099;
-75.0000;0.1514;-0.1123;
-74.7000;0.1514;-0.1075;
-74.4000;0.1522;-0.1028;
-74.1000;0.1522;-0.1051;
-73.8000;0.1538;-0.1123;
-73.5000;0.1498;-0.1147;
-73.2000;0.1530;-0.0980;
-72.9000;0.1538;-0.0932;
-72.6000;0.1538;-0.1004;
-72.3000;0.1530;-0.1123;
-72.0000;0.1514;-0.1195;
-71.7000;0.1612;-0.0884;
-71.4000;0.1530;-0.1004;
-71.1000;0.1547;-0.1075;
-70.8000;0.1530;-0.1123;
-70.5000;0.1636;-0.0884;
-70.2000;0.1538;-0.1147;
-69.9000;0.1547;-0.1075;
-69.6000;0.1522;-0.1051;
-69.3000;0.1530;-0.1099;
-69.0000;0.1547;-0.1051;
-68.7000;0.1547;-0.1028;
-68.4000;0.1538;-0.1051;
-68.1000;0.1538;-0.1028;
-67.8000;0.1547;-0.1004;
-67.5000;0.1563;-0.1004;
-67.2000;0.1547;-0.1147;
-66.9000;0.1547;-0.1099;
-66.6000;0.1514;-0.1171;
-66.3000;0.1530;-0.1171;
-66.0000;0.1604;-0.0908;
-65.7000;0.1522;-0.1099;
-65.4000;0.1538;-0.1051;
-65.1000;0.1530;-0.1051;
-64.8000;0.1473;-0.1195;
-64.5000;0.1522;-0.1051;
-64.2000;0.1530;-0.1075;
-63.9000;0.1530;-0.1051;
-63.6000;0.1441;-0.1266;
-63.3000;0.1547;-0.1075;
-63.0000;0.1530;-0.1147;
-62.7000;0.1530;-0.1075;
-62.4000;0.1530;-0.1051;
-62.1000;0.1538;-0.1075;
-61.8000;0.1506;-0.1147;
-61.5000;0.1522;-0.1051;
-61.2000;0.1538;-0.1099;
-60.9000;0.1514;-0.1171;
-60.6000;0.1538;-0.1075;
-60.3000;0.1555;-0.1028;
-60.0000;0.1547;-0.1147;
-59.7000;0.1530;-0.1171;
-59.4000;0.1530;-0.1075;
-59.1000;0.1498;-0.1099;
-58.8000;0.1555;-0.1004;
-58.5000;0.1555;-0.1123;
-58.2000;0.1538;-0.1266;
-57.9000;0.1547;-0.1147;
-57.6000;0.1522;-0.1195;
-57.3000;0.1506;-0.1195;
-57.0000;0.1538;-0.0980;
-56.7000;0.1522;-0.1028;
-56.4000;0.1555;-0.0980;
-56.1000;0.1595;-0.0908;
-55.8000;0.1587;-0.0956;
-55.5000;0.1506;-0.1266;
-55.2000;0.1538;-0.1219;
-54.9000;0.1563;-0.1243;
-54.6000;0.1457;-0.1601;
-54.3000;0.1522;-0.1410;
-54.0000;0.1538;-0.1386;
-53.7000;0.1547;-0.1266;
-53.4000;0.1530;-0.1243;
-53.1000;0.1506;-0.1266;
-52.8000;0.1498;-0.1243;
-52.5000;0.1530;-0.1171;
-52.2000;0.1538;-0.1195;
-51.9000;0.1490;-0.1314;
-51.6000;0.1547;-0.1099;
-51.3000;0.1547;-0.1075;
-51.0000;0.1530;-0.1051;
-50.7000;0.1530;-0.1099;
-50.4000;0.1530;-0.1123;
-50.1000;0.1563;-0.1075;
-49.8000;0.1490;-0.1266;
-49.5000;0.1506;-0.1243;
-49.2000;0.1547;-0.1171;
-48.9000;0.1547;-0.1123;
-48.6000;0.1563;-0.1123;
-48.3000;0.1522;-0.1243;
-48.0000;0.1538;-0.1266;
-47.7000;0.1612;-0.1028;
-47.4000;0.1530;-0.1171;
-47.1000;0.1498;-0.1195;
-46.8000;0.1481;-0.1290;
-46.5000;0.1555;-0.1099;
-46.2000;0.1530;-0.1147;
-45.9000;0.1473;-0.1290;
-45.6000;0.1604;-0.0908;
-45.3000;0.1547;-0.1004;
-45.0000;0.1555;-0.0980;
-44.7000;0.1506;-0.1075;
-44.4000;0.1538;-0.1028;
-44.1000;0.1514;-0.1075;
-43.8000;0.1522;-0.1028;
-43.5000;0.1522;-0.0980;
-43.2000;0.1522;-0.1004;
-42.9000;0.1506;-0.1051;
-42.6000;0.1538;-0.1075;
-42.3000;0.1538;-0.1075;
-42.0000;0.1563;-0.0932;
-41.7000;0.1530;-0.0980;
-41.4000;0.1547;-0.0836;
-41.1000;0.1400;-0.1290;
-40.8000;0.1473;-0.1099;
-40.5000;0.1538;-0.0908;
-40.2000;0.1579;-0.0884;
-39.9000;0.1547;-0.1004;
-39.6000;0.1538;-0.1051;
-39.3000;0.1547;-0.0980;
-39.0000;0.1547;-0.0956;
-38.7000;0.1506;-0.1147;
-38.4000;0.1538;-0.1099;
-38.1000;0.1498;-0.1123;
-37.8000;0.1538;-0.1004;
-37.5000;0.1514;-0.1075;
-37.2000;0.1514;-0.1099;
-36.9000;0.1555;-0.1099;
-36.6000;0.1522;-0.1075;
-36.3000;0.1522;-0.1075;
-36.0000;0.1612;-0.0884;
-35.7000;0.1538;-0.1004;
-35.4000;0.1571;-0.0932;
-35.1000;0.1538;-0.1028;
-34.8000;0.1522;-0.1075;
-34.5000;0.1522;-0.1051;
-34.2000;0.1506;-0.1171;
-33.9000;0.1530;-0.1147;
-33.6000;0.1538;-0.1123;
-33.3000;0.1522;-0.1219;
-33.0000;0.1530;-0.1171;
-32.7000;0.1514;-0.1219;
-32.4000;0.1547;-0.1147;
-32.1000;0.1538;-0.1123;
-31.8000;0.1547;-0.1075;
-31.5000;0.1538;-0.1075;
-31.2000;0.1538;-0.1051;
-30.9000;0.1530;-0.1075;
-30.6000;0.1522;-0.1051;
-30.3000;0.1538;-0.1051;
-30.0000;0.1538;-0.1051;
-29.7000;0.1579;-0.0884;
-29.4000;0.1538;-0.1028;
-29.1000;0.1490;-0.1147;
-28.8000;0.1547;-0.1004;
-28.5000;0.1522;-0.1028;
-28.2000;0.1530;-0.0980;
-27.9000;0.1547;-0.0884;
-27.6000;0.1498;-0.0932;
-27.3000;0.1514;-0.1028;
-27.0000;0.1547;-0.1099;
-26.7000;0.1604;-0.1028;
-26.4000;0.1530;-0.1195;
-26.1000;0.1538;-0.1266;
-25.8000;0.1498;-0.1338;
-25.5000;0.1587;-0.1075;
-25.2000;0.1538;-0.1099;
-24.9000;0.1530;-0.1075;
-24.6000;0.1498;-0.1219;
-24.3000;0.1514;-0.1171;
-24.0000;0.1514;-0.1195;
-23.7000;0.1538;-0.1147;
-23.4000;0.1538;-0.1171;
-23.1000;0.1538;-0.1195;
-22.8000;0.1530;-0.1171;
-22.5000;0.1538;-0.1171;
-22.2000;0.1522;-0.1171;
-21.9000;0.1538;-0.1075;
-21.6000;0.1530;-0.1099;
-21.3000;0.1538;-0.1075;
-21.0000;0.1530;-0.1075;
-20.7000;0.1563;-0.0980;
-20.4000;0.1522;-0.1051;
-20.1000;0.1506;-0.1028;
-19.8000;0.1538;-0.0956;
-19.5000;0.1547;-0.0956;
-19.2000;0.1563;-0.0980;
-18.9000;0.1547;-0.0980;
-18.6000;0.1579;-0.0836;
-18.3000;0.1547;-0.1004;
-18.0000;0.1538;-0.1028;
-17.7000;0.1555;-0.1028;
-17.4000;0.1547;-0.1075;
-17.1000;0.1530;-0.1195;
-16.8000;0.1522;-0.1219;
-16.5000;0.1498;-0.1219;
-16.2000;0.1538;-0.1195;
-15.9000;0.1522;-0.1314;
-15.6000;0.1538;-0.1266;
-15.3000;0.1547;-0.1171;
-15.0000;0.1481;-0.1338;
-14.7000;0.1571;-0.1195;
-14.4000;0.1514;-0.1266;
-14.1000;0.1506;-0.1266;
-13.8000;0.1522;-0.1171;
-13.5000;0.1514;-0.1075;
-13.2000;0.1530;-0.1075;
-12.9000;0.1587;-0.0860;
-12.6000;0.1506;-0.1075;
-12.3000;0.1522;-0.1004;
-12.0000;0.1530;-0.1004;
-11.7000;0.1498;-0.1004;
-11.4000;0.1563;-0.0932;
-11.1000;0.1530;-0.1004;
-10.8000;0.1522;-0.1028;
-10.5000;0.1506;-0.1099;
-10.2000;0.1530;-0.1147;
-9.9000;0.1514;-0.1123;
-9.6000;0.1530;-0.1147;
-9.3000;0.1595;-0.1099;
-9.0000;0.1522;-0.1362;
-8.7000;0.1400;-0.1577;
-8.4000;0.1506;-0.1314;
-8.1000;0.1530;-0.1266;
-7.8000;0.1506;-0.1219;
-7.5000;0.1563;-0.1147;
-7.2000;0.1563;-0.1099;
-6.9000;0.1547;-0.1051;
-6.6000;0.1506;-0.1099;
-6.3000;0.1555;-0.0980;
-6.0000;0.1514;-0.1099;
-5.7000;0.1400;-0.1434;
-5.4000;0.1522;-0.1123;
-5.1000;0.1530;-0.1171;
-4.8000;0.1636;-0.0980;
-4.5000;0.1547;-0.1171;
-4.2000;0.1538;-0.1147;
-3.9000;0.1530;-0.1099;
-3.6000;0.1522;-0.1171;
-3.3000;0.1522;-0.1123;
-3.0000;0.1514;-0.1195;
-2.7000;0.1563;-0.1171;
-2.4000;0.1530;-0.1338;
-2.1000;0.1538;-0.1266;
-1.8000;0.1628;-0.0980;
-1.5000;0.1530;-0.1195;
-1.2000;0.1490;-0.1338;
-0.9000;0.1465;-0.1434;
-0.6000;0.1555;-0.1195;
-0.3000;0.1661;-0.0860;
0.0000;0.1661;-0.0860;
0.3000;0.1530;-0.1482;
0.6000;0.1522;-0.1434;
0.9000;0.1547;-0.1338;
1.2000;0.1522;-0.1290;
1.5000;0.1547;-0.1099;
1.8000;0.1555;-0.0956;
2.1000;0.1555;-0.0884;
2.4000;0.1538;-0.0812;
2.7000;0.1538;-0.0693;
3.0000;0.1490;-0.0717;
3.3000;0.1530;-0.0502;
3.6000;0.1522;-0.0597;
3.9000;0.1514;-0.0502;
4.2000;0.1595;-0.0239;
4.5000;0.1547;-0.0382;
4.8000;0.1522;-0.0382;
5.1000;0.1506;-0.0406;
5.4000;0.1652;0.0024;
5.7000;0.1571;-0.0263;
6.0000;0.1490;-0.0478;
6.3000;0.1498;-0.0454;
6.6000;0.1522;-0.0406;
6.9000;0.1555;-0.0287;
7.2000;0.1538;-0.0311;
7.5000;0.1555;-0.0287;
7.8000;0.1538;-0.0335;
8.1000;0.1522;-0.0263;
8.4000;0.1620;0.0000;
8.7000;0.1538;-0.0215;
9.0000;0.1530;-0.0167;
9.3000;0.1522;-0.0191;
9.6000;0.1555;-0.0215;
9.9000;0.1547;-0.0263;
10.2000;0.1538;-0.0263;
10.5000;0.1530;-0.0287;
10.8000;0.1538;-0.0191;
11.1000;0.1514;-0.0311;
11.4000;0.1514;-0.0358;
11.7000;0.1595;-0.0167;
12.0000;0.1547;-0.0239;
12.3000;0.1490;-0.0287;
12.6000;0.1530;-0.0143;
12.9000;0.1530;-0.0167;
13.2000;0.1547;-0.0143;
13.5000;0.1538;-0.0239;
13.8000;0.1555;-0.0191;
14.1000;0.1530;-0.0239;
14.4000;0.1522;-0.0287;
14.7000;0.1506;-0.0263;
15.0000;0.1538;-0.0191;
15.3000;0.1538;-0.0191;
15.6000;0.1473;-0.0358;
15.9000;0.1514;-0.0215;
16.2000;0.1538;-0.0239;
16.5000;0.1498;-0.0287;
16.8000;0.1587;-0.0119;
17.1000;0.1547;-0.0239;
17.4000;0.1547;-0.0191;
17.7000;0.1522;-0.0287;
18.0000;0.1522;-0.0263;
18.3000;0.1547;-0.0215;
18.6000;0.1538;-0.0287;
18.9000;0.1538;-0.0335;
19.2000;0.1441;-0.0574;
19.5000;0.1547;-0.0358;
19.8000;0.1563;-0.0311;
20.1000;0.1530;-0.0358;
20.4000;0.1555;-0.0263;
20.7000;0.1530;-0.0358;
21.0000;0.1555;-0.0263;
21.3000;0.1457;-0.0502;
21.6000;0.1514;-0.0239;
21.9000;0.1530;-0.0215;
22.2000;0.1538;-0.0143;
22.5000;0.1498;-0.0311;
22.8000;0.1547;-0.0167;
23.1000;0.1506;-0.0382;
23.4000;0.1530;-0.0239;
23.7000;0.1514;-0.0358;
24.0000;0.1538;-0.0215;
24.3000;0.1522;-0.0215;
24.6000;0.1555;-0.0263;
24.9000;0.1538;-0.0358;
25.2000;0.1547;-0.0239;
25.5000;0.1547;-0.0215;
25.8000;0.1538;-0.0215;
26.1000;0.1538;-0.0215;
26.4000;0.1522;-0.0263;
26.7000;0.1530;-0.0287;
27.0000;0.1538;-0.0263;
27.3000;0.1490;-0.0454;
27.6000;0.1538;-0.0335;
27.9000;0.1522;-0.0239;
28.2000;0.1465;-0.0382;
28.5000;0.1530;-0.0191;
28.8000;0.1538;-0.0096;
29.1000;0.1481;-0.0239;
29.4000;0.1481;-0.0263;
29.7000;0.1547;-0.0119;
30.0000;0.1522;-0.0119;
30.3000;0.1547;0.0024;
30.6000;0.1530;-0.0096;
30.9000;0.1547;-0.0119;
31.2000;0.1538;-0.0096;
31.5000;0.1555;-0.0119;
31.8000;0.1530;-0.0191;
32.1000;0.1538;-0.0191;
32.4000;0.1538;-0.0239;
32.7000;0.1530;-0.0119;
33.0000;0.1538;-0.0048;
33.3000;0.1506;-0.0143;
33.6000;0.1522;-0.0167;
33.9000;0.1522;-0.0167;
34.2000;0.1538;-0.0143;
34.5000;0.1547;-0.0119;
34.8000;0.1506;-0.0143;
35.1000;0.1547;0.0024;
35.4000;0.1465;-0.0191;
35.7000;0.1522;-0.0048;
36.0000;0.1530;0.0024;
36.3000;0.1530;-0.0024;
36.6000;0.1547;-0.0024;
36.9000;0.1628;0.0311;
37.2000;0.1530;0.0000;
37.5000;0.1530;0.0096;
37.8000;0.1538;0.0096;
38.1000;0.1538;0.0119;
38.4000;0.1530;-0.0048;
38.7000;0.1522;0.0000;
39.0000;0.1514;-0.0119;
39.3000;0.1530;-0.0119;
39.6000;0.1522;-0.0072;
39.9000;0.1490;-0.0072;
40.2000;0.1563;0.0096;
40.5000;0.1555;0.0143;
40.8000;0.1555;0.0167;
41.1000;0.1522;0.0024;
41.4000;0.1530;0.0048;
41.7000;0.1530;0.0096;
42.0000;0.1498;0.0048;
42.3000;0.1547;0.0072;
42.6000;0.1522;0.0024;
42.9000;0.1547;-0.0024;
43.2000;0.1530;-0.0143;
43.5000;0.1449;-0.0430;
43.8000;0.1563;-0.0119;
44.1000;0.1441;-0.0382;
44.4000;0.1498;-0.0215;
44.7000;0.1530;-0.0167;
45.0000;0.1538;-0.0191;
45.3000;0.1538;-0.0263;
45.6000;0.1547;-0.0335;
45.9000;0.1547;-0.0287;
46.2000;0.1555;-0.0239;
46.5000;0.1481;-0.0430;
46.8000;0.1538;-0.0215;
47.1000;0.1400;-0.0621;
47.4000;0.1514;-0.0287;
47.7000;0.1530;-0.0263;
48.0000;0.1514;-0.0239;
48.3000;0.1530;-0.0263;
48.6000;0.1522;-0.0239;
48.9000;0.1530;-0.0215;
49.2000;0.1514;-0.0167;
49.5000;0.1538;-0.0119;
49.8000;0.1555;-0.0072;
50.1000;0.1538;-0.0096;
50.4000;0.1522;-0.0119;
50.7000;0.1563;-0.0048;
51.0000;0.1530;-0.0143;
51.3000;0.1530;-0.0119;
51.6000;0.1530;-0.0191;
51.9000;0.1547;-0.0191;
52.2000;0.1425;-0.0478;
52.5000;0.1555;-0.0143;
52.8000;0.1473;-0.0406;
53.1000;0.1530;-0.0191;
53.4000;0.1490;-0.0406;
53.7000;0.1547;-0.0215;
54.0000;0.1547;-0.0191;
54.3000;0.1563;-0.0072;
54.6000;0.1522;-0.0239;
54.9000;0.1644;0.0096;
55.2000;0.1498;-0.0239;
55.5000;0.1522;-0.0167;
55.8000;0.1555;-0.0119;
56.1000;0.1547;-0.0191;
56.4000;0.1522;-0.0167;
56.7000;0.1433;-0.0526;
57.0000;0.1538;-0.0287;
57.3000;0.1538;-0.0311;
57.6000;0.1555;-0.0382;
57.9000;0.1465;-0.0526;
58.2000;0.1506;-0.0406;
58.5000;0.1547;-0.0263;
58.8000;0.1587;-0.0143;
59.1000;0.1530;-0.0311;
59.4000;0.1538;-0.0287;
59.7000;0.1547;-0.0239;
60.0000;0.1547;-0.0239;
60.3000;0.1522;-0.0287;
60.6000;0.1587;-0.0143;
60.9000;0.1514;-0.0335;
61.2000;0.1506;-0.0358;
61.5000;0.1522;-0.0287;
61.8000;0.1522;-0.0287;
62.1000;0.1538;-0.0215;
62.4000;0.1547;-0.0239;
62.7000;0.1481;-0.0406;
63.0000;0.1538;-0.0167;
63.3000;0.1579;-0.0072;
63.6000;0.1522;-0.0215;
63.9000;0.1604;0.0000;
64.2000;0.1514;-0.0215;
64.5000;0.1530;-0.0143;
64.8000;0.1547;-0.0072;
65.1000;0.1571;-0.0024;
65.4000;0.1522;-0.0191;
65.7000;0.1514;-0.0239;
66.0000;0.1506;-0.0263;
66.3000;0.1506;-0.0263;
66.6000;0.1547;-0.0239;
66.9000;0.1514;-0.0239;
67.2000;0.1490;-0.0430;
67.5000;0.1465;-0.0502;
67.8000;0.1555;-0.0167;
68.1000;0.1514;-0.0167;
68.4000;0.1514;-0.0119;
68.7000;0.1547;0.0000;
69.0000;0.1473;-0.0143;
69.3000;0.1514;0.0048;
69.6000;0.1563;0.0191;
69.9000;0.1506;-0.0024;
70.2000;0.1538;0.0024;
70.5000;0.1538;-0.0072;
70.8000;0.1530;-0.0119;
71.1000;0.1604;0.0024;
71.4000;0.1563;-0.0024;
71.7000;0.1522;-0.0143;
72.0000;0.1547;-0.0096;
72.3000;0.1538;0.0024;
72.6000;0.1547;0.0072;
72.9000;0.1530;-0.0024;
73.2000;0.1514;-0.0096;
73.5000;0.1522;-0.0096;
73.8000;0.1538;-0.0048;
74.1000;0.1555;0.0000;
74.4000;0.1530;-0.0024;
74.7000;0.1530;-0.0024;
75.0000;0.1522;-0.0048;
75.3000;0.1530;0.0000;
75.6000;0.1522;-0.0048;
75.9000;0.1530;-0.0096;
76.2000;0.1506;-0.0191;
76.5000;0.1530;-0.0167;
76.8000;0.1530;-0.0191;
77.1000;0.1530;-0.0239;
77.4000;0.1538;-0.0072;
77.7000;0.1547;-0.0096;
78.0000;0.1571;-0.0024;
78.3000;0.1547;-0.0048;
78.6000;0.1498;-0.0215;
78.9000;0.1490;-0.0335;
79.2000;0.1555;-0.0191;
79.5000;0.1522;-0.0287;
79.8000;0.1530;-0.0215;
80.1000;0.1555;-0.0072;
80.4000;0.1530;-0.0048;
80.7000;0.1530;0.0000;
81.0000;0.1530;0.0000;
81.3000;0.1538;-0.0048;
81.6000;0.1604;0.0191;
81.9000;0.1628;0.0167;
82.2000;0.1555;-0.0072;
82.5000;0.1547;-0.0096;
82.8000;0.1522;-0.0191;
83.1000;0.1530;-0.0167;
83.4000;0.1644;0.0191;
83.7000;0.1538;-0.0048;
84.0000;0.1506;-0.0096;
84.3000;0.1547;0.0000;
84.6000;0.1555;0.0000;
84.9000;0.1547;0.0024;
85.2000;0.1522;0.0000;
85.5000;0.1555;0.0167;
85.8000;0.1571;0.0191;
86.1000;0.1538;0.0048;
86.4000;0.1538;0.0096;
86.7000;0.1530;0.0072;
87.0000;0.1547;0.0119;
87.3000;0.1522;0.0000;
87.6000;0.1530;0.0072;
87.9000;0.1571;0.0072;
88.2000;0.1538;0.0048;
88.5000;0.1514;0.0024;
88.8000;0.1538;-0.0048;
89.1000;0.1498;-0.0167;
89.4000;0.1538;-0.0072;
89.7000;0.1538;-0.0072;
90.0000;0.1563;-0.0072;
90.3000;0.1547;-0.0096;
90.6000;0.1522;-0.0167;
90.9000;0.1538;-0.0191;
91.2000;0.1587;-0.0072;
91.5000;0.1538;-0.0215;
91.8000;0.1530;-0.0167;
92.1000;0.1571;0.0000;
92.4000;0.1498;-0.0191;
92.7000;0.1514;-0.0191;
93.0000;0.1530;-0.0143;
93.3000;0.1555;-0.0143;
93.6000;0.1506;-0.0311;
93.9000;0.1530;-0.0167;
94.2000;0.1555;-0.0048;
94.5000;0.1530;-0.0096;
94.8000;0.1538;-0.0024;
95.1000;0.1555;0.0119;
95.4000;0.1522;-0.0024;
95.7000;0.1555;0.0048;
96.0000;0.1530;-0.0072;
96.3000;0.1547;-0.0048;
96.6000;0.1522;-0.0096;
96.9000;0.1514;-0.0119;
97.2000;0.1498;-0.0143;
97.5000;0.1514;-0.0072;
97.8000;0.1514;-0.0024;
98.1000;0.1595;0.0167;
98.4000;0.1522;-0.0096;
98.7000;0.1522;0.0000;
99.0000;0.1595;0.0191;
99.3000;0.1530;-0.0048;
99.6000;0.1530;-0.0096;
99.9000;0.1547;-0.0096;
100.2000;0.1490;-0.0287;
100.5000;0.1530;-0.0167;
100.8000;0.1481;-0.0191;
101.1000;0.1465;-0.0167;
101.4000;0.1555;0.0096;
101.7000;0.1538;0.0000;
102.0000;0.1587;0.0096;
102.3000;0.1538;0.0000;
102.6000;0.1506;-0.0048;
102.9000;0.1522;-0.0072;
103.2000;0.1538;-0.0072;
103.5000;0.1538;-0.0072;
103.8000;0.1530;-0.0143;
104.1000;0.1530;-0.0143;
104.4000;0.1506;-0.0191;
104.7000;0.1563;-0.0096;
105.0000;0.1547;-0.0167;
105.3000;0.1490;-0.0406;
105.6000;0.1514;-0.0358;
105.9000;0.1514;-0.0335;
106.2000;0.1547;-0.0167;
106.5000;0.1677;0.0167;
106.8000;0.1514;-0.0263;
107.1000;0.1530;-0.0215;
107.4000;0.1604;0.0072;
107.7000;0.1506;-0.0263;
108.0000;0.1530;-0.0119;
108.3000;0.1538;-0.0191;
108.6000;0.1506;-0.0191;
108.9000;0.1506;-0.0215;
109.2000;0.1538;-0.0167;
109.5000;0.1514;-0.0215;
109.8000;0.1530;-0.0287;
110.1000;0.1522;-0.0167;
110.4000;0.1522;-0.0215;
110.7000;0.1506;-0.0191;
111.0000;0.1538;-0.0143;
111.3000;0.1530;-0.0143;
111.6000;0.1538;-0.0143;
111.9000;0.1522;-0.0191;
112.2000;0.1530;-0.0119;
112.5000;0.1498;-0.0215;
112.8000;0.1530;-0.0191;
113.1000;0.1530;-0.0239;
113.4000;0.1530;-0.0358;
113.7000;0.1530;-0.0382;
114.0000;0.1514;-0.0382;
114.3000;0.1514;-0.0335;
114.6000;0.1530;-0.0263;
114.9000;0.1490;-0.0215;
115.2000;0.1498;-0.0239;
115.5000;0.1547;-0.0119;
115.8000;0.1555;-0.0096;
116.1000;0.1612;0.0119;
116.4000;0.1530;-0.0096;
116.7000;0.1555;0.0000;
117.0000;0.1522;-0.0072;
117.3000;0.1579;0.0096;
117.6000;0.1538;0.0024;
117.9000;0.1522;-0.0072;
118.2000;0.1433;-0.0287;
118.5000;0.1522;-0.0072;
118.8000;0.1514;-0.0096;
119.1000;0.1514;-0.0024;
119.4000;0.1538;-0.0024;
119.7000;0.1506;-0.0143;
120.0000;0.1538;-0.0072;
120.3000;0.1514;-0.0096;
120.6000;0.1555;0.0000;
120.9000;0.1538;-0.0167;
121.2000;0.1604;0.0000;
121.5000;0.1506;-0.0263;
121.8000;0.1547;-0.0072;
122.1000;0.1538;0.0000;
122.4000;0.1563;-0.0048;
122.7000;0.1530;-0.0167;
123.0000;0.1457;-0.0454;
123.3000;0.1579;-0.0048;
123.6000;0.1530;-0.0143;
123.9000;0.1481;-0.0167;
124.2000;0.1473;-0.0239;
124.5000;0.1514;-0.0072;
124.8000;0.1530;-0.0048;
125.1000;0.1522;-0.0024;
125.4000;0.1538;0.0000;
125.7000;0.1644;0.0311;
126.0000;0.1530;0.0024;
126.3000;0.1530;0.0000;
126.6000;0.1530;-0.0048;
126.9000;0.1530;-0.0096;
127.2000;0.1522;-0.0119;
127.5000;0.1547;-0.0096;
127.8000;0.1433;-0.0382;
128.1000;0.1522;-0.0167;
128.4000;0.1538;-0.0119;
128.7000;0.1522;-0.0119;
129.0000;0.1538;-0.0096;
129.3000;0.1555;-0.0048;
129.6000;0.1538;-0.0048;
129.9000;0.1522;-0.0096;
130.2000;0.1498;-0.0167;
130.5000;0.1530;-0.0119;
130.8000;0.1530;-0.0048;
131.1000;0.1538;0.0048;
131.4000;0.1481;-0.0096;
131.7000;0.1522;0.0072;
132.0000;0.1530;0.0119;
132.3000;0.1506;0.0143;
132.6000;0.1555;0.0239;
132.9000;0.1595;0.0311;
133.2000;0.1547;0.0119;
133.5000;0.1522;0.0024;
133.8000;0.1538;0.0072;
134.1000;0.1522;-0.0048;
134.4000;0.1530;-0.0048;
134.7000;0.1538;-0.0024;
135.0000;0.1522;-0.0024;
135.3000;0.1538;0.0000;
135.6000;0.1547;-0.0024;
135.9000;0.1538;-0.0024;
136.2000;0.1490;-0.0143;
136.5000;0.1530;-0.0119;
136.8000;0.1506;-0.0167;
137.1000;0.1538;-0.0072;
137.4000;0.1538;-0.0024;
137.7000;0.1514;-0.0048;
138.0000;0.1563;0.0096;
138.3000;0.1563;0.0119;
138.6000;0.1538;0.0024;
138.9000;0.1514;-0.0024;
139.2000;0.1595;0.0167;
139.5000;0.1530;-0.0072;
139.8000;0.1555;-0.0072;
140.1000;0.1555;0.0048;
140.4000;0.1490;-0.0191;
140.7000;0.1547;0.0096;
141.0000;0.1547;0.0072;
141.3000;0.1555;0.0143;
141.6000;0.1522;0.0119;
141.9000;0.1490;0.0000;
142.2000;0.1555;0.0119;
142.5000;0.1530;0.0072;
142.8000;0.1530;0.0048;
143.1000;0.1522;0.0048;
143.4000;0.1522;0.0000;
143.7000;0.1563;0.0096;
144.0000;0.1522;-0.0024;
144.3000;0.1547;0.0096;
144.6000;0.1547;0.0143;
144.9000;0.1530;0.0119;
145.2000;0.1547;0.0167;
145.5000;0.1506;0.0143;
145.8000;0.1538;0.0167;
146.1000;0.1514;0.0143;
146.4000;0.1530;0.0215;
146.7000;0.1563;0.0191;
147.0000;0.1547;0.0191;
147.3000;0.1481;0.0048;
147.6000;0.1506;0.0096;
147.9000;0.1522;0.0000;
148.2000;0.1547;-0.0048;
148.5000;0.1530;-0.0143;
148.8000;0.1547;-0.0143;
149.1000;0.1530;-0.0048;
149.4000;0.1555;0.0000;
149.7000;0.1522;-0.0096;
150.0000;0.1530;0.0048;
150.3000;0.1563;0.0167;
150.6000;0.1506;0.0072;
150.9000;0.1416;-0.0191;
151.2000;0.1555;0.0096;
151.5000;0.1555;0.0048;
151.8000;0.1522;-0.0096;
152.1000;0.1530;-0.0072;
152.4000;0.1530;-0.0072;
152.7000;0.1506;-0.0096;
153.0000;0.1555;0.0024;
153.3000;0.1530;-0.0024;
153.6000;0.1530;-0.0072;
153.9000;0.1538;-0.0096;
154.2000;0.1547;-0.0119;
154.5000;0.1473;-0.0215;
154.8000;0.1538;0.0000;
155.1000;0.1425;-0.0358;
155.4000;0.1538;-0.0072;
155.7000;0.1530;-0.0119;
156.0000;0.1530;-0.0096;
156.3000;0.1530;-0.0072;
156.6000;0.1538;-0.0048;
156.9000;0.1595;0.0072;
157.2000;0.1522;-0.0119;
157.5000;0.1547;-0.0072;
157.8000;0.1514;-0.0119;
158.1000;0.1514;-0.0024;
158.4000;0.1555;0.0024;
158.7000;0.1522;0.0024;
159.0000;0.1538;0.0048;
159.3000;0.1530;0.0119;
159.6000;0.1522;0.0143;
159.9000;0.1506;0.0143;
160.2000;0.1636;0.0454;
160.5000;0.1522;0.0119;
160.8000;0.1538;0.0072;
161.1000;0.1514;0.0048;
161.4000;0.1571;0.0215;
161.7000;0.1530;0.0072;
162.0000;0.1563;0.0143;
162.3000;0.1498;0.0000;
162.6000;0.1563;0.0191;
162.9000;0.1522;0.0024;
163.2000;0.1433;-0.0191;
163.5000;0.1595;0.0215;
163.8000;0.1530;0.0072;
164.1000;0.1530;0.0143;
164.4000;0.1636;0.0358;
164.7000;0.1530;0.0024;
165.0000;0.1538;0.0239;
165.3000;0.1587;0.0406;
165.6000;0.1538;0.0311;
165.9000;0.1538;0.0311;
166.2000;0.1506;0.0263;
166.5000;0.1538;0.0382;
166.8000;0.1547;0.0287;
167.1000;0.1522;0.0119;
167.4000;0.1514;0.0096;
167.7000;0.1538;0.0119;
168.0000;0.1530;0.0096;
168.3000;0.1547;0.0215;
168.6000;0.1538;0.0191;
168.9000;0.1530;0.0048;
169.2000;0.1538;0.0143;
169.5000;0.1547;0.0143;
169.8000;0.1514;0.0072;
170.1000;0.1465;-0.0048;
170.4000;0.1530;0.0000;
170.7000;0.1547;0.0000;
171.0000;0.1547;-0.0048;
171.3000;0.1514;0.0048;
171.6000;0.1538;0.0096;
171.9000;0.1538;0.0096;
172.2000;0.1522;-0.0024;
172.5000;0.1547;-0.0096;
172.8000;0.1522;-0.0143;
173.1000;0.1514;-0.0167;
173.4000;0.1530;-0.0119;
173.7000;0.1506;-0.0167;
174.0000;0.1547;-0.0072;
174.3000;0.1498;-0.0287;
174.6000;0.1522;-0.0143;
174.9000;0.1538;-0.0119;
175.2000;0.1530;-0.0119;
175.5000;0.1530;-0.0096;
175.8000;0.1522;-0.0119;
176.1000;0.1530;-0.0119;
176.4000;0.1530;-0.0143;
176.7000;0.1522;-0.0167;
177.0000;0.1538;-0.0119;
177.3000;0.1530;-0.0239;
177.6000;0.1538;-0.0215;
177.9000;0.1547;-0.0167;
178.2000;0.1522;-0.0335;
178.5000;0.1498;-0.0335;
178.8000;0.1538;-0.0263;
179.1000;0.1457;-0.0358;
179.4000;0.1555;-0.0096;
179.7000;0.1538;-0.0024;
180.0000;0.1547;0.0072;
180.3000;0.1530;0.0048;
180.6000;0.1522;-0.0143;
180.9000;0.1506;-0.0096;
181.2000;0.1547;0.0072;
181.5000;0.1530;0.0048;
181.8000;0.1514;0.0048;
182.1000;0.1441;-0.0215;
182.4000;0.1538;0.0072;
182.7000;0.1522;0.0024;
183.0000;0.1530;0.0096;
183.3000;0.1522;0.0024;
183.6000;0.1547;0.0167;
183.9000;0.1498;0.0072;
184.2000;0.1408;-0.0143;
184.5000;0.1473;0.0072;
184.8000;0.1538;0.0215;
185.1000;0.1547;0.0191;
185.4000;0.1604;0.0382;
185.7000;0.1530;0.0119;
186.0000;0.1530;0.0191;
186.3000;0.1579;0.0239;
186.6000;0.1538;0.0143;
186.9000;0.1538;0.0119;
187.2000;0.1408;-0.0263;
187.5000;0.1514;-0.0048;
187.8000;0.1547;-0.0024;
188.1000;0.1538;-0.0024;
188.4000;0.1579;0.0048;
188.7000;0.1522;-0.0143;
189.0000;0.1555;-0.0048;
189.3000;0.1522;-0.0167;
189.6000;0.1522;-0.0143;
189.9000;0.1514;-0.0191;
190.2000;0.1538;-0.0191;
190.5000;0.1547;-0.0143;
190.8000;0.1538;-0.0096;
191.1000;0.1530;-0.0119;
191.4000;0.1514;-0.0167;
191.7000;0.1522;-0.0167;
192.0000;0.1522;-0.0167;
192.3000;0.1522;-0.0119;
192.6000;0.1547;-0.0048;
192.9000;0.1530;-0.0072;
193.2000;0.1547;0.0000;
193.5000;0.1506;0.0072;
193.8000;0.1522;0.0048;
194.1000;0.1538;0.0143;
194.4000;0.1571;0.0191;
194.7000;0.1530;0.0072;
195.0000;0.1498;-0.0096;
195.3000;0.1530;0.0048;
195.6000;0.1514;0.0072;
195.9000;0.1522;0.0048;
196.2000;0.1636;0.0382;
196.5000;0.1506;0.0096;
196.8000;0.1522;0.0119;
197.1000;0.1514;0.0000;
197.4000;0.1538;0.0072;
197.7000;0.1530;0.0048;
198.0000;0.1416;-0.0335;
198.3000;0.1530;-0.0072;
198.6000;0.1522;-0.0048;
198.9000;0.1555;0.0024;
199.2000;0.1547;-0.0048;
199.5000;0.1587;0.0048;
199.8000;0.1530;-0.0119;
200.1000;0.1547;-0.0024;
200.4000;0.1538;-0.0024;
200.7000;0.1530;0.0000;
201.0000;0.1538;0.0048;
201.3000;0.1530;-0.0072;
201.6000;0.1425;-0.0311;
201.9000;0.1506;-0.0215;
202.2000;0.1644;0.0263;
202.5000;0.1595;0.0143;
202.8000;0.1530;0.0000;
203.1000;0.1620;0.0191;
203.4000;0.1547;0.0048;
203.7000;0.1530;0.0000;
204.0000;0.1522;-0.0024;
204.3000;0.1547;0.0048;
204.6000;0.1465;-0.0215;
204.9000;0.1555;0.0000;
205.2000;0.1514;-0.0048;
205.5000;0.1498;-0.0143;
205.8000;0.1538;-0.0096;
206.1000;0.1555;-0.0096;
206.4000;0.1522;-0.0167;
206.7000;0.1547;-0.0119;
207.0000;0.1538;-0.0191;
207.3000;0.1514;-0.0215;
207.6000;0.1522;-0.0191;
207.9000;0.1506;-0.0167;
208.2000;0.1547;-0.0048;
208.5000;0.1538;-0.0072;
208.8000;0.1473;-0.0119;
209.1000;0.1547;0.0119;
209.4000;0.1538;0.0119;
209.7000;0.1538;0.0143;
210.0000;0.1522;0.0143;
210.3000;0.1530;0.0143;
210.6000;0.1547;0.0072;
210.9000;0.1481;-0.0143;
211.2000;0.1514;-0.0072;
211.5000;0.1522;-0.0143;
211.8000;0.1522;-0.0143;
212.1000;0.1522;-0.0143;
212.4000;0.1506;-0.0143;
212.7000;0.1506;-0.0143;
213.0000;0.1538;-0.0024;
213.3000;0.1555;0.0072;
213.6000;0.1555;0.0096;
213.9000;0.1522;0.0000;
214.2000;0.1506;-0.0048;
214.5000;0.1514;-0.0048;
214.8000;0.1530;0.0024;
215.1000;0.1506;0.0000;
215.4000;0.1481;-0.0024;
215.7000;0.1538;0.0072;
216.0000;0.1530;0.0048;
216.3000;0.1530;0.0048;
216.6000;0.1522;0.0119;
216.9000;0.1677;0.0478;
217.2000;0.1514;0.0000;
217.5000;0.1514;0.0119;
217.8000;0.1522;0.0072;
218.1000;0.1506;0.0048;
218.4000;0.1530;0.0096;
218.7000;0.1522;0.0072;
219.0000;0.1530;0.0167;
219.3000;0.1514;0.0167;
219.6000;0.1522;0.0263;
219.9000;0.1563;0.0263;
220.2000;0.1530;0.0119;
220.5000;0.1563;0.0143;
220.8000;0.1530;0.0048;
221.1000;0.1547;0.0143;
221.4000;0.1530;0.0119;
221.7000;0.1490;0.0119;
222.0000;0.1506;0.0119;
222.3000;0.1473;0.0024;
222.6000;0.1530;0.0167;
222.9000;0.1522;0.0119;
223.2000;0.1547;0.0191;
223.5000;0.1490;0.0072;
223.8000;0.1563;0.0263;
224.1000;0.1522;0.0167;
224.4000;0.1457;-0.0024;
224.7000;0.1547;0.0167;
225.0000;0.1522;0.0096;
225.3000;0.1530;0.0215;
225.6000;0.1522;0.0215;
225.9000;0.1522;0.0096;
226.2000;0.1506;0.0048;
226.5000;0.1514;0.0024;
226.8000;0.1490;-0.0048;
227.1000;0.1530;0.0096;
227.4000;0.1538;0.0048;
227.7000;0.1530;0.0024;
228.0000;0.1579;0.0167;
228.3000;0.1538;0.0119;
228.6000;0.1530;0.0072;
228.9000;0.1530;0.0119;
229.2000;0.1522;0.0119;
229.5000;0.1522;0.0167;
229.8000;0.1522;0.0167;
230.1000;0.1530;0.0215;
230.4000;0.1530;0.0287;
230.7000;0.1514;0.0191;
231.0000;0.1579;0.0263;
231.3000;0.1441;-0.0119;
231.6000;0.1538;0.0024;
231.9000;0.1538;0.0000;
232.2000;0.1530;0.0000;
232.5000;0.1538;0.0024;
232.8000;0.1530;0.0024;
233.1000;0.1538;0.0048;
233.4000;0.1530;0.0072;
233.7000;0.1522;0.0000;
234.0000;0.1530;-0.0096;
234.3000;0.1538;0.0000;
234.6000;0.1547;0.0119;
234.9000;0.1530;0.0072;
235.2000;0.1530;0.0000;
235.5000;0.1563;0.0119;
235.8000;0.1530;0.0072;
236.1000;0.1538;0.0048;
236.4000;0.1555;0.0096;
236.7000;0.1547;0.0072;
237.0000;0.1522;0.0000;
237.3000;0.1530;-0.0024;
237.6000;0.1498;-0.0072;
237.9000;0.1481;-0.0048;
238.2000;0.1522;0.0096;
238.5000;0.1522;0.0096;
238.8000;0.1514;0.0096;
239.1000;0.1530;0.0191;
239.4000;0.1506;0.0143;
239.7000;0.1514;0.0167;
240.0000;0.1449;-0.0143;
240.3000;0.1522;0.0000;
240.6000;0.1538;-0.0048;
240.9000;0.1530;-0.0072;
241.2000;0.1547;0.0000;
241.5000;0.1514;-0.0072;
241.8000;0.1530;0.0000;
242.1000;0.1547;0.0024;
242.4000;0.1547;0.0024;
242.7000;0.1522;-0.0096;
243.0000;0.1530;-0.0119;
243.3000;0.1481;-0.0239;
243.6000;0.1506;-0.0191;
243.9000;0.1506;-0.0143;
244.2000;0.1538;-0.0072;
244.5000;0.1522;0.0048;
244.8000;0.1530;0.0024;
245.1000;0.1514;0.0096;
245.4000;0.1563;0.0167;
245.7000;0.1547;0.0024;
246.0000;0.1555;0.0072;
246.3000;0.1530;0.0000;
246.6000;0.1498;-0.0048;
246.9000;0.1563;0.0096;
247.2000;0.1538;0.0000;
247.5000;0.1530;0.0000;
247.8000;0.1530;-0.0024;
248.1000;0.1555;0.0000;
248.4000;0.1530;-0.0048;
248.7000;0.1530;-0.0024;
249.0000;0.1522;0.0048;
249.3000;0.1547;0.0048;
249.6000;0.1530;0.0000;
249.9000;0.1587;0.0119;
250.2000;0.1604;0.0215;
250.5000;0.1538;0.0048;
250.8000;0.1547;0.0000;
251.1000;0.1538;-0.0024;
251.4000;0.1522;-0.0096;
251.7000;0.1522;0.0024;
252.0000;0.1522;-0.0024;
252.3000;0.1522;-0.0048;
252.6000;0.1538;0.0000;
252.9000;0.1522;-0.0048;
253.2000;0.1522;-0.0096;
253.5000;0.1547;-0.0096;
253.8000;0.1579;-0.0048;
254.1000;0.1530;-0.0167;
254.4000;0.1620;0.0048;
254.7000;0.1538;-0.0119;
255.0000;0.1563;-0.0072;
255.3000;0.1538;-0.0096;
255.6000;0.1530;-0.0143;
255.9000;0.1538;-0.0072;
256.2000;0.1522;-0.0072;
256.5000;0.1514;-0.0143;
256.8000;0.1522;-0.0167;
257.1000;0.1522;-0.0167;
257.4000;0.1530;-0.0048;
257.7000;0.1522;0.0000;
258.0000;0.1522;0.0024;
258.3000;0.1522;0.0024;
258.6000;0.1547;0.0072;
258.9000;0.1530;0.0096;
259.2000;0.1547;0.0143;
259.5000;0.1530;0.0119;
259.8000;0.1530;0.0048;
260.1000;0.1514;0.0072;
260.4000;0.1530;0.0096;
260.7000;0.1506;-0.0024;
261.0000;0.1514;-0.0024;
261.3000;0.1514;-0.0048;
261.6000;0.1522;-0.0096;
261.9000;0.1538;-0.0072;
262.2000;0.1522;-0.0072;
262.5000;0.1506;-0.0167;
262.8000;0.1538;-0.0096;
263.1000;0.1465;-0.0191;
263.4000;0.1555;-0.0048;
263.7000;0.1538;-0.0119;
264.0000;0.1538;0.0000;
264.3000;0.1571;0.0119;
264.6000;0.1514;-0.0072;
264.9000;0.1530;-0.0048;
265.2000;0.1538;0.0072;
265.5000;0.1530;0.0119;
265.8000;0.1506;0.0096;
266.1000;0.1514;0.0215;
266.4000;0.1530;0.0263;
266.7000;0.1514;0.0239;
267.0000;0.1522;0.0239;
267.3000;0.1522;0.0263;
267.6000;0.1514;0.0191;
267.9000;0.1522;0.0119;
268.2000;0.1555;0.0239;
268.5000;0.1538;0.0167;
268.8000;0.1595;0.0311;
269.1000;0.1522;0.0096;
269.4000;0.1514;0.0096;
269.7000;0.1514;0.0000;
270.0000;0.1595;0.0215;
270.3000;0.1514;-0.0024;
270.6000;0.1506;-0.0096;
270.9000;0.1498;-0.0119;
271.2000;0.1538;-0.0024;
271.5000;0.1587;0.0143;
271.8000;0.1522;0.0024;
272.1000;0.1408;-0.0311;
272.4000;0.1530;0.0048;
272.7000;0.1538;0.0167;
273.0000;0.1514;0.0239;
273.3000;0.1530;0.0287;
273.6000;0.1522;0.0263;
273.9000;0.1538;0.0287;
274.2000;0.1481;0.0167;
274.5000;0.1449;0.0024;
274.8000;0.1465;0.0072;
275.1000;0.1538;0.0119;
275.4000;0.1547;0.0000;
275.7000;0.1530;-0.0072;
276.0000;0.1522;-0.0024;
276.3000;0.1522;0.0000;
276.6000;0.1555;0.0024;
276.9000;0.1579;0.0048;
277.2000;0.1530;-0.0048;
277.5000;0.1514;-0.0096;
277.8000;0.1522;-0.0024;
278.1000;0.1538;0.0072;
278.4000;0.1514;0.0072;
278.7000;0.1547;0.0191;
279.0000;0.1514;0.0215;
279.3000;0.1571;0.0382;
279.6000;0.1530;0.0119;
279.9000;0.1661;0.0502;
280.2000;0.1555;0.0239;
280.5000;0.1530;0.0096;
280.8000;0.1473;-0.0096;
281.1000;0.1522;-0.0024;
281.4000;0.1522;0.0000;
281.7000;0.1530;0.0119;
282.0000;0.1522;0.0096;
282.3000;0.1498;0.0000;
282.6000;0.1514;0.0072;
282.9000;0.1490;-0.0048;
283.2000;0.1530;0.0048;
283.5000;0.1563;0.0096;
283.8000;0.1522;0.0048;
284.1000;0.1522;0.0024;
284.4000;0.1538;0.0048;
284.7000;0.1530;-0.0072;
285.0000;0.1547;0.0024;
285.3000;0.1530;0.0000;
285.6000;0.1538;0.0000;
285.9000;0.1530;-0.0096;
286.2000;0.1514;-0.0096;
286.5000;0.1555;-0.0048;
286.8000;0.1538;-0.0167;
287.1000;0.1514;-0.0167;
287.4000;0.1506;-0.0215;
287.7000;0.1506;-0.0239;
288.0000;0.1579;-0.0119;
288.3000;0.1538;-0.0239;
288.6000;0.1530;-0.0287;
288.9000;0.1538;-0.0311;
289.2000;0.1530;-0.0215;
289.5000;0.1538;-0.0167;
289.8000;0.1563;-0.0167;
290.1000;0.1530;-0.0263;
290.4000;0.1669;0.0143;
290.7000;0.1538;-0.0143;
291.0000;0.1555;-0.0024;
291.3000;0.1547;-0.0024;
291.6000;0.1522;-0.0167;
291.9000;0.1514;-0.0143;
292.2000;0.1563;-0.0024;
292.5000;0.1547;-0.0096;
292.8000;0.1522;-0.0119;
293.1000;0.1538;-0.0048;
293.4000;0.1530;0.0024;
293.7000;0.1538;0.0143;
294.0000;0.1522;0.0048;
294.3000;0.1514;-0.0024;
294.6000;0.1522;-0.0024;
294.9000;0.1481;-0.0191;
295.2000;0.1514;-0.0143;
295.5000;0.1473;-0.0287;
295.8000;0.1514;-0.0119;
296.1000;0.1587;0.0000;
296.4000;0.1530;-0.0167;
296.7000;0.1579;-0.0048;
297.0000;0.1400;-0.0550;
297.3000;0.1522;-0.0167;
297.6000;0.1522;-0.0048;
297.9000;0.1571;0.0048;
298.2000;0.1579;0.0048;
298.5000;0.1547;-0.0024;
298.8000;0.1530;0.0072;
299.1000;0.1522;0.0024;
299.4000;0.1522;0.0000;
299.7000;0.1538;-0.0024;
300.0000;0.1514;-0.0096;
300.3000;0.1530;-0.0119;
300.6000;0.1522;-0.0167;
300.9000;0.1547;-0.0096;
301.2000;0.1538;-0.0072;
301.5000;0.1530;-0.0096;
301.8000;0.1514;-0.0167;
302.1000;0.1538;-0.0048;
302.4000;0.1538;-0.0024;
302.7000;0.1530;0.0024;
303.0000;0.1506;-0.0024;
303.3000;0.1441;-0.0263;
303.6000;0.1538;0.0000;
303.9000;0.1514;-0.0048;
304.2000;0.1416;-0.0335;
304.5000;0.1530;-0.0048;
304.8000;0.1514;-0.0048;
305.1000;0.1530;0.0000;
305.4000;0.1547;0.0048;
305.7000;0.1522;-0.0048;
306.0000;0.1522;-0.0072;
306.3000;0.1677;0.0311;
306.6000;0.1530;-0.0143;
306.9000;0.1563;-0.0096;
307.2000;0.1522;-0.0119;
307.5000;0.1506;-0.0072;
307.8000;0.1522;-0.0096;
308.1000;0.1522;-0.0072;
308.4000;0.1514;-0.0143;
308.7000;0.1498;-0.0167;
309.0000;0.1514;-0.0072;
309.3000;0.1514;-0.0024;
309.6000;0.1514;-0.0072;
309.9000;0.1530;-0.0048;
310.2000;0.1538;-0.0119;
310.5000;0.1530;-0.0215;
310.8000;0.1530;-0.0167;
311.1000;0.1555;-0.0119;
311.4000;0.1604;-0.0024;
311.7000;0.1538;-0.0119;
312.0000;0.1547;-0.0143;
312.3000;0.1506;-0.0143;
312.6000;0.1465;-0.0119;
312.9000;0.1457;-0.0119;
313.2000;0.1514;-0.0048;
313.5000;0.1514;-0.0119;
313.8000;0.1538;0.0024;
314.1000;0.1530;0.0072;
314.4000;0.1522;0.0072;
314.7000;0.1506;0.0072;
315.0000;0.1514;0.0048;
315.3000;0.1514;0.0000;
315.6000;0.1522;0.0000;
315.9000;0.1481;-0.0072;
316.2000;0.1538;0.0024;
316.5000;0.1563;0.0119;
316.8000;0.1530;0.0096;
317.1000;0.1498;0.0072;
317.4000;0.1465;-0.0048;
317.7000;0.1538;0.0119;
318.0000;0.1538;0.0048;
318.3000;0.1547;0.0119;
318.6000;0.1514;0.0096;
318.9000;0.1530;0.0048;
319.2000;0.1530;0.0119;
319.5000;0.1498;0.0119;
319.8000;0.1530;0.0167;
320.1000;0.1628;0.0430;
320.4000;0.1547;0.0119;
320.7000;0.1595;0.0215;
321.0000;0.1547;-0.0048;
321.3000;0.1522;-0.0167;
321.6000;0.1530;-0.0167;
321.9000;0.1538;-0.0167;
322.2000;0.1579;-0.0072;
322.5000;0.1530;-0.0143;
322.8000;0.1498;-0.0167;
323.1000;0.1571;0.0048;
323.4000;0.1514;0.0024;
323.7000;0.1514;-0.0024;
324.0000;0.1522;0.0000;
324.3000;0.1530;0.0096;
324.6000;0.1530;0.0167;
324.9000;0.1506;-0.0024;
325.2000;0.1522;0.0000;
325.5000;0.1530;-0.0072;
325.8000;0.1530;-0.0096;
326.1000;0.1481;-0.0215;
326.4000;0.1522;-0.0096;
326.7000;0.1547;0.0024;
327.0000;0.1530;-0.0072;
327.3000;0.1530;-0.0096;
327.6000;0.1538;-0.0072;
327.9000;0.1522;-0.0096;
328.2000;0.1498;-0.0119;
328.5000;0.1547;-0.0024;
328.8000;0.1522;-0.0191;
329.1000;0.1498;-0.0311;
329.4000;0.1530;-0.0263;
329.7000;0.1538;-0.0167;
330.0000;0.1530;-0.0072;
330.3000;0.1506;-0.0143;
330.6000;0.1530;-0.0119;
330.9000;0.1547;-0.0024;
331.2000;0.1506;-0.0143;
331.5000;0.1498;-0.0191;
331.8000;0.1530;-0.0143;
332.1000;0.1555;-0.0048;
332.4000;0.1530;-0.0191;
332.7000;0.1538;-0.0191;
333.0000;0.1579;0.0000;
333.3000;0.1563;-0.0096;
333.6000;0.1538;-0.0215;
333.9000;0.1530;-0.0239;
334.2000;0.1498;-0.0335;
334.5000;0.1498;-0.0311;
334.8000;0.1538;-0.0287;
335.1000;0.1530;-0.0287;
335.4000;0.1514;-0.0191;
335.7000;0.1514;-0.0191;
336.0000;0.1538;-0.0191;
336.3000;0.1538;-0.0143;
336.6000;0.1522;-0.0143;
336.9000;0.1547;-0.0072;
337.2000;0.1522;-0.0096;
337.5000;0.1522;-0.0072;
337.8000;0.1481;-0.0143;
338.1000;0.1628;0.0263;
338.4000;0.1669;0.0382;
338.7000;0.1473;-0.0048;
339.0000;0.1555;0.0167;
339.3000;0.1530;0.0096;
339.6000;0.1538;0.0072;
339.9000;0.1522;0.0024;
340.2000;0.1547;0.0048;
340.5000;0.1514;0.0000;
340.8000;0.1538;0.0024;
341.1000;0.1506;-0.0096;
341.4000;0.1538;-0.0024;
341.7000;0.1433;-0.0287;
342.0000;0.1669;0.0311;
342.3000;0.1538;-0.0048;
342.6000;0.1538;-0.0072;
342.9000;0.1530;-0.0119;
343.2000;0.1604;0.0143;
343.5000;0.1587;0.0119;
343.8000;0.1538;-0.0096;
344.1000;0.1547;-0.0096;
344.4000;0.1555;-0.0048;
344.7000;0.1555;-0.0072;
345.0000;0.1530;-0.0072;
345.3000;0.1514;-0.0024;
345.6000;0.1547;0.0024;
345.9000;0.1563;0.0072;
346.2000;0.1498;-0.0143;
346.5000;0.1530;0.0000;
346.8000;0.1530;-0.0048;
347.1000;0.1522;-0.0048;
347.4000;0.1514;-0.0048;
347.7000;0.1530;0.0000;
348.0000;0.1547;0.0096;
348.3000;0.1538;0.0119;
348.6000;0.1506;0.0024;
348.9000;0.1530;0.0072;
349.2000;0.1538;0.0119;
349.5000;0.1547;0.0119;
349.8000;0.1522;0.0048;
350.1000;0.1538;0.0048;
350.4000;0.1530;0.0048;
350.7000;0.1547;0.0119;
351.0000;0.1498;0.0119;
351.3000;0.1506;0.0167;
351.6000;0.1530;0.0167;
351.9000;0.1547;0.0167;
352.2000;0.1538;0.0119;
352.5000;0.1514;0.0048;
352.8000;0.1530;0.0000;
353.1000;0.1506;-0.0048;
353.4000;0.1506;-0.0072;
353.7000;0.1530;-0.0024;
354.0000;0.1530;0.0048;
354.3000;0.1473;-0.0215;
354.6000;0.1530;-0.0024;
354.9000;0.1547;0.0048;
355.2000;0.1514;-0.0024;
355.5000;0.1522;-0.0024;
355.8000;0.1538;-0.0048;
356.1000;0.1498;-0.0191;
356.4000;0.1498;-0.0143;
356.7000;0.1538;-0.0119;
357.0000;0.1530;-0.0072;
357.3000;0.1530;-0.0191;
357.6000;0.1506;-0.0287;
357.9000;0.1514;-0.0287;
358.2000;0.1506;-0.0215;
358.5000;0.1595;0.0072;
358.8000;0.1473;-0.0311;
359.1000;0.1522;-0.0191;
359.4000;0.1530;-0.0143;
359.7000;0.1522;-0.0215;
360.0000;0.1522;-0.0215;
360.3000;0.1538;-0.0096;
360.6000;0.1538;-0.0143;
360.9000;0.1522;-0.0167;
361.2000;0.1547;-0.0024;
361.5000;0.1514;-0.0167;
361.8000;0.1506;-0.0287;
362.1000;0.1530;-0.0167;
362.4000;0.1538;-0.0191;
362.7000;0.1538;-0.0119;
363.0000;0.1522;-0.0119;
363.3000;0.1473;-0.0215;
363.6000;0.1522;-0.0191;
363.9000;0.1490;-0.0215;
364.2000;0.1514;-0.0191;
364.5000;0.1538;-0.0215;
364.8000;0.1530;-0.0215;
365.1000;0.1555;-0.0096;
365.4000;0.1538;-0.0167;
365.7000;0.1547;-0.0143;
366.0000;0.1587;0.0072;
366.3000;0.1522;-0.0143;
366.6000;0.1514;-0.0143;
366.9000;0.1538;-0.0048;
367.2000;0.1547;-0.0024;
367.5000;0.1547;-0.0024;
367.8000;0.1514;-0.0096;
368.1000;0.1514;0.0000;
368.4000;0.1538;0.0024;
368.7000;0.1514;-0.0096;
369.0000;0.1530;-0.0024;
369.3000;0.1547;-0.0024;
369.6000;0.1530;-0.0048;
369.9000;0.1498;-0.0096;
370.2000;0.1506;0.0024;
370.5000;0.1506;0.0048;
370.8000;0.1538;0.0191;
371.1000;0.1449;-0.0072;
371.4000;0.1506;-0.0048;
371.7000;0.1530;-0.0119;
372.0000;0.1555;-0.0072;
372.3000;0.1490;-0.0215;
372.6000;0.1530;-0.0096;
372.9000;0.1522;-0.0143;
373.2000;0.1604;0.0048;
373.5000;0.1522;-0.0191;
373.8000;0.1538;-0.0191;
374.1000;0.1538;-0.0191;
374.4000;0.1514;-0.0239;
374.7000;0.1530;-0.0119;
375.0000;0.1530;0.0000;
375.3000;0.1506;-0.0072;
375.6000;0.1538;0.0072;
375.9000;0.1530;0.0048;
376.2000;0.1522;-0.0048;
376.5000;0.1514;0.0072;
376.8000;0.1530;0.0072;
377.1000;0.1547;0.0143;
377.4000;0.1538;0.0096;
377.7000;0.1530;0.0048;
378.0000;0.1538;0.0048;
378.3000;0.1490;-0.0191;
378.6000;0.1530;-0.0143;
378.9000;0.1506;-0.0143;
379.2000;0.1522;-0.0072;
379.5000;0.1547;0.0096;
379.8000;0.1538;0.0119;
380.1000;0.1538;0.0072;
380.4000;0.1530;0.0048;
380.7000;0.1538;0.0048;
381.0000;0.1530;0.0024;
381.3000;0.1530;0.0024;
381.6000;0.1506;-0.0048;
381.9000;0.1538;-0.0048;
382.2000;0.1538;0.0000;
382.5000;0.1506;-0.0119;
382.8000;0.1530;-0.0096;
383.1000;0.1522;-0.0119;
383.4000;0.1538;-0.0167;
383.7000;0.1538;-0.0263;
384.0000;0.1538;-0.0311;
384.3000;0.1547;-0.0191;
384.6000;0.1522;-0.0191;
384.9000;0.1449;-0.0358;
385.2000;0.1514;-0.0191;
385.5000;0.1530;-0.0143;
385.8000;0.1547;-0.0119;
386.1000;0.1514;-0.0215;
386.4000;0.1547;-0.0096;
386.7000;0.1538;-0.0167;
387.0000;0.1441;-0.0430;
387.3000;0.1441;-0.0382;
387.6000;0.1538;-0.0167;
387.9000;0.1530;-0.0143;
388.2000;0.1433;-0.0406;
388.5000;0.1644;0.0239;
388.8000;0.1547;-0.0096;
389.1000;0.1530;-0.0191;
389.4000;0.1522;-0.0191;
389.7000;0.1530;-0.0143;
390.0000;0.1595;0.0024;
390.3000;0.1473;-0.0311;
390.6000;0.1530;-0.0239;
390.9000;0.1530;-0.0191;
391.2000;0.1514;-0.0167;
391.5000;0.1661;0.0167;
391.8000;0.1530;-0.0167;
392.1000;0.1506;-0.0239;
392.4000;0.1522;-0.0119;
392.7000;0.1547;0.0024;
393.0000;0.1522;-0.0048;
393.3000;0.1514;-0.0024;
393.6000;0.1522;0.0000;
393.9000;0.1555;0.0024;
394.2000;0.1538;-0.0096;
394.5000;0.1481;-0.0167;
394.8000;0.1522;-0.0143;
395.1000;0.1530;-0.0143;
395.4000;0.1530;-0.0215;
395.7000;0.1522;-0.0215;
396.0000;0.1530;-0.0191;
396.3000;0.1522;-0.0215;
396.6000;0.1538;-0.0239;
396.9000;0.1547;-0.0263;
397.2000;0.1538;-0.0215;
397.5000;0.1506;-0.0263;
397.8000;0.1530;-0.0143;
398.1000;0.1620;0.0048;
398.4000;0.1547;-0.0191;
398.7000;0.1522;-0.0167;
399.0000;0.1547;0.0000;
399.3000;0.1538;-0.0096;
399.6000;0.1514;-0.0143;
399.9000;0.1547;-0.0119;
400.2000;0.1547;-0.0024;
400.5000;0.1538;-0.0024;
400.8000;0.1538;0.0048;
401.1000;0.1514;0.0000;
401.4000;0.1498;-0.0024;
401.7000;0.1522;-0.0024;
402.0000;0.1514;-0.0167;
402.3000;0.1530;-0.0215;
402.6000;0.1514;-0.0191;
402.9000;0.1506;-0.0191;
403.2000;0.1547;-0.0119;
403.5000;0.1522;-0.0119;
403.8000;0.1522;-0.0072;
404.1000;0.1522;-0.0096;
404.4000;0.1522;-0.0096;
404.7000;0.1514;-0.0096;
405.0000;0.1498;-0.0119;
405.3000;0.1522;-0.0096;
405.6000;0.1538;-0.0096;
405.9000;0.1538;-0.0096;
406.2000;0.1498;-0.0239;
406.5000;0.1530;-0.0143;
406.8000;0.1514;-0.0239;
407.1000;0.1530;-0.0143;
407.4000;0.1522;-0.0215;
407.7000;0.1538;-0.0191;
408.0000;0.1514;-0.0143;
408.3000;0.1514;-0.0119;
408.6000;0.1530;-0.0048;
408.9000;0.1530;-0.0119;
409.2000;0.1538;-0.0096;
409.5000;0.1555;-0.0096;
409.8000;0.1555;-0.0191;
410.1000;0.1498;-0.0335;
410.4000;0.1587;-0.0119;
410.7000;0.1498;-0.0454;
411.0000;0.1652;-0.0024;
411.3000;0.1457;-0.0478;
411.6000;0.1514;-0.0311;
411.9000;0.1522;-0.0215;
412.2000;0.1522;-0.0167;
412.5000;0.1473;-0.0239;
412.8000;0.1538;-0.0119;
413.1000;0.1538;-0.0048;
413.4000;0.1612;0.0119;
413.7000;0.1620;0.0215;
414.0000;0.1522;-0.0119;
414.3000;0.1547;0.0000;
414.6000;0.1538;0.0024;
414.9000;0.1498;-0.0072;
415.2000;0.1530;0.0024;
415.5000;0.1595;0.0167;
415.8000;0.1522;-0.0024;
416.1000;0.1514;-0.0024;
416.4000;0.1538;0.0072;
416.7000;0.1530;0.0000;
417.0000;0.1547;-0.0096;
417.3000;0.1530;-0.0191;
417.6000;0.1530;-0.0167;
417.9000;0.1506;-0.0239;
418.2000;0.1547;-0.0239;
418.5000;0.1547;-0.0263;
418.8000;0.1522;-0.0358;
419.1000;0.1522;-0.0311;
419.4000;0.1522;-0.0287;
419.7000;0.1547;-0.0167;
420.0000;0.1547;-0.0167;
420.3000;0.1530;-0.0143;
420.6000;0.1538;-0.0024;
420.9000;0.1538;-0.0048;
421.2000;0.1538;0.0024;
421.5000;0.1571;0.0000;
421.8000;0.1530;-0.0048;
422.1000;0.1530;0.0048;
422.4000;0.1514;-0.0024;
422.7000;0.1555;0.0072;
423.0000;0.1473;-0.0072;
423.3000;0.1506;0.0024;
423.6000;0.1547;0.0119;
423.9000;0.1522;0.0072;
424.2000;0.1547;0.0072;
424.5000;0.1530;0.0072;
424.8000;0.1522;0.0072;
425.1000;0.1530;0.0072;
425.4000;0.1547;0.0072;
425.7000;0.1530;-0.0024;
426.0000;0.1522;0.0000;
426.3000;0.1547;0.0024;
426.6000;0.1506;-0.0048;
426.9000;0.1473;-0.0239;
427.2000;0.1538;-0.0024;
427.5000;0.1538;-0.0048;
427.8000;0.1538;-0.0048;
428.1000;0.1522;-0.0048;
428.4000;0.1408;-0.0382;
428.7000;0.1514;-0.0143;
429.0000;0.1530;-0.0143;
429.3000;0.1538;-0.0072;
429.6000;0.1538;-0.0072;
429.9000;0.1595;0.0024;
430.2000;0.1530;-0.0072;
430.5000;0.1506;-0.0048;
430.8000;0.1530;-0.0048;
431.1000;0.1530;-0.0119;
431.4000;0.1530;-0.0143;
431.7000;0.1522;-0.0191;
432.0000;0.1555;-0.0096;
432.3000;0.1538;-0.0119;
432.6000;0.1538;-0.0096;
432.9000;0.1563;-0.0048;
433.2000;0.1506;-0.0215;
433.5000;0.1530;-0.0167;
433.8000;0.1530;-0.0215;
434.1000;0.1547;-0.0239;
434.4000;0.1530;-0.0263;
434.7000;0.1514;-0.0215;
435.0000;0.1530;-0.0119;
435.3000;0.1547;-0.0119;
435.6000;0.1522;-0.0239;
435.9000;0.1522;-0.0287;
436.2000;0.1522;-0.0239;
436.5000;0.1538;-0.0191;
436.8000;0.1522;-0.0287;
437.1000;0.1473;-0.0406;
437.4000;0.1530;-0.0263;
437.7000;0.1530;-0.0167;
438.0000;0.1498;-0.0167;
438.3000;0.1522;-0.0143;
438.6000;0.1498;-0.0191;
438.9000;0.1530;-0.0072;
439.2000;0.1530;-0.0119;
439.5000;0.1530;-0.0167;
439.8000;0.1506;-0.0143;
440.1000;0.1530;-0.0119;
440.4000;0.1522;-0.0215;
440.7000;0.1579;0.0024;
441.0000;0.1514;-0.0143;
441.3000;0.1481;-0.0191;
441.6000;0.1522;-0.0096;
441.9000;0.1547;-0.0024;
442.2000;0.1538;-0.0048;
442.5000;0.1514;-0.0215;
442.8000;0.1538;-0.0215;
443.1000;0.1538;-0.0143;
443.4000;0.1530;-0.0072;
443.7000;0.1514;-0.0096;
444.0000;0.1506;-0.0119;
444.3000;0.1538;0.0024;
444.6000;0.1506;-0.0024;
444.9000;0.1514;0.0048;
445.2000;0.1538;0.0167;
445.5000;0.1522;0.0119;
445.8000;0.1538;0.0167;
446.1000;0.1555;0.0143;
446.4000;0.1563;0.0167;
446.7000;0.1530;0.0119;
447.0000;0.1555;0.0119;
447.3000;0.1498;0.0024;
447.6000;0.1538;0.0048;
447.9000;0.1522;-0.0048;
448.2000;0.1514;-0.0096;
448.5000;0.1522;-0.0048;
448.8000;0.1498;-0.0143;
449.1000;0.1530;-0.0024;
449.4000;0.1604;0.0096;
449.7000;0.1506;-0.0143;
450.0000;0.1530;-0.0119;
450.3000;0.1538;-0.0096;
450.6000;0.1547;-0.0048;
450.9000;0.1522;-0.0167;
451.2000;0.1538;-0.0215;
451.5000;0.1620;0.0072;
451.8000;0.1538;-0.0143;
452.1000;0.1538;-0.0167;
452.4000;0.1514;-0.0191;
452.7000;0.1522;-0.0143;
453.0000;0.1530;-0.0215;
453.3000;0.1555;-0.0263;
453.6000;0.1530;-0.0239;
453.9000;0.1514;-0.0215;
454.2000;0.1514;-0.0215;
454.5000;0.1522;-0.0191;
454.8000;0.1538;-0.0191;
455.1000;0.1530;-0.0263;
455.4000;0.1538;-0.0191;
455.7000;0.1441;-0.0335;
456.0000;0.1473;-0.0287;
456.3000;0.1490;-0.0191;
456.6000;0.1522;-0.0096;
456.9000;0.1628;0.0191;
457.2000;0.1490;-0.0096;
457.5000;0.1514;-0.0024;
457.8000;0.1522;0.0000;
458.1000;0.1530;0.0048;
458.4000;0.1530;0.0143;
458.7000;0.1449;-0.0096;
459.0000;0.1514;0.0072;
459.3000;0.1522;0.0024;
459.6000;0.1538;0.0024;
459.9000;0.1538;0.0000;
460.2000;0.1506;-0.0048;
460.5000;0.1522;-0.0024;
460.8000;0.1530;-0.0024;
461.1000;0.1538;-0.0048;
461.4000;0.1498;-0.0096;
461.7000;0.1473;-0.0239;
462.0000;0.1506;-0.0072;
462.3000;0.1498;-0.0072;
462.6000;0.1530;-0.0024;
462.9000;0.1530;-0.0072;
463.2000;0.1522;-0.0048;
463.5000;0.1547;0.0000;
463.8000;0.1530;0.0000;
464.1000;0.1555;0.0048;
464.4000;0.1522;-0.0096;
464.7000;0.1514;-0.0048;
465.0000;0.1538;0.0072;
465.3000;0.1506;0.0072;
465.6000;0.1522;0.0072;
465.9000;0.1538;0.0048;
466.2000;0.1530;0.0024;
466.5000;0.1481;-0.0096;
466.8000;0.1538;0.0072;
467.1000;0.1498;0.0048;
467.4000;0.1538;0.0167;
467.7000;0.1538;0.0119;
468.0000;0.1547;0.0096;
468.3000;0.1416;-0.0263;
468.6000;0.1547;-0.0072;
468.9000;0.1555;-0.0024;
469.2000;0.1547;-0.0072;
469.5000;0.1555;-0.0048;
469.8000;0.1514;-0.0096;
470.1000;0.1530;-0.0072;
470.4000;0.1490;-0.0143;
470.7000;0.1538;-0.0024;
471.0000;0.1522;-0.0048;
471.3000;0.1530;0.0000;
471.6000;0.1530;0.0024;
471.9000;0.1538;0.0048;
472.2000;0.1506;0.0024;
472.5000;0.1441;-0.0191;
472.8000;0.1522;0.0024;
473.1000;0.1506;0.0000;
473.4000;0.1449;-0.0119;
473.7000;0.1473;-0.0048;
474.0000;0.1514;0.0096;
474.3000;0.1530;0.0167;
474.6000;0.1522;0.0096;
474.9000;0.1530;0.0119;
475.2000;0.1579;0.0119;
475.5000;0.1530;0.0000;
475.8000;0.1522;-0.0143;
476.1000;0.1530;-0.0096;
476.4000;0.1538;-0.0119;
476.7000;0.1538;-0.0167;
477.0000;0.1473;-0.0382;
477.3000;0.1522;-0.0311;
477.6000;0.1514;-0.0335;
477.9000;0.1522;-0.0406;
478.2000;0.1530;-0.0430;
478.5000;0.1522;-0.0454;
478.8000;0.1530;-0.0382;
479.1000;0.1506;-0.0335;
479.4000;0.1555;-0.0191;
479.7000;0.1555;-0.0191;
480.0000;0.1547;-0.0167;
480.3000;0.1522;-0.0263;
480.6000;0.1555;-0.0072;
480.9000;0.1498;-0.0215;
481.2000;0.1530;-0.0072;
481.5000;0.1490;-0.0143;
481.8000;0.1530;-0.0119;
482.1000;0.1563;-0.0024;
482.4000;0.1506;-0.0215;
482.7000;0.1538;-0.0191;
483.0000;0.1490;-0.0239;
483.3000;0.1530;-0.0167;
483.6000;0.1644;0.0215;
483.9000;0.1530;-0.0119;
484.2000;0.1522;0.0024;
484.5000;0.1571;0.0143;
484.8000;0.1571;0.0263;
485.1000;0.1538;0.0167;
485.4000;0.1506;0.0167;
485.7000;0.1530;0.0167;
486.0000;0.1571;0.0263;
486.3000;0.1587;0.0263;
486.6000;0.1530;0.0119;
486.9000;0.1652;0.0478;
487.2000;0.1490;0.0024;
487.5000;0.1538;0.0143;
487.8000;0.1522;0.0119;
488.1000;0.1538;0.0072;
488.4000;0.1547;0.0143;
488.7000;0.1530;0.0072;
489.0000;0.1514;0.0048;
489.3000;0.1628;0.0287;
489.6000;0.1522;-0.0072;
489.9000;0.1522;-0.0048;
490.2000;0.1547;0.0096;
490.5000;0.1530;0.0096;
490.8000;0.1547;0.0143;
491.1000;0.1538;0.0119;
491.4000;0.1530;0.0119;
491.7000;0.1473;0.0024;
492.0000;0.1538;0.0143;
492.3000;0.1538;0.0167;
492.6000;0.1506;0.0048;
492.9000;0.1514;0.0119;
493.2000;0.1490;0.0096;
493.5000;0.1522;0.0239;
493.8000;0.1538;0.0119;
494.1000;0.1506;0.0048;
494.4000;0.1530;0.0000;
494.7000;0.1530;-0.0048;
495.0000;0.1538;-0.0024;
495.3000;0.1538;0.0000;
495.6000;0.1522;-0.0048;
495.9000;0.1522;0.0048;
496.2000;0.1530;0.0000;
496.5000;0.1522;0.0024;
496.8000;0.1538;0.0024;
497.1000;0.1530;0.0000;
497.4000;0.1571;0.0167;
497.7000;0.1498;-0.0048;
498.0000;0.1506;-0.0024;
498.3000;0.1555;0.0048;
498.6000;0.1514;0.0000;
498.9000;0.1547;0.0072;
499.2000;0.1514;0.0048;
499.5000;0.1433;-0.0239;
499.8000;0.1530;-0.0048;
500.1000;0.1514;-0.0048;
500.4000;0.1506;-0.0167;
500.7000;0.1506;-0.0167;
501.0000;0.1514;-0.0143;
501.3000;0.1547;-0.0096;
501.6000;0.1530;-0.0191;
501.9000;0.1538;-0.0191;
502.2000;0.1530;-0.0239;
502.5000;0.1514;-0.0239;
502.8000;0.1522;-0.0215;
503.1000;0.1522;-0.0167;
503.4000;0.1555;-0.0143;
503.7000;0.1514;-0.0191;
504.0000;0.1571;-0.0072;
504.3000;0.1441;-0.0478;
504.6000;0.1514;-0.0287;
504.9000;0.1514;-0.0263;
505.2000;0.1538;-0.0215;
505.5000;0.1547;-0.0143;
505.8000;0.1530;-0.0239;
506.1000;0.1538;-0.0143;
506.4000;0.1538;-0.0263;
506.7000;0.1538;-0.0311;
507.0000;0.1563;-0.0215;
507.3000;0.1425;-0.0550;
507.6000;0.1612;-0.0072;
507.9000;0.1530;-0.0215;
508.2000;0.1498;-0.0311;
508.5000;0.1522;-0.0215;
508.8000;0.1514;-0.0287;
509.1000;0.1481;-0.0454;
509.4000;0.1522;-0.0311;
509.7000;0.1538;-0.0239;
510.0000;0.1522;-0.0239;
510.3000;0.1498;-0.0263;
510.6000;0.1530;-0.0167;
510.9000;0.1498;-0.0263;
511.2000;0.1563;-0.0048;
511.5000;0.1547;-0.0048;
511.8000;0.1579;0.0000;
512.1000;0.1506;-0.0215;
512.4000;0.1530;-0.0191;
512.7000;0.1530;-0.0263;
513.0000;0.1498;-0.0335;
513.3000;0.1538;-0.0263;
513.6000;0.1538;-0.0311;
513.9000;0.1530;-0.0335;
514.2000;0.1555;-0.0335;
514.5000;0.1514;-0.0382;
514.8000;0.1473;-0.0406;
515.1000;0.1457;-0.0430;
515.4000;0.1538;-0.0239;
515.7000;0.1571;-0.0215;
516.0000;0.1538;-0.0335;
516.3000;0.1604;-0.0239;
516.6000;0.1530;-0.0430;
516.9000;0.1538;-0.0406;
517.2000;0.1522;-0.0502;
517.5000;0.1522;-0.0526;
517.8000;0.1579;-0.0311;
518.1000;0.1538;-0.0382;
518.4000;0.1538;-0.0358;
518.7000;0.1604;-0.0143;
519.0000;0.1530;-0.0311;
519.3000;0.1506;-0.0335;
519.6000;0.1538;-0.0287;
519.9000;0.1490;-0.0550;
520.2000;0.1538;-0.0430;
520.5000;0.1449;-0.0621;
520.8000;0.1506;-0.0478;
521.1000;0.1522;-0.0406;
521.4000;0.1530;-0.0358;
521.7000;0.1547;-0.0335;
522.0000;0.1530;-0.0335;
522.3000;0.1498;-0.0358;
522.6000;0.1530;-0.0335;
522.9000;0.1538;-0.0335;
523.2000;0.1571;-0.0191;
523.5000;0.1522;-0.0311;
523.8000;0.1555;-0.0191;
524.1000;0.1530;-0.0263;
524.4000;0.1547;-0.0215;
524.7000;0.1522;-0.0311;
525.0000;0.1547;-0.0263;
525.3000;0.1547;-0.0215;
525.6000;0.1538;-0.0239;
525.9000;0.1604;-0.0024;
526.2000;0.1636;-0.0024;
526.5000;0.1522;-0.0263;
526.8000;0.1595;-0.0096;
527.1000;0.1457;-0.0430;
527.4000;0.1514;-0.0096;
527.7000;0.1522;-0.0096;
528.0000;0.1555;-0.0096;
528.3000;0.1579;-0.0096;
528.6000;0.1481;-0.0382;
528.9000;0.1514;-0.0358;
529.2000;0.1514;-0.0287;
529.5000;0.1587;-0.0072;
529.8000;0.1522;-0.0191;
530.1000;0.1522;-0.0239;
530.4000;0.1498;-0.0239;
530.7000;0.1547;-0.0143;
531.0000;0.1530;-0.0143;
531.3000;0.1481;-0.0287;
531.6000;0.1514;-0.0119;
531.9000;0.1522;-0.0072;
532.2000;0.1538;-0.0072;
532.5000;0.1555;0.0000;
532.8000;0.1400;-0.0358;
533.1000;0.1522;-0.0024;
533.4000;0.1530;-0.0048;
533.7000;0.1530;0.0000;
534.0000;0.1563;0.0048;
534.3000;0.1538;-0.0024;
534.6000;0.1538;-0.0024;
534.9000;0.1530;-0.0072;
535.2000;0.1465;-0.0287;
535.5000;0.1514;-0.0167;
535.8000;0.1587;0.0024;
536.1000;0.1538;-0.0143;
536.4000;0.1522;-0.0119;
536.7000;0.1514;-0.0191;
537.0000;0.1522;-0.0143;
537.3000;0.1498;-0.0191;
537.6000;0.1514;-0.0239;
537.9000;0.1530;-0.0167;
538.2000;0.1538;-0.0191;
538.5000;0.1538;-0.0143;
538.8000;0.1547;-0.0167;
539.1000;0.1571;-0.0024;
539.4000;0.1563;-0.0096;
539.7000;0.1547;-0.0119;
540.0000;0.1522;-0.0143;
540.3000;0.1514;-0.0167;
540.6000;0.1538;-0.0048;
540.9000;0.1522;-0.0119;
541.2000;0.1498;-0.0119;
541.5000;0.1538;-0.0096;
541.8000;0.1538;-0.0167;
542.1000;0.1506;-0.0215;
542.4000;0.1547;-0.0143;
542.7000;0.1530;-0.0239;
543.0000;0.1522;-0.0167;
543.3000;0.1522;-0.0167;
543.6000;0.1530;-0.0167;
543.9000;0.1547;-0.0191;
544.2000;0.1661;0.0119;
544.5000;0.1547;-0.0239;
544.8000;0.1506;-0.0358;
545.1000;0.1538;-0.0215;
545.4000;0.1481;-0.0430;
545.7000;0.1514;-0.0239;
546.0000;0.1522;-0.0215;
546.3000;0.1563;-0.0072;
546.6000;0.1571;-0.0048;
546.9000;0.1514;-0.0143;
547.2000;0.1587;0.0000;
547.5000;0.1530;-0.0191;
547.8000;0.1522;-0.0239;
548.1000;0.1530;-0.0191;
548.4000;0.1555;-0.0143;
548.7000;0.1530;-0.0143;
549.0000;0.1530;-0.0167;
549.3000;0.1498;-0.0239;
549.6000;0.1538;-0.0167;
549.9000;0.1547;-0.0143;
550.2000;0.1514;-0.0239;
550.5000;0.1530;-0.0215;
550.8000;0.1498;-0.0311;
551.1000;0.1571;-0.0167;
551.4000;0.1522;-0.0191;
551.7000;0.1595;0.0048;
552.0000;0.1408;-0.0478;
552.3000;0.1514;-0.0191;
552.6000;0.1433;-0.0454;
552.9000;0.1514;-0.0215;
553.2000;0.1522;-0.0215;
553.5000;0.1522;-0.0311;
553.8000;0.1522;-0.0263;
554.1000;0.1547;-0.0167;
554.4000;0.1522;-0.0215;
554.7000;0.1465;-0.0335;
555.0000;0.1506;-0.0215;
555.3000;0.1555;-0.0143;
555.6000;0.1587;0.0024;
555.9000;0.1538;-0.0119;
556.2000;0.1530;-0.0096;
556.5000;0.1538;-0.0096;
556.8000;0.1522;-0.0096;
557.1000;0.1530;-0.0096;
557.4000;0.1547;-0.0072;
557.7000;0.1538;-0.0119;
558.0000;0.1538;-0.0119;
558.3000;0.1522;-0.0048;
558.6000;0.1530;-0.0048;
558.9000;0.1547;0.0000;
559.2000;0.1555;0.0024;
559.5000;0.1555;0.0048;
559.8000;0.1538;0.0000;
560.1000;0.1563;0.0096;
560.4000;0.1530;0.0048;
560.7000;0.1547;0.0048;
561.0000;0.1538;0.0119;
561.3000;0.1530;0.0119;
561.6000;0.1538;0.0143;
561.9000;0.1547;0.0096;
562.2000;0.1498;-0.0096;
562.5000;0.1538;0.0024;
562.8000;0.1555;-0.0072;
563.1000;0.1555;-0.0119;
563.4000;0.1547;-0.0072;
563.7000;0.1530;-0.0024;
564.0000;0.1538;-0.0024;
564.3000;0.1514;-0.0096;
564.6000;0.1522;-0.0072;
564.9000;0.1514;0.0000;
565.2000;0.1506;0.0000;
565.5000;0.1522;0.0096;
565.8000;0.1498;0.0119;
566.1000;0.1579;0.0287;
566.4000;0.1514;0.0119;
566.7000;0.1538;0.0143;
567.0000;0.1538;0.0096;
567.3000;0.1555;0.0048;
567.6000;0.1530;0.0000;
567.9000;0.1563;0.0024;
568.2000;0.1555;-0.0072;
568.5000;0.1498;-0.0191;
568.8000;0.1514;-0.0263;
569.1000;0.1522;-0.0263;
569.4000;0.1579;0.0048;
569.7000;0.1538;-0.0072;
570.0000;0.1530;-0.0191;
570.3000;0.1587;0.0000;
570.6000;0.1514;-0.0167;
570.9000;0.1538;-0.0143;
571.2000;0.1506;-0.0096;
571.5000;0.1538;-0.0048;
571.8000;0.1514;-0.0048;
572.1000;0.1538;0.0000;
572.4000;0.1538;0.0000;
572.7000;0.1514;-0.0096;
573.0000;0.1530;-0.0072;
573.3000;0.1530;-0.0096;
573.6000;0.1514;-0.0143;
573.9000;0.1530;-0.0024;
574.2000;0.1490;-0.0024;
574.5000;0.1481;-0.0024;
574.8000;0.1522;0.0072;
575.1000;0.1547;0.0191;
575.4000;0.1530;0.0167;
575.7000;0.1547;0.0119;
576.0000;0.1547;0.0072;
576.3000;0.1522;-0.0072;
576.6000;0.1571;0.0024;
576.9000;0.1522;-0.0096;
577.2000;0.1514;-0.0167;
577.5000;0.1530;-0.0143;
577.8000;0.1538;-0.0143;
578.1000;0.1555;-0.0191;
578.4000;0.1547;-0.0191;
578.7000;0.1490;-0.0287;
579.0000;0.1514;-0.0239;
579.3000;0.1514;-0.0287;
579.6000;0.1522;-0.0311;
579.9000;0.1530;-0.0335;
580.2000;0.1490;-0.0358;
580.5000;0.1506;-0.0406;
580.8000;0.1522;-0.0311;
581.1000;0.1538;-0.0215;
581.4000;0.1547;-0.0191;
581.7000;0.1522;-0.0311;
582.0000;0.1514;-0.0358;
582.3000;0.1522;-0.0263;
582.6000;0.1514;-0.0167;
582.9000;0.1555;-0.0048;
583.2000;0.1555;0.0096;
583.5000;0.1538;0.0143;
583.8000;0.1530;0.0167;
584.1000;0.1579;0.0215;
584.4000;0.1522;0.0048;
584.7000;0.1498;-0.0048;
585.0000;0.1555;0.0048;
585.3000;0.1530;0.0048;
585.6000;0.1538;0.0000;
585.9000;0.1530;-0.0072;
586.2000;0.1506;-0.0072;
586.5000;0.1538;0.0000;
586.8000;0.1522;0.0000;
587.1000;0.1547;-0.0072;
587.4000;0.1538;-0.0096;
587.7000;0.1547;-0.0048;
588.0000;0.1522;-0.0024;
588.3000;0.1530;0.0000;
588.6000;0.1530;0.0000;
588.9000;0.1538;0.0000;
589.2000;0.1547;0.0024;
589.5000;0.1522;-0.0048;
589.8000;0.1579;0.0215;
590.1000;0.1538;0.0024;
590.4000;0.1514;-0.0072;
590.7000;0.1522;-0.0096;
591.0000;0.1522;-0.0119;
591.3000;0.1538;-0.0048;
591.6000;0.1514;0.0024;
591.9000;0.1530;0.0143;
592.2000;0.1514;0.0143;
592.5000;0.1538;0.0143;
592.8000;0.1538;0.0119;
593.1000;0.1538;0.0119;
593.4000;0.1530;0.0119;
593.7000;0.1514;0.0119;
594.0000;0.1579;0.0287;
594.3000;0.1538;0.0167;
594.6000;0.1538;0.0191;
594.9000;0.1538;0.0167;
595.2000;0.1538;0.0000;
595.5000;0.1538;0.0024;
595.8000;0.1522;-0.0024;
596.1000;0.1547;0.0000;
596.4000;0.1522;-0.0048;
596.7000;0.1514;0.0000;
597.0000;0.1506;-0.0024;
597.3000;0.1498;-0.0119;
597.6000;0.1522;-0.0119;
597.9000;0.1522;-0.0143;
598.2000;0.1538;-0.0096;
598.5000;0.1538;-0.0191;
598.8000;0.1538;-0.0215;
599.1000;0.1538;-0.0215;
599.4000;0.1538;-0.0239;
599.7000;0.1604;-0.0072;
600.0000;0.1506;-0.0335;
600.3000;0.1530;-0.0287;
600.6000;0.1530;-0.0311;
600.9000;0.1538;-0.0454;
601.2000;0.1522;-0.0550;
601.5000;0.1522;-0.0645;
601.8000;0.1514;-0.0789;
602.1000;0.1538;-0.0812;
602.4000;0.1522;-0.0932;
602.7000;0.1530;-0.1004;
603.0000;0.1514;-0.1099;
603.3000;0.1538;-0.1123;
603.6000;0.1522;-0.1171;
603.9000;0.1514;-0.1219;
604.2000;0.1538;-0.1171;
604.5000;0.1538;-0.1099;
604.8000;0.1514;-0.1123;
605.1000;0.1522;-0.1123;
605.4000;0.1465;-0.1243;
605.7000;0.1506;-0.1075;
606.0000;0.1506;-0.1075;
606.3000;0.1514;-0.1004;
606.6000;0.1498;-0.1099;
606.9000;0.1514;-0.1099;
607.2000;0.1498;-0.1219;
607.5000;0.1530;-0.1147;
607.8000;0.1514;-0.1266;
608.1000;0.1522;-0.1219;
608.4000;0.1506;-0.1219;
608.7000;0.1481;-0.1243;
609.0000;0.1514;-0.1171;
609.3000;0.1506;-0.1171;
609.6000;0.1506;-0.1051;
609.9000;0.1514;-0.1051;
610.2000;0.1498;-0.1075;
610.5000;0.1522;-0.1004;
610.8000;0.1498;-0.1051;
611.1000;0.1506;-0.1004;
611.4000;0.1506;-0.1051;
611.7000;0.1457;-0.1171;
612.0000;0.1506;-0.1075;
612.3000;0.1506;-0.1051;
612.6000;0.1433;-0.1219;
612.9000;0.1498;-0.1004;
613.2000;0.1522;-0.0980;
613.5000;0.1490;-0.1051;
613.8000;0.1490;-0.1075;
614.1000;0.1522;-0.1051;
614.4000;0.1506;-0.1075;
614.7000;0.1522;-0.1075;
615.0000;0.1514;-0.1051;
615.3000;0.1514;-0.1028;
615.6000;0.1538;-0.0956;
615.9000;0.1522;-0.1004;
616.2000;0.1522;-0.1075;
616.5000;0.1506;-0.1147;
616.8000;0.1498;-0.1195;
617.1000;0.1498;-0.1243;
617.4000;0.1547;-0.1195;
617.7000;0.1473;-0.1338;
618.0000;0.1506;-0.1195;
618.3000;0.1449;-0.1314;
618.6000;0.1530;-0.1123;
618.9000;0.1457;-0.1314;
619.2000;0.1522;-0.1099;
619.5000;0.1506;-0.1195;
619.8000;0.1506;-0.1219;
620.1000;0.1498;-0.1338;
620.4000;0.1498;-0.1362;
620.7000;0.1473;-0.1434;
621.0000;0.1433;-0.1434;
621.3000;0.1490;-0.1266;
621.6000;0.1547;-0.1075;
621.9000;0.1506;-0.1290;
622.2000;0.1481;-0.1362;
622.5000;0.1490;-0.1362;
622.8000;0.1506;-0.1338;
623.1000;0.1514;-0.1266;
623.4000;0.1506;-0.1362;
623.7000;0.1473;-0.1434;
624.0000;0.1522;-0.1266;
624.3000;0.1490;-0.1290;
624.6000;0.1563;-0.1147;
624.9000;0.1506;-0.1338;
625.2000;0.1490;-0.1362;
625.5000;0.1514;-0.1314;
625.8000;0.1490;-0.1386;
626.1000;0.1457;-0.1458;
626.4000;0.1490;-0.1362;
626.7000;0.1506;-0.1362;
627.0000;0.1498;-0.1338;
627.3000;0.1498;-0.1362;
627.6000;0.1498;-0.1243;
627.9000;0.1506;-0.1171;
628.2000;0.1522;-0.1075;
628.5000;0.1652;-0.0741;
628.8000;0.1498;-0.1075;
629.1000;0.1490;-0.1051;
629.4000;0.1506;-0.1099;
629.7000;0.1506;-0.1171;
630.0000;0.1522;-0.1147;
630.3000;0.1498;-0.1171;
630.6000;0.1498;-0.1195;
630.9000;0.1506;-0.1266;
631.2000;0.1514;-0.1290;
631.5000;0.1514;-0.1266;
631.8000;0.1498;-0.1338;
632.1000;0.1498;-0.1338;
632.4000;0.1514;-0.1338;
632.7000;0.1522;-0.1290;
633.0000;0.1481;-0.1362;
633.3000;0.1490;-0.1243;
633.6000;0.1490;-0.1266;
633.9000;0.1498;-0.1195;
634.2000;0.1506;-0.1075;
634.5000;0.1514;-0.1075;
634.8000;0.1506;-0.1171;
635.1000;0.1506;-0.1147;
635.4000;0.1530;-0.1004;
635.7000;0.1433;-0.1386;
636.0000;0.1530;-0.1147;
636.3000;0.1481;-0.1338;
636.6000;0.1514;-0.1314;
636.9000;0.1563;-0.1147;
637.2000;0.1547;-0.1243;
637.5000;0.1490;-0.1362;
637.8000;0.1506;-0.1195;
638.1000;0.1522;-0.1171;
638.4000;0.1498;-0.1266;
638.7000;0.1433;-0.1338;
639.0000;0.1506;-0.1099;
639.3000;0.1449;-0.1266;
639.6000;0.1506;-0.1099;
639.9000;0.1490;-0.1147;
640.2000;0.1506;-0.1123;
640.5000;0.1506;-0.1171;
640.8000;0.1522;-0.1219;
641.1000;0.1506;-0.1338;
641.4000;0.1522;-0.1219;
641.7000;0.1538;-0.1099;
642.0000;0.1514;-0.1195;
642.3000;0.1538;-0.1123;
642.6000;0.1498;-0.1195;
642.9000;0.1490;-0.1099;
643.2000;0.1514;-0.1004;
643.5000;0.1538;-0.0956;
643.8000;0.1490;-0.1028;
644.1000;0.1620;-0.0741;
644.4000;0.1498;-0.1075;
644.7000;0.1604;-0.0789;
645.0000;0.1587;-0.0884;
645.3000;0.1498;-0.1147;
645.6000;0.1498;-0.1099;
645.9000;0.1498;-0.1171;
646.2000;0.1530;-0.1147;
646.5000;0.1514;-0.1147;
646.8000;0.1514;-0.1171;
647.1000;0.1457;-0.1362;
647.4000;0.1514;-0.1338;
647.7000;0.1384;-0.1768;
648.0000;0.1490;-0.1482;
648.3000;0.1506;-0.1434;
648.6000;0.1571;-0.1266;
648.9000;0.1481;-0.1505;
649.2000;0.1481;-0.1482;
649.5000;0.1530;-0.1410;
649.8000;0.1522;-0.1386;
650.1000;0.1506;-0.1410;
650.4000;0.1506;-0.1410;
650.7000;0.1522;-0.1362;
651.0000;0.1506;-0.1338;
651.3000;0.1457;-0.1410;
651.6000;0.1498;-0.1266;
651.9000;0.1506;-0.1219;
652.2000;0.1506;-0.1314;
652.5000;0.1522;-0.1314;
652.8000;0.1498;-0.1386;
653.1000;0.1506;-0.1410;
653.4000;0.1506;-0.1458;
653.7000;0.1514;-0.1434;
654.0000;0.1473;-0.1458;
654.3000;0.1498;-0.1458;
654.6000;0.1481;-0.1482;
654.9000;0.1498;-0.1434;
655.2000;0.1473;-0.1505;
655.5000;0.1514;-0.1386;
655.8000;0.1498;-0.1386;
656.1000;0.1522;-0.1434;
656.4000;0.1514;-0.1386;
656.7000;0.1498;-0.1338;
657.0000;0.1506;-0.1386;
657.3000;0.1506;-0.1362;
657.6000;0.1490;-0.1386;
657.9000;0.1530;-0.1195;
658.2000;0.1490;-0.1266;
658.5000;0.1384;-0.1482;
658.8000;0.1555;-0.1075;
659.1000;0.1498;-0.1123;
659.4000;0.1498;-0.1123;
659.7000;0.1571;-0.1028;
660.0000;0.1498;-0.1290;
660.3000;0.1506;-0.1290;
660.6000;0.1392;-0.1529;
660.9000;0.1498;-0.1290;
661.2000;0.1498;-0.1290;
661.5000;0.1416;-0.1553;
661.8000;0.1490;-0.1386;
662.1000;0.1514;-0.1362;
662.4000;0.1408;-0.1625;
662.7000;0.1514;-0.1362;
663.0000;0.1522;-0.1362;
663.3000;0.1530;-0.1290;
663.6000;0.1498;-0.1338;
663.9000;0.1579;-0.1123;
664.2000;0.1490;-0.1386;
664.5000;0.1498;-0.1314;
664.8000;0.1514;-0.1290;
665.1000;0.1604;-0.1147;
665.4000;0.1514;-0.1410;
665.7000;0.1506;-0.1410;
666.0000;0.1498;-0.1458;
666.3000;0.1506;-0.1458;
666.6000;0.1441;-0.1601;
666.9000;0.1490;-0.1458;
667.2000;0.1498;-0.1505;
667.5000;0.1506;-0.1553;
667.8000;0.1498;-0.1601;
668.1000;0.1506;-0.1553;
668.4000;0.1514;-0.1529;
668.7000;0.1522;-0.1458;
669.0000;0.1530;-0.1386;
669.3000;0.1506;-0.1482;
669.6000;0.1490;-0.1505;
669.9000;0.1506;-0.1434;
670.2000;0.1498;-0.1386;
670.5000;0.1465;-0.1482;
670.8000;0.1506;-0.1314;
671.1000;0.1506;-0.1290;
671.4000;0.1506;-0.1362;
671.7000;0.1498;-0.1386;
672.0000;0.1498;-0.1338;
672.3000;0.1498;-0.1410;
672.6000;0.1514;-0.1314;
672.9000;0.1481;-0.1458;
673.2000;0.1498;-0.1434;
673.5000;0.1473;-0.1505;
673.8000;0.1498;-0.1410;
674.1000;0.1449;-0.1601;
674.4000;0.1514;-0.1482;
674.7000;0.1490;-0.1553;
675.0000;0.1514;-0.1505;
675.3000;0.1522;-0.1482;
675.6000;0.1506;-0.1553;
675.9000;0.1506;-0.1553;
676.2000;0.1506;-0.1553;
676.5000;0.1473;-0.1697;
676.8000;0.1498;-0.1625;
677.1000;0.1498;-0.1649;
677.4000;0.1506;-0.1768;
677.7000;0.1441;-0.1888;
678.0000;0.1498;-0.1744;
678.3000;0.1498;-0.1673;
678.6000;0.1538;-0.1505;
678.9000;0.1522;-0.1577;
679.2000;0.1514;-0.1577;
679.5000;0.1416;-0.1697;
679.8000;0.1490;-0.1410;
680.1000;0.1506;-0.1290;
680.4000;0.1498;-0.1219;
680.7000;0.1547;-0.1171;
681.0000;0.1506;-0.1219;
681.3000;0.1506;-0.1171;
681.6000;0.1514;-0.1147;
681.9000;0.1473;-0.1219;
682.2000;0.1490;-0.1195;
682.5000;0.1473;-0.1362;
682.8000;0.1506;-0.1243;
683.1000;0.1506;-0.1386;
683.4000;0.1490;-0.1410;
683.7000;0.1490;-0.1458;
684.0000;0.1506;-0.1434;
684.3000;0.1522;-0.1386;
684.6000;0.1522;-0.1410;
684.9000;0.1473;-0.1529;
685.2000;0.1498;-0.1529;
685.5000;0.1506;-0.1553;
685.8000;0.1481;-0.1649;
686.1000;0.1498;-0.1625;
686.4000;0.1457;-0.1625;
686.7000;0.1506;-0.1458;
687.0000;0.1506;-0.1362;
687.3000;0.1498;-0.1290;
687.6000;0.1506;-0.1338;
687.9000;0.1498;-0.1338;
688.2000;0.1498;-0.1386;
688.5000;0.1522;-0.1314;
688.8000;0.1498;-0.1314;
689.1000;0.1514;-0.1266;
689.4000;0.1490;-0.1314;
689.7000;0.1498;-0.1290;
690.0000;0.1506;-0.1195;
690.3000;0.1498;-0.1290;
690.6000;0.1498;-0.1338;
690.9000;0.1506;-0.1386;
691.2000;0.1506;-0.1410;
691.5000;0.1514;-0.1314;
691.8000;0.1506;-0.1290;
692.1000;0.1514;-0.1338;
692.4000;0.1490;-0.1410;
692.7000;0.1441;-0.1601;
693.0000;0.1498;-0.1458;
693.3000;0.1530;-0.1362;
693.6000;0.1506;-0.1386;
693.9000;0.1522;-0.1410;
694.2000;0.1481;-0.1529;
694.5000;0.1498;-0.1505;
694.8000;0.1506;-0.1482;
695.1000;0.1612;-0.1195;
695.4000;0.1514;-0.1482;
695.7000;0.1481;-0.1553;
696.0000;0.1628;-0.1147;
696.3000;0.1498;-0.1458;
696.6000;0.1514;-0.1434;
696.9000;0.1506;-0.1386;
697.2000;0.1506;-0.1482;
697.5000;0.1449;-0.1721;
697.8000;0.1506;-0.1529;
698.1000;0.1384;-0.1840;
698.4000;0.1481;-0.1482;
698.7000;0.1473;-0.1482;
699.0000;0.1522;-0.1410;
699.3000;0.1457;-0.1601;
699.6000;0.1522;-0.1434;
699.9000;0.1514;-0.1458;
700.2000;0.1506;-0.1482;
700.5000;0.1506;-0.1434;
700.8000;0.1506;-0.1386;
701.1000;0.1628;-0.1075;
701.4000;0.1506;-0.1434;
701.7000;0.1506;-0.1338;
702.0000;0.1465;-0.1434;
702.3000;0.1506;-0.1338;
702.6000;0.1506;-0.1338;
702.9000;0.1498;-0.1290;
703.2000;0.1514;-0.1386;
703.5000;0.1481;-0.1458;
703.8000;0.1490;-0.1434;
704.1000;0.1498;-0.1458;
704.4000;0.1490;-0.1458;
704.7000;0.1604;-0.1195;
705.0000;0.1506;-0.1505;
705.3000;0.1490;-0.1625;
705.6000;0.1490;-0.1625;
705.9000;0.1522;-0.1553;
706.2000;0.1612;-0.1243;
706.5000;0.1449;-0.1553;
706.8000;0.1384;-0.1816;
707.1000;0.1473;-0.1721;
707.4000;0.1547;-0.1553;
707.7000;0.1506;-0.1649;
708.0000;0.1481;-0.1601;
708.3000;0.1498;-0.1529;
708.6000;0.1327;-0.1983;
708.9000;0.1547;-0.1482;
709.2000;0.1384;-0.1864;
709.5000;0.1481;-0.1649;
709.8000;0.1506;-0.1553;
710.1000;0.1457;-0.1673;
710.4000;0.1481;-0.1529;
710.7000;0.1506;-0.1434;
711.0000;0.1522;-0.1362;
711.3000;0.1506;-0.1338;
711.6000;0.1506;-0.1386;
711.9000;0.1538;-0.1362;
712.2000;0.1498;-0.1434;
712.5000;0.1376;-0.1816;
712.8000;0.1506;-0.1434;
713.1000;0.1522;-0.1458;
713.4000;0.1490;-0.1673;
713.7000;0.1506;-0.1553;
714.0000;0.1506;-0.1649;
714.3000;0.1506;-0.1625;
714.6000;0.1498;-0.1601;
714.9000;0.1604;-0.1219;
715.2000;0.1620;-0.1195;
715.5000;0.1522;-0.1482;
715.8000;0.1490;-0.1601;
716.1000;0.1555;-0.1458;
716.4000;0.1530;-0.1601;
716.7000;0.1506;-0.1577;
717.0000;0.1433;-0.1816;
717.3000;0.1514;-0.1601;
717.6000;0.1498;-0.1601;
717.9000;0.1481;-0.1625;
718.2000;0.1571;-0.1458;
718.5000;0.1481;-0.1577;
718.8000;0.1514;-0.1482;
719.1000;0.1498;-0.1553;
719.4000;0.1506;-0.1505;
719.7000;0.1530;-0.1434;
720.0000;0.1514;-0.1410;
720.3000;0.1506;-0.1458;
720.6000;0.1571;-0.1290;
720.9000;0.1563;-0.1314;
721.2000;0.1538;-0.1386;
721.5000;0.1498;-0.1482;
721.8000;0.1498;-0.1553;
722.1000;0.1498;-0.1529;
722.4000;0.1530;-0.1505;
722.7000;0.1490;-0.1577;
723.0000;0.1652;-0.1075;
723.3000;0.1506;-0.1458;
723.6000;0.1547;-0.1458;
723.9000;0.1506;-0.1458;
724.2000;0.1595;-0.1195;
724.5000;0.1506;-0.1386;
724.8000;0.1514;-0.1314;
725.1000;0.1555;-0.1219;
725.4000;0.1563;-0.1314;
725.7000;0.1506;-0.1505;
726.0000;0.1563;-0.1266;
726.3000;0.1473;-0.1482;
726.6000;0.1514;-0.1362;
726.9000;0.1522;-0.1338;
727.2000;0.1433;-0.1505;
727.5000;0.1522;-0.1314;
727.8000;0.1514;-0.1338;
728.1000;0.1514;-0.1290;
728.4000;0.1506;-0.1362;
728.7000;0.1555;-0.1290;
729.0000;0.1522;-0.1458;
729.3000;0.1514;-0.1434;
729.6000;0.1498;-0.1482;
729.9000;0.1498;-0.1529;
730.2000;0.1490;-0.1625;
730.5000;0.1498;-0.1625;
730.8000;0.1408;-0.1864;
731.1000;0.1498;-0.1673;
731.4000;0.1490;-0.1649;
731.7000;0.1547;-0.1410;
732.0000;0.1490;-0.1601;
732.3000;0.1498;-0.1505;
732.6000;0.1506;-0.1458;
732.9000;0.1506;-0.1434;
733.2000;0.1481;-0.1505;
733.5000;0.1481;-0.1482;
733.8000;0.1441;-0.1577;
734.1000;0.1514;-0.1338;
734.4000;0.1498;-0.1386;
734.7000;0.1490;-0.1482;
735.0000;0.1514;-0.1458;
735.3000;0.1498;-0.1482;
735.6000;0.1498;-0.1458;
735.9000;0.1530;-0.1410;
736.2000;0.1522;-0.1410;
736.5000;0.1498;-0.1529;
736.8000;0.1579;-0.1290;
737.1000;0.1465;-0.1529;
737.4000;0.1498;-0.1529;
737.7000;0.1522;-0.1505;
738.0000;0.1473;-0.1529;
738.3000;0.1522;-0.1482;
738.6000;0.1490;-0.1577;
738.9000;0.1514;-0.1601;
739.2000;0.1506;-0.1577;
739.5000;0.1538;-0.1505;
739.8000;0.1506;-0.1577;
740.1000;0.1547;-0.1482;
740.4000;0.1514;-0.1505;
740.7000;0.1522;-0.1529;
741.0000;0.1481;-0.1649;
741.3000;0.1530;-0.1505;
741.6000;0.1555;-0.1458;
741.9000;0.1506;-0.1505;
742.2000;0.1457;-0.1601;
742.5000;0.1498;-0.1577;
742.8000;0.1498;-0.1529;
743.1000;0.1579;-0.1314;
743.4000;0.1514;-0.1482;
743.7000;0.1506;-0.1553;
744.0000;0.1506;-0.1529;
744.3000;0.1555;-0.1505;
744.6000;0.1506;-0.1601;
744.9000;0.1522;-0.1625;
745.2000;0.1514;-0.1625;
745.5000;0.1498;-0.1673;
745.8000;0.1555;-0.1529;
746.1000;0.1490;-0.1553;
746.4000;0.1490;-0.1577;
746.7000;0.1522;-0.1458;
747.0000;0.1547;-0.1434;
747.3000;0.1449;-0.1601;
747.6000;0.1514;-0.1482;
747.9000;0.1490;-0.1505;
748.2000;0.1506;-0.1458;
748.5000;0.1514;-0.1458;
748.8000;0.1514;-0.1458;
749.1000;0.1538;-0.1482;
749.4000;0.1457;-0.1697;
749.7000;0.1449;-0.1768;
750.0000;0.1506;-0.1553;
750.3000;0.1514;-0.1529;
750.6000;0.1481;-0.1601;
750.9000;0.1473;-0.1577;
751.2000;0.1514;-0.1505;
751.5000;0.1490;-0.1529;
751.8000;0.1490;-0.1529;
752.1000;0.1490;-0.1482;
752.4000;0.1506;-0.1458;
752.7000;0.1416;-0.1673;
753.0000;0.1506;-0.1434;
753.3000;0.1490;-0.1482;
753.6000;0.1522;-0.1458;
753.9000;0.1490;-0.1529;
754.2000;0.1498;-0.1601;
754.5000;0.1506;-0.1482;
754.8000;0.1392;-0.1697;
755.1000;0.1530;-0.1266;
755.4000;0.1490;-0.1314;
755.7000;0.1457;-0.1386;
756.0000;0.1522;-0.1290;
756.3000;0.1530;-0.1314;
756.6000;0.1506;-0.1338;
756.9000;0.1481;-0.1458;
757.2000;0.1481;-0.1458;
757.5000;0.1506;-0.1458;
757.8000;0.1506;-0.1505;
758.1000;0.1506;-0.1505;
758.4000;0.1514;-0.1505;
758.7000;0.1498;-0.1577;
759.0000;0.1498;-0.1505;
759.3000;0.1506;-0.1553;
759.6000;0.1506;-0.1625;
759.9000;0.1473;-0.1649;
760.2000;0.1514;-0.1505;
760.5000;0.1522;-0.1553;
760.8000;0.1506;-0.1553;
761.1000;0.1490;-0.1553;
761.4000;0.1514;-0.1553;
761.7000;0.1465;-0.1744;
762.0000;0.1498;-0.1673;
762.3000;0.1498;-0.1649;
762.6000;0.1514;-0.1601;
762.9000;0.1522;-0.1697;
763.2000;0.1481;-0.1792;
763.5000;0.1514;-0.1673;
763.8000;0.1514;-0.1625;
764.1000;0.1498;-0.1649;
764.4000;0.1612;-0.1386;
764.7000;0.1514;-0.1553;
765.0000;0.1473;-0.1721;
765.3000;0.1530;-0.1649;
765.6000;0.1522;-0.1768;
765.9000;0.1522;-0.1744;
766.2000;0.1538;-0.1792;
766.5000;0.1506;-0.1744;
766.8000;0.1522;-0.1673;
767.1000;0.1490;-0.1744;
767.4000;0.1514;-0.1697;
767.7000;0.1498;-0.1673;
768.0000;0.1506;-0.1649;
768.3000;0.1457;-0.1721;
768.6000;0.1514;-0.1625;
768.9000;0.1522;-0.1553;
769.2000;0.1490;-0.1649;
769.5000;0.1522;-0.1697;
769.8000;0.1514;-0.1697;
770.1000;0.1506;-0.1744;
770.4000;0.1473;-0.1816;
770.7000;0.1498;-0.1721;
771.0000;0.1514;-0.1625;
771.3000;0.1498;-0.1649;
771.6000;0.1506;-0.1768;
771.9000;0.1506;-0.1721;
772.2000;0.1481;-0.1840;
772.5000;0.1514;-0.1792;
772.8000;0.1490;-0.1792;
773.1000;0.1481;-0.1792;
773.4000;0.1514;-0.1744;
773.7000;0.1514;-0.1816;
774.0000;0.1433;-0.2031;
774.3000;0.1490;-0.1888;
774.6000;0.1506;-0.1792;
774.9000;0.1465;-0.1792;
775.2000;0.1498;-0.1721;
775.5000;0.1506;-0.1792;
775.8000;0.1481;-0.1864;
776.1000;0.1514;-0.1721;
776.4000;0.1506;-0.1840;
776.7000;0.1490;-0.1888;
777.0000;0.1498;-0.1864;
777.3000;0.1538;-0.1601;
777.6000;0.1490;-0.1697;
777.9000;0.1498;-0.1649;
778.2000;0.1506;-0.1625;
778.5000;0.1490;-0.1673;
778.8000;0.1563;-0.1505;
779.1000;0.1498;-0.1721;
779.4000;0.1490;-0.1721;
779.7000;0.1441;-0.1912;
780.0000;0.1514;-0.1721;
780.3000;0.1490;-0.1721;
780.6000;0.1490;-0.1768;
780.9000;0.1498;-0.1697;
781.2000;0.1498;-0.1601;
781.5000;0.1506;-0.1577;
781.8000;0.1465;-0.1649;
782.1000;0.1506;-0.1529;
782.4000;0.1498;-0.1649;
782.7000;0.1506;-0.1625;
783.0000;0.1514;-0.1649;
783.3000;0.1530;-0.1768;
783.6000;0.1522;-0.1697;
783.9000;0.1490;-0.1768;
784.2000;0.1522;-0.1697;
784.5000;0.1498;-0.1673;
784.8000;0.1530;-0.1577;
785.1000;0.1506;-0.1649;
785.4000;0.1498;-0.1697;
785.7000;0.1498;-0.1792;
786.0000;0.1481;-0.1816;
786.3000;0.1498;-0.1697;
786.6000;0.1498;-0.1625;
786.9000;0.1481;-0.1673;
787.2000;0.1522;-0.1553;
787.5000;0.1514;-0.1601;
787.8000;0.1514;-0.1649;
788.1000;0.1506;-0.1625;
788.4000;0.1522;-0.1601;
788.7000;0.1490;-0.1577;
789.0000;0.1514;-0.1553;
789.3000;0.1506;-0.1625;
789.6000;0.1514;-0.1649;
789.9000;0.1538;-0.1601;
790.2000;0.1506;-0.1649;
790.5000;0.1490;-0.1697;
790.8000;0.1506;-0.1625;
791.1000;0.1514;-0.1601;
791.4000;0.1465;-0.1649;
791.7000;0.1506;-0.1458;
792.0000;0.1514;-0.1458;
792.3000;0.1498;-0.1553;
792.6000;0.1555;-0.1458;
792.9000;0.1490;-0.1649;
793.2000;0.1490;-0.1577;
793.5000;0.1498;-0.1482;
793.8000;0.1514;-0.1505;
794.1000;0.1579;-0.1386;
794.4000;0.1506;-0.1649;
794.7000;0.1498;-0.1673;
795.0000;0.1498;-0.1601;
795.3000;0.1506;-0.1505;
795.6000;0.1498;-0.1529;
795.9000;0.1490;-0.1577;
796.2000;0.1498;-0.1601;
796.5000;0.1522;-0.1458;
796.8000;0.1514;-0.1482;
797.1000;0.1498;-0.1458;
797.4000;0.1514;-0.1338;
797.7000;0.1498;-0.1362;
798.0000;0.1490;-0.1362;
798.3000;0.1498;-0.1362;
798.6000;0.1506;-0.1410;
798.9000;0.1530;-0.1314;
799.2000;0.1522;-0.1386;
799.5000;0.1506;-0.1410;
799.8000;0.1498;-0.1505;
800.1000;0.1587;-0.1314;
800.4000;0.1587;-0.1362;
800.7000;0.1498;-0.1768;
801.0000;0.1490;-0.1744;
801.3000;0.1490;-0.1601;
801.6000;0.1506;-0.1625;
801.9000;0.1547;-0.1482;
802.2000;0.1506;-0.1553;
802.5000;0.1506;-0.1553;
802.8000;0.1514;-0.1482;
803.1000;0.1522;-0.1434;
803.4000;0.1481;-0.1505;
803.7000;0.1490;-0.1482;
804.0000;0.1514;-0.1386;
804.3000;0.1490;-0.1386;
804.6000;0.1490;-0.1458;
804.9000;0.1498;-0.1386;
805.2000;0.1498;-0.1338;
805.5000;0.1538;-0.1266;
805.8000;0.1514;-0.1386;
806.1000;0.1449;-0.1577;
806.4000;0.1514;-0.1482;
806.7000;0.1530;-0.1482;
807.0000;0.1490;-0.1505;
807.3000;0.1506;-0.1553;
807.6000;0.1481;-0.1601;
807.9000;0.1498;-0.1482;
808.2000;0.1506;-0.1434;
808.5000;0.1457;-0.1601;
808.8000;0.1514;-0.1410;
809.1000;0.1490;-0.1505;
809.4000;0.1498;-0.1505;
809.7000;0.1514;-0.1505;
810.0000;0.1473;-0.1625;
810.3000;0.1498;-0.1505;
810.6000;0.1514;-0.1410;
810.9000;0.1506;-0.1482;
811.2000;0.1498;-0.1505;
811.5000;0.1481;-0.1601;
811.8000;0.1514;-0.1553;
812.1000;0.1506;-0.1577;
812.4000;0.1530;-0.1482;
812.7000;0.1652;-0.1147;
813.0000;0.1506;-0.1601;
813.3000;0.1392;-0.1816;
813.6000;0.1506;-0.1601;
813.9000;0.1465;-0.1721;
814.2000;0.1498;-0.1601;
814.5000;0.1498;-0.1649;
814.8000;0.1522;-0.1625;
815.1000;0.1392;-0.1912;
815.4000;0.1514;-0.1601;
815.7000;0.1498;-0.1577;
816.0000;0.1547;-0.1338;
816.3000;0.1498;-0.1529;
816.6000;0.1522;-0.1505;
816.9000;0.1498;-0.1553;
817.2000;0.1498;-0.1553;
817.5000;0.1498;-0.1505;
817.8000;0.1506;-0.1553;
818.1000;0.1498;-0.1697;
818.4000;0.1579;-0.1386;
818.7000;0.1514;-0.1505;
819.0000;0.1490;-0.1601;
819.3000;0.1498;-0.1625;
819.6000;0.1433;-0.1744;
819.9000;0.1530;-0.1505;
820.2000;0.1506;-0.1505;
820.5000;0.1530;-0.1434;
820.8000;0.1490;-0.1434;
821.1000;0.1530;-0.1338;
821.4000;0.1522;-0.1362;
821.7000;0.1514;-0.1362;
822.0000;0.1538;-0.1314;
822.3000;0.1514;-0.1434;
822.6000;0.1628;-0.1123;
822.9000;0.1506;-0.1482;
823.2000;0.1498;-0.1553;
823.5000;0.1506;-0.1482;
823.8000;0.1530;-0.1458;
824.1000;0.1514;-0.1482;
824.4000;0.1514;-0.1458;
824.7000;0.1514;-0.1482;
825.0000;0.1400;-0.1816;
825.3000;0.1587;-0.1314;
825.6000;0.1530;-0.1529;
825.9000;0.1506;-0.1625;
826.2000;0.1530;-0.1458;
826.5000;0.1506;-0.1458;
826.8000;0.1490;-0.1482;
827.1000;0.1571;-0.1219;
827.4000;0.1522;-0.1314;
827.7000;0.1506;-0.1434;
828.0000;0.1481;-0.1434;
828.3000;0.1490;-0.1482;
828.6000;0.1490;-0.1529;
828.9000;0.1481;-0.1482;
829.2000;0.1514;-0.1410;
829.5000;0.1490;-0.1529;
829.8000;0.1506;-0.1434;
830.1000;0.1490;-0.1529;
830.4000;0.1530;-0.1482;
830.7000;0.1490;-0.1577;
831.0000;0.1490;-0.1458;
831.3000;0.1425;-0.1744;
831.6000;0.1514;-0.1529;
831.9000;0.1571;-0.1410;
832.2000;0.1547;-0.1482;
832.5000;0.1473;-0.1625;
832.8000;0.1498;-0.1577;
833.1000;0.1579;-0.1338;
833.4000;0.1490;-0.1577;
833.7000;0.1506;-0.1458;
834.0000;0.1506;-0.1386;
834.3000;0.1473;-0.1577;
834.6000;0.1506;-0.1410;
834.9000;0.1498;-0.1386;
835.2000;0.1514;-0.1362;
835.5000;0.1514;-0.1314;
835.8000;0.1506;-0.1410;
836.1000;0.1506;-0.1458;
836.4000;0.1490;-0.1505;
836.7000;0.1506;-0.1434;
837.0000;0.1498;-0.1529;
837.3000;0.1612;-0.1338;
837.6000;0.1506;-0.1673;
837.9000;0.1498;-0.1768;
838.2000;0.1506;-0.1673;
838.5000;0.1498;-0.1673;
838.8000;0.1522;-0.1577;
839.1000;0.1481;-0.1673;
839.4000;0.1498;-0.1625;
839.7000;0.1506;-0.1625;
840.0000;0.1530;-0.1577;
840.3000;0.1571;-0.1458;
840.6000;0.1506;-0.1649;
840.9000;0.1498;-0.1673;
841.2000;0.1522;-0.1625;
841.5000;0.1514;-0.1697;
841.8000;0.1514;-0.1721;
842.1000;0.1530;-0.1649;
842.4000;0.1522;-0.1625;
842.7000;0.1514;-0.1649;
843.0000;0.1514;-0.1625;
843.3000;0.1579;-0.1434;
843.6000;0.1433;-0.1864;
843.9000;0.1514;-0.1601;
844.2000;0.1563;-0.1505;
844.5000;0.1490;-0.1649;
844.8000;0.1457;-0.1768;
845.1000;0.1481;-0.1601;
845.4000;0.1425;-0.1768;
845.7000;0.1498;-0.1601;
846.0000;0.1506;-0.1577;
846.3000;0.1473;-0.1625;
846.6000;0.1522;-0.1505;
846.9000;0.1498;-0.1482;
847.2000;0.1465;-0.1458;
847.5000;0.1490;-0.1434;
847.8000;0.1498;-0.1386;
848.1000;0.1506;-0.1362;
848.4000;0.1530;-0.1243;
848.7000;0.1457;-0.1338;
849.0000;0.1490;-0.1362;
849.3000;0.1514;-0.1290;
849.6000;0.1530;-0.1314;
849.9000;0.1595;-0.1147;
850.2000;0.1465;-0.1458;
850.5000;0.1473;-0.1410;
850.8000;0.1433;-0.1529;
851.1000;0.1514;-0.1362;
851.4000;0.1522;-0.1410;
851.7000;0.1587;-0.1266;
852.0000;0.1514;-0.1505;
852.3000;0.1579;-0.1410;
852.6000;0.1498;-0.1673;
852.9000;0.1506;-0.1673;
853.2000;0.1522;-0.1577;
853.5000;0.1498;-0.1577;
853.8000;0.1604;-0.1314;
854.1000;0.1522;-0.1505;
854.4000;0.1498;-0.1601;
854.7000;0.1433;-0.1816;
855.0000;0.1514;-0.1529;
855.3000;0.1473;-0.1625;
855.6000;0.1506;-0.1505;
855.9000;0.1506;-0.1482;
856.2000;0.1506;-0.1482;
856.5000;0.1530;-0.1458;
856.8000;0.1514;-0.1505;
857.1000;0.1481;-0.1529;
857.4000;0.1498;-0.1458;
857.7000;0.1547;-0.1243;
858.0000;0.1604;-0.1147;
858.3000;0.1416;-0.1721;
858.6000;0.1498;-0.1625;
858.9000;0.1514;-0.1553;
859.2000;0.1506;-0.1529;
859.5000;0.1498;-0.1577;
859.8000;0.1490;-0.1601;
860.1000;0.1522;-0.1529;
860.4000;0.1498;-0.1577;
860.7000;0.1506;-0.1529;
861.0000;0.1441;-0.1673;
861.3000;0.1433;-0.1721;
861.6000;0.1490;-0.1434;
861.9000;0.1490;-0.1410;
862.2000;0.1514;-0.1434;
862.5000;0.1506;-0.1458;
862.8000;0.1490;-0.1553;
863.1000;0.1490;-0.1529;
863.4000;0.1490;-0.1553;
863.7000;0.1498;-0.1601;
864.0000;0.1506;-0.1649;
864.3000;0.1522;-0.1434;
864.6000;0.1490;-0.1577;
864.9000;0.1530;-0.1505;
865.2000;0.1498;-0.1721;
865.5000;0.1498;-0.1673;
865.8000;0.1506;-0.1697;
866.1000;0.1530;-0.1505;
866.4000;0.1506;-0.1553;
866.7000;0.1498;-0.1577;
867.0000;0.1555;-0.1362;
867.3000;0.1514;-0.1434;
867.6000;0.1538;-0.1458;
867.9000;0.1538;-0.1410;
868.2000;0.1465;-0.1553;
868.5000;0.1514;-0.1458;
868.8000;0.1522;-0.1553;
869.1000;0.1514;-0.1649;
869.4000;0.1481;-0.1721;
869.7000;0.1498;-0.1721;
870.0000;0.1490;-0.1744;
870.3000;0.1522;-0.1625;
870.6000;0.1506;-0.1625;
870.9000;0.1514;-0.1625;
871.2000;0.1490;-0.1625;
871.5000;0.1506;-0.1721;
871.8000;0.1498;-0.1721;
872.1000;0.1473;-0.1768;
872.4000;0.1473;-0.1721;
872.7000;0.1457;-0.1744;
873.0000;0.1473;-0.1673;
873.3000;0.1473;-0.1673;
873.6000;0.1506;-0.1721;
873.9000;0.1571;-0.1529;
874.2000;0.1522;-0.1673;
874.5000;0.1514;-0.1625;
874.8000;0.1514;-0.1577;
875.1000;0.1514;-0.1601;
875.4000;0.1522;-0.1529;
875.7000;0.1506;-0.1625;
876.0000;0.1514;-0.1529;
876.3000;0.1490;-0.1625;
876.6000;0.1490;-0.1673;
876.9000;0.1481;-0.1625;
877.2000;0.1514;-0.1625;
877.5000;0.1481;-0.1697;
877.8000;0.1506;-0.1601;
878.1000;0.1490;-0.1697;
878.4000;0.1481;-0.1864;
878.7000;0.1547;-0.1744;
879.0000;0.1490;-0.1792;
879.3000;0.1498;-0.1768;
879.6000;0.1490;-0.1744;
879.9000;0.1506;-0.1721;
880.2000;0.1514;-0.1744;
880.5000;0.1506;-0.1816;
880.8000;0.1473;-0.1912;
881.1000;0.1506;-0.1840;
881.4000;0.1506;-0.1673;
881.7000;0.1457;-0.1840;
882.0000;0.1522;-0.1553;
882.3000;0.1522;-0.1601;
882.6000;0.1490;-0.1577;
882.9000;0.1530;-0.1434;
883.2000;0.1490;-0.1553;
883.5000;0.1522;-0.1410;
883.8000;0.1498;-0.1410;
884.1000;0.1514;-0.1314;
884.4000;0.1522;-0.1410;
884.7000;0.1490;-0.1482;
885.0000;0.1530;-0.1386;
885.3000;0.1530;-0.1338;
885.6000;0.1490;-0.1410;
885.9000;0.1538;-0.1386;
886.2000;0.1530;-0.1434;
886.5000;0.1514;-0.1482;
886.8000;0.1473;-0.1553;
887.1000;0.1506;-0.1410;
887.4000;0.1498;-0.1505;
887.7000;0.1506;-0.1386;
888.0000;0.1498;-0.1410;
888.3000;0.1506;-0.1386;
888.6000;0.1498;-0.1386;
888.9000;0.1514;-0.1410;
889.2000;0.1563;-0.1290;
889.5000;0.1514;-0.1434;
889.8000;0.1490;-0.1482;
890.1000;0.1506;-0.1386;
890.4000;0.1490;-0.1505;
890.7000;0.1522;-0.1482;
891.0000;0.1514;-0.1529;
891.3000;0.1514;-0.1553;
891.6000;0.1506;-0.1458;
891.9000;0.1498;-0.1482;
892.2000;0.1530;-0.1434;
892.5000;0.1506;-0.1482;
892.8000;0.1514;-0.1505;
893.1000;0.1498;-0.1410;
893.4000;0.1498;-0.1505;
893.7000;0.1481;-0.1625;
894.0000;0.1490;-0.1649;
894.3000;0.1514;-0.1505;
894.6000;0.1522;-0.1553;
894.9000;0.1538;-0.1505;
895.2000;0.1522;-0.1458;
895.5000;0.1522;-0.1553;
895.8000;0.1530;-0.1553;
896.1000;0.1498;-0.1649;
896.4000;0.1514;-0.1529;
896.7000;0.1498;-0.1553;
897.0000;0.1522;-0.1434;
897.3000;0.1490;-0.1553;
897.6000;0.1506;-0.1505;
897.9000;0.1490;-0.1577;
898.2000;0.1522;-0.1505;
898.5000;0.1514;-0.1529;
898.8000;0.1490;-0.1505;
899.1000;0.1498;-0.1505;
899.4000;0.1490;-0.1505;
899.7000;0.1506;-0.1529;
900.0000;0.1514;-0.1505;
900.3000;0.1498;-0.1482;
900.6000;0.1514;-0.1362;
900.9000;0.1506;-0.1290;
901.2000;0.1514;-0.1290;
901.5000;0.1498;-0.1434;
901.8000;0.1490;-0.1505;
902.1000;0.1506;-0.1434;
902.4000;0.1514;-0.1529;
902.7000;0.1506;-0.1577;
903.0000;0.1514;-0.1529;
903.3000;0.1530;-0.1482;
903.6000;0.1506;-0.1529;
903.9000;0.1506;-0.1482;
904.2000;0.1514;-0.1458;
904.5000;0.1490;-0.1482;
904.8000;0.1522;-0.1434;
905.1000;0.1514;-0.1505;
905.4000;0.1514;-0.1505;
905.7000;0.1498;-0.1601;
906.0000;0.1522;-0.1601;
906.3000;0.1506;-0.1673;
906.6000;0.1506;-0.1673;
906.9000;0.1506;-0.1625;
907.2000;0.1506;-0.1505;
907.5000;0.1506;-0.1577;
907.8000;0.1506;-0.1529;
908.1000;0.1530;-0.1482;
908.4000;0.1530;-0.1458;
908.7000;0.1506;-0.1505;
909.0000;0.1490;-0.1553;
909.3000;0.1465;-0.1721;
909.6000;0.1441;-0.1792;
909.9000;0.1449;-0.1744;
910.2000;0.1506;-0.1673;
910.5000;0.1498;-0.1649;
910.8000;0.1481;-0.1697;
911.1000;0.1522;-0.1553;
911.4000;0.1506;-0.1529;
911.7000;0.1555;-0.1386;
912.0000;0.1522;-0.1482;
912.3000;0.1530;-0.1386;
912.6000;0.1506;-0.1458;
912.9000;0.1514;-0.1482;
913.2000;0.1506;-0.1505;
913.5000;0.1498;-0.1529;
913.8000;0.1538;-0.1482;
914.1000;0.1514;-0.1625;
914.4000;0.1506;-0.1697;
914.7000;0.1457;-0.1792;
915.0000;0.1490;-0.1697;
915.3000;0.1547;-0.1553;
915.6000;0.1514;-0.1697;
915.9000;0.1408;-0.1959;
916.2000;0.1490;-0.1721;
916.5000;0.1498;-0.1816;
916.8000;0.1514;-0.1792;
917.1000;0.1408;-0.2079;
917.4000;0.1514;-0.1792;
917.7000;0.1506;-0.1721;
918.0000;0.1457;-0.1888;
918.3000;0.1498;-0.1697;
918.6000;0.1490;-0.1625;
918.9000;0.1506;-0.1577;
919.2000;0.1498;-0.1577;
919.5000;0.1490;-0.1673;
919.8000;0.1490;-0.1625;
920.1000;0.1522;-0.1601;
920.4000;0.1522;-0.1553;
920.7000;0.1506;-0.1697;
921.0000;0.1457;-0.1744;
921.3000;0.1506;-0.1601;
921.6000;0.1514;-0.1529;
921.9000;0.1522;-0.1553;
922.2000;0.1498;-0.1529;
922.5000;0.1530;-0.1434;
922.8000;0.1514;-0.1434;
923.1000;0.1514;-0.1505;
923.4000;0.1498;-0.1577;
923.7000;0.1498;-0.1482;
924.0000;0.1506;-0.1505;
924.3000;0.1538;-0.1362;
924.6000;0.1506;-0.1434;
924.9000;0.1506;-0.1482;
925.2000;0.1514;-0.1386;
925.5000;0.1498;-0.1386;
925.8000;0.1538;-0.1266;
926.1000;0.1498;-0.1338;
926.4000;0.1547;-0.1266;
926.7000;0.1498;-0.1434;
927.0000;0.1514;-0.1434;
927.3000;0.1514;-0.1458;
927.6000;0.1408;-0.1816;
927.9000;0.1522;-0.1577;
928.2000;0.1506;-0.1649;
928.5000;0.1498;-0.1529;
928.8000;0.1530;-0.1505;
929.1000;0.1522;-0.1553;
929.4000;0.1514;-0.1553;
929.7000;0.1498;-0.1553;
930.0000;0.1490;-0.1458;
930.3000;0.1514;-0.1434;
930.6000;0.1530;-0.1434;
930.9000;0.1498;-0.1577;
931.2000;0.1490;-0.1649;
931.5000;0.1490;-0.1553;
931.8000;0.1506;-0.1458;
932.1000;0.1514;-0.1434;
932.4000;0.1514;-0.1458;
932.7000;0.1604;-0.1266;
933.0000;0.1538;-0.1458;
933.3000;0.1514;-0.1458;
933.6000;0.1530;-0.1362;
933.9000;0.1506;-0.1434;
934.2000;0.1506;-0.1458;
934.5000;0.1514;-0.1362;
934.8000;0.1441;-0.1553;
935.1000;0.1612;-0.1147;
935.4000;0.1628;-0.1123;
935.7000;0.1506;-0.1434;
936.0000;0.1530;-0.1386;
936.3000;0.1522;-0.1386;
936.6000;0.1481;-0.1458;
936.9000;0.1579;-0.1219;
937.2000;0.1514;-0.1434;
937.5000;0.1522;-0.1482;
937.8000;0.1506;-0.1505;
938.1000;0.1506;-0.1529;
938.4000;0.1506;-0.1458;
938.7000;0.1416;-0.1816;
939.0000;0.1538;-0.1458;
939.3000;0.1522;-0.1434;
939.6000;0.1498;-0.1434;
939.9000;0.1490;-0.1482;
940.2000;0.1506;-0.1505;
940.5000;0.1506;-0.1505;
940.8000;0.1506;-0.1458;
941.1000;0.1425;-0.1649;
941.4000;0.1498;-0.1482;
941.7000;0.1514;-0.1482;
942.0000;0.1481;-0.1529;
942.3000;0.1400;-0.1888;
942.6000;0.1425;-0.1816;
942.9000;0.1449;-0.1768;
943.2000;0.1514;-0.1553;
943.5000;0.1612;-0.1314;
943.8000;0.1449;-0.1697;
944.1000;0.1465;-0.1721;
944.4000;0.1514;-0.1601;
944.7000;0.1563;-0.1410;
945.0000;0.1514;-0.1625;
945.3000;0.1514;-0.1625;
945.6000;0.1481;-0.1744;
945.9000;0.1522;-0.1673;
946.2000;0.1522;-0.1625;
946.5000;0.1514;-0.1625;
946.8000;0.1481;-0.1744;
947.1000;0.1490;-0.1792;
947.4000;0.1506;-0.1768;
947.7000;0.1514;-0.1721;
948.0000;0.1514;-0.1697;
948.3000;0.1457;-0.1983;
948.6000;0.1538;-0.1721;
948.9000;0.1522;-0.1744;
949.2000;0.1563;-0.1649;
949.5000;0.1506;-0.1697;
949.8000;0.1506;-0.1673;
950.1000;0.1538;-0.1577;
950.4000;0.1498;-0.1697;
950.7000;0.1506;-0.1601;
951.0000;0.1522;-0.1649;
951.3000;0.1636;-0.1290;
951.6000;0.1514;-0.1505;
951.9000;0.1473;-0.1673;
952.2000;0.1530;-0.1577;
952.5000;0.1506;-0.1529;
952.8000;0.1506;-0.1505;
953.1000;0.1506;-0.1553;
953.4000;0.1514;-0.1529;
953.7000;0.1506;-0.1577;
954.0000;0.1571;-0.1434;
954.3000;0.1514;-0.1601;
954.6000;0.1563;-0.1458;
954.9000;0.1514;-0.1625;
955.2000;0.1514;-0.1553;
955.5000;0.1498;-0.1553;
955.8000;0.1473;-0.1649;
956.1000;0.1522;-0.1529;
956.4000;0.1465;-0.1721;
956.7000;0.1514;-0.1601;
957.0000;0.1506;-0.1649;
957.3000;0.1490;-0.1673;
957.6000;0.1522;-0.1505;
957.9000;0.1498;-0.1553;
958.2000;0.1498;-0.1577;
958.5000;0.1490;-0.1697;
958.8000;0.1522;-0.1649;
959.1000;0.1522;-0.1625;
959.4000;0.1481;-0.1744;
959.7000;0.1457;-0.1888;
960.0000;0.1392;-0.1983;
960.3000;0.1506;-0.1697;
960.6000;0.1514;-0.1721;
960.9000;0.1514;-0.1649;
961.2000;0.1498;-0.1721;
961.5000;0.1498;-0.1673;
961.8000;0.1506;-0.1625;
962.1000;0.1498;-0.1697;
962.4000;0.1498;-0.1721;
962.7000;0.1514;-0.1649;
963.0000;0.1530;-0.1577;
963.3000;0.1490;-0.1577;
963.6000;0.1490;-0.1601;
963.9000;0.1490;-0.1721;
964.2000;0.1449;-0.1816;
964.5000;0.1457;-0.1697;
964.8000;0.1506;-0.1553;
965.1000;0.1514;-0.1529;
965.4000;0.1522;-0.1505;
965.7000;0.1498;-0.1553;
966.0000;0.1481;-0.1577;
966.3000;0.1490;-0.1553;
966.6000;0.1498;-0.1577;
966.9000;0.1481;-0.1673;
967.2000;0.1522;-0.1601;
967.5000;0.1498;-0.1625;
967.8000;0.1522;-0.1601;
968.1000;0.1555;-0.1386;
968.4000;0.1514;-0.1529;
968.7000;0.1490;-0.1601;
969.0000;0.1522;-0.1625;
969.3000;0.1506;-0.1697;
969.6000;0.1408;-0.2031;
969.9000;0.1506;-0.1768;
970.2000;0.1506;-0.1768;
970.5000;0.1506;-0.1649;
970.8000;0.1514;-0.1601;
971.1000;0.1538;-0.1529;
971.4000;0.1522;-0.1601;
971.7000;0.1522;-0.1577;
972.0000;0.1538;-0.1553;
972.3000;0.1514;-0.1649;
972.6000;0.1506;-0.1721;
972.9000;0.1514;-0.1768;
973.2000;0.1522;-0.1792;
973.5000;0.1514;-0.1864;
973.8000;0.1595;-0.1649;
974.1000;0.1514;-0.1888;
974.4000;0.1506;-0.1888;
974.7000;0.1522;-0.1768;
975.0000;0.1530;-0.1721;
975.3000;0.1465;-0.1816;
975.6000;0.1498;-0.1744;
975.9000;0.1587;-0.1601;
976.2000;0.1449;-0.1936;
976.5000;0.1538;-0.1744;
976.8000;0.1506;-0.1768;
977.1000;0.1579;-0.1601;
977.4000;0.1522;-0.1744;
977.7000;0.1506;-0.1744;
978.0000;0.1514;-0.1792;
978.3000;0.1498;-0.1744;
978.6000;0.1490;-0.1744;
978.9000;0.1506;-0.1673;
979.2000;0.1555;-0.1505;
979.5000;0.1514;-0.1697;
979.8000;0.1490;-0.1768;
980.1000;0.1473;-0.1744;
980.4000;0.1498;-0.1744;
980.7000;0.1498;-0.1816;
981.0000;0.1522;-0.1744;
981.3000;0.1498;-0.1816;
981.6000;0.1514;-0.1792;
981.9000;0.1506;-0.1768;
982.2000;0.1490;-0.1816;
982.5000;0.1481;-0.1744;
982.8000;0.1538;-0.1649;
983.1000;0.1498;-0.1721;
983.4000;0.1425;-0.1959;
983.7000;0.1514;-0.1697;
984.0000;0.1481;-0.1744;
984.3000;0.1481;-0.1840;
984.6000;0.1522;-0.1721;
984.9000;0.1530;-0.1649;
985.2000;0.1506;-0.1697;
985.5000;0.1473;-0.1864;
985.8000;0.1490;-0.1816;
986.1000;0.1530;-0.1673;
986.4000;0.1490;-0.1816;
986.7000;0.1481;-0.1888;
987.0000;0.1481;-0.1888;
987.3000;0.1514;-0.1864;
987.6000;0.1506;-0.1864;
987.9000;0.1490;-0.1840;
988.2000;0.1473;-0.1840;
988.5000;0.1514;-0.1792;
988.8000;0.1514;-0.1697;
989.1000;0.1481;-0.1744;
989.4000;0.1490;-0.1816;
989.7000;0.1481;-0.1959;
990.0000;0.1514;-0.1888;
990.3000;0.1579;-0.1673;
990.6000;0.1498;-0.1816;
990.9000;0.1506;-0.1792;
991.2000;0.1514;-0.1697;
991.5000;0.1506;-0.1744;
991.8000;0.1481;-0.1816;
992.1000;0.1530;-0.1721;
992.4000;0.1498;-0.1792;
992.7000;0.1498;-0.1744;
993.0000;0.1514;-0.1721;
993.3000;0.1514;-0.1744;
993.6000;0.1530;-0.1744;
993.9000;0.1530;-0.1721;
994.2000;0.1514;-0.1768;
994.5000;0.1481;-0.1840;
994.8000;0.1506;-0.1792;
995.1000;0.1473;-0.1888;
995.4000;0.1506;-0.1816;
995.7000;0.1506;-0.1864;
996.0000;0.1579;-0.1673;
996.3000;0.1522;-0.1840;
996.6000;0.1514;-0.1840;
996.9000;0.1522;-0.1816;
997.2000;0.1530;-0.1840;
997.5000;0.1530;-0.1768;
997.8000;0.1506;-0.1840;
998.1000;0.1498;-0.1912;
998.4000;0.1498;-0.1864;
998.7000;0.1514;-0.1816;
999.0000;0.1506;-0.1792;
999.3000;0.1514;-0.1768;
999.6000;0.1506;-0.1768;
999.9000;0.1506;-0.1792;
1000.2000;0.1514;-0.1840;
1000.5000;0.1506;-0.1959;
1000.8000;0.1481;-0.2055;
1001.1000;0.1522;-0.1888;
1001.4000;0.1514;-0.1792;
1001.7000;0.1530;-0.1721;
1002.0000;0.1522;-0.1768;
1002.3000;0.1490;-0.1888;
1002.6000;0.1514;-0.1840;
1002.9000;0.1522;-0.1792;
1003.2000;0.1555;-0.1577;
1003.5000;0.1514;-0.1625;
1003.8000;0.1514;-0.1721;
1004.1000;0.1514;-0.1721;
1004.4000;0.1514;-0.1792;
1004.7000;0.1522;-0.1792;
1005.0000;0.1506;-0.1792;
1005.3000;0.1514;-0.1697;
1005.6000;0.1538;-0.1577;
1005.9000;0.1506;-0.1625;
1006.2000;0.1498;-0.1721;
1006.5000;0.1490;-0.1768;
1006.8000;0.1506;-0.1840;
1007.1000;0.1506;-0.1840;
1007.4000;0.1441;-0.1959;
1007.7000;0.1506;-0.1768;
1008.0000;0.1522;-0.1697;
1008.3000;0.1498;-0.1744;
1008.6000;0.1506;-0.1768;
1008.9000;0.1514;-0.1697;
1009.2000;0.1481;-0.1721;
1009.5000;0.1490;-0.1601;
1009.8000;0.1490;-0.1673;
1010.1000;0.1522;-0.1601;
1010.4000;0.1408;-0.1936;
1010.7000;0.1506;-0.1721;
1011.0000;0.1490;-0.1768;
1011.3000;0.1522;-0.1625;
1011.6000;0.1498;-0.1625;
1011.9000;0.1498;-0.1553;
1012.2000;0.1498;-0.1601;
1012.5000;0.1441;-0.1744;
1012.8000;0.1506;-0.1577;
1013.1000;0.1506;-0.1577;
1013.4000;0.1490;-0.1577;
1013.7000;0.1498;-0.1529;
1014.0000;0.1490;-0.1553;
1014.3000;0.1506;-0.1505;
1014.6000;0.1522;-0.1482;
1014.9000;0.1481;-0.1625;
1015.2000;0.1522;-0.1625;
1015.5000;0.1473;-0.1792;
1015.8000;0.1514;-0.1697;
1016.1000;0.1506;-0.1744;
1016.4000;0.1498;-0.1744;
1016.7000;0.1506;-0.1649;
1017.0000;0.1514;-0.1649;
1017.3000;0.1506;-0.1721;
1017.6000;0.1490;-0.1792;
1017.9000;0.1506;-0.1697;
1018.2000;0.1522;-0.1673;
1018.5000;0.1514;-0.1768;
1018.8000;0.1498;-0.1792;
1019.1000;0.1506;-0.1792;
1019.4000;0.1522;-0.1744;
1019.7000;0.1522;-0.1673;
1020.0000;0.1522;-0.1625;
1020.3000;0.1522;-0.1601;
1020.6000;0.1449;-0.1792;
1020.9000;0.1555;-0.1577;
1021.2000;0.1498;-0.1649;
1021.5000;0.1530;-0.1553;
1021.8000;0.1457;-0.1816;
1022.1000;0.1506;-0.1673;
1022.4000;0.1465;-0.1697;
1022.7000;0.1498;-0.1553;
1023.0000;0.1506;-0.1553;
1023.3000;0.1490;-0.1625;
1023.6000;0.1506;-0.1625;
1023.9000;0.1514;-0.1625;
1024.2000;0.1514;-0.1625;
1024.5000;0.1514;-0.1577;
1024.8000;0.1522;-0.1697;
1025.1000;0.1514;-0.1768;
1025.4000;0.1579;-0.1529;
1025.7000;0.1506;-0.1649;
1026.0000;0.1522;-0.1601;
1026.3000;0.1514;-0.1649;
1026.6000;0.1571;-0.1505;
1026.9000;0.1506;-0.1625;
1027.2000;0.1408;-0.1888;
1027.5000;0.1498;-0.1697;
1027.8000;0.1506;-0.1625;
1028.1000;0.1498;-0.1673;
1028.4000;0.1522;-0.1625;
1028.7000;0.1522;-0.1553;
1029.0000;0.1506;-0.1529;
1029.3000;0.1473;-0.1577;
1029.6000;0.1514;-0.1482;
1029.9000;0.1506;-0.1625;
1030.2000;0.1514;-0.1625;
1030.5000;0.1530;-0.1625;
1030.8000;0.1514;-0.1792;
1031.1000;0.1481;-0.1816;
1031.4000;0.1530;-0.1697;
1031.7000;0.1522;-0.1768;
1032.0000;0.1498;-0.1744;
1032.3000;0.1490;-0.1816;
1032.6000;0.1506;-0.1840;
1032.9000;0.1506;-0.1864;
1033.2000;0.1514;-0.1816;
1033.5000;0.1425;-0.2007;
1033.8000;0.1514;-0.1744;
1034.1000;0.1506;-0.1816;
1034.4000;0.1587;-0.1577;
1034.7000;0.1514;-0.1744;
1035.0000;0.1522;-0.1673;
1035.3000;0.1522;-0.1721;
1035.6000;0.1514;-0.1768;
1035.9000;0.1514;-0.1697;
1036.2000;0.1514;-0.1768;
1036.5000;0.1530;-0.1768;
1036.8000;0.1506;-0.1864;
1037.1000;0.1506;-0.1888;
1037.4000;0.1514;-0.1768;
1037.7000;0.1514;-0.1792;
1038.0000;0.1506;-0.1912;
1038.3000;0.1498;-0.1888;
1038.6000;0.1514;-0.1768;
1038.9000;0.1522;-0.1721;
1039.2000;0.1506;-0.1792;
1039.5000;0.1498;-0.1744;
1039.8000;0.1506;-0.1792;
1040.1000;0.1522;-0.1792;
1040.4000;0.1262;-0.2413;
1040.7000;0.1514;-0.1721;
1041.0000;0.1514;-0.1840;
1041.3000;0.1506;-0.1888;
1041.6000;0.1457;-0.1888;
1041.9000;0.1522;-0.1768;
1042.2000;0.1498;-0.1864;
1042.5000;0.1571;-0.1673;
1042.8000;0.1514;-0.1792;
1043.1000;0.1506;-0.1840;
1043.4000;0.1416;-0.2079;
1043.7000;0.1498;-0.1840;
1044.0000;0.1530;-0.1888;
1044.3000;0.1530;-0.1864;
1044.6000;0.1514;-0.1888;
1044.9000;0.1506;-0.1912;
1045.2000;0.1506;-0.1888;
1045.5000;0.1506;-0.1912;
1045.8000;0.1506;-0.1840;
1046.1000;0.1514;-0.1768;
1046.4000;0.1481;-0.1816;
1046.7000;0.1522;-0.1721;
1047.0000;0.1522;-0.1721;
1047.3000;0.1628;-0.1410;
1047.6000;0.1465;-0.1864;
1047.9000;0.1522;-0.1721;
1048.2000;0.1538;-0.1721;
1048.5000;0.1514;-0.1721;
1048.8000;0.1449;-0.1983;
1049.1000;0.1490;-0.1816;
1049.4000;0.1530;-0.1744;
1049.7000;0.1506;-0.1816;
1050.0000;0.1506;-0.1768;
1050.3000;0.1506;-0.1721;
1050.6000;0.1530;-0.1601;
1050.9000;0.1571;-0.1386;
1051.2000;0.1620;-0.1219;
1051.5000;0.1498;-0.1505;
1051.8000;0.1514;-0.1553;
1052.1000;0.1481;-0.1673;
1052.4000;0.1522;-0.1601;
1052.7000;0.1506;-0.1721;
1053.0000;0.1514;-0.1697;
1053.3000;0.1514;-0.1697;
1053.6000;0.1571;-0.1673;
1053.9000;0.1490;-0.1888;
1054.2000;0.1506;-0.1864;
1054.5000;0.1579;-0.1697;
1054.8000;0.1441;-0.2007;
1055.1000;0.1506;-0.1864;
1055.4000;0.1506;-0.1983;
1055.7000;0.1595;-0.1768;
1056.0000;0.1514;-0.1959;
1056.3000;0.1538;-0.1768;
1056.6000;0.1490;-0.1959;
1056.9000;0.1530;-0.1744;
1057.2000;0.1547;-0.1697;
1057.5000;0.1522;-0.1768;
1057.8000;0.1514;-0.1673;
1058.1000;0.1538;-0.1577;
1058.4000;0.1465;-0.1697;
1058.7000;0.1506;-0.1625;
1059.0000;0.1408;-0.1959;
1059.3000;0.1620;-0.1362;
1059.6000;0.1522;-0.1601;
1059.9000;0.1506;-0.1649;
1060.2000;0.1433;-0.1721;
1060.5000;0.1522;-0.1505;
1060.8000;0.1506;-0.1529;
1061.1000;0.1408;-0.1768;
1061.4000;0.1481;-0.1482;
1061.7000;0.1530;-0.1410;
1062.0000;0.1506;-0.1577;
1062.3000;0.1506;-0.1577;
1062.6000;0.1555;-0.1434;
1062.9000;0.1506;-0.1553;
1063.2000;0.1498;-0.1577;
1063.5000;0.1514;-0.1577;
1063.8000;0.1530;-0.1553;
1064.1000;0.1465;-0.1768;
1064.4000;0.1457;-0.1721;
1064.7000;0.1514;-0.1529;
1065.0000;0.1506;-0.1553;
1065.3000;0.1327;-0.2031;
1065.6000;0.1498;-0.1673;
1065.9000;0.1481;-0.1673;
1066.2000;0.1530;-0.1482;
1066.5000;0.1490;-0.1649;
1066.8000;0.1514;-0.1577;
1067.1000;0.1506;-0.1625;
1067.4000;0.1490;-0.1673;
1067.7000;0.1522;-0.1625;
1068.0000;0.1514;-0.1577;
1068.3000;0.1563;-0.1410;
1068.6000;0.1481;-0.1649;
1068.9000;0.1530;-0.1505;
1069.2000;0.1555;-0.1434;
1069.5000;0.1457;-0.1673;
1069.8000;0.1522;-0.1458;
1070.1000;0.1538;-0.1529;
1070.4000;0.1514;-0.1553;
1070.7000;0.1481;-0.1601;
1071.0000;0.1595;-0.1386;
1071.3000;0.1530;-0.1649;
1071.6000;0.1522;-0.1625;
1071.9000;0.1498;-0.1601;
1072.2000;0.1514;-0.1505;
1072.5000;0.1514;-0.1505;
1072.8000;0.1555;-0.1386;
1073.1000;0.1522;-0.1482;
1073.4000;0.1490;-0.1553;
1073.7000;0.1514;-0.1434;
1074.0000;0.1530;-0.1314;
1074.3000;0.1538;-0.1219;
1074.6000;0.1522;-0.1362;
1074.9000;0.1538;-0.1314;
1075.2000;0.1457;-0.1553;
1075.5000;0.1490;-0.1386;
1075.8000;0.1498;-0.1458;
1076.1000;0.1530;-0.1386;
1076.4000;0.1498;-0.1458;
1076.7000;0.1498;-0.1386;
1077.0000;0.1522;-0.1362;
1077.3000;0.1498;-0.1458;
1077.6000;0.1441;-0.1577;
1077.9000;0.1514;-0.1434;
1078.2000;0.1514;-0.1386;
1078.5000;0.1506;-0.1338;
1078.8000;0.1604;-0.1099;
1079.1000;0.1490;-0.1362;
1079.4000;0.1473;-0.1505;
1079.7000;0.1514;-0.1505;
1080.0000;0.1490;-0.1482;
1080.3000;0.1514;-0.1505;
1080.6000;0.1433;-0.1553;
1080.9000;0.1522;-0.1338;
1081.2000;0.1530;-0.1266;
1081.5000;0.1490;-0.1338;
1081.8000;0.1514;-0.1386;
1082.1000;0.1522;-0.1434;
1082.4000;0.1506;-0.1482;
1082.7000;0.1522;-0.1482;
1083.0000;0.1547;-0.1338;
1083.3000;0.1506;-0.1386;
1083.6000;0.1522;-0.1362;
1083.9000;0.1530;-0.1338;
1084.2000;0.1538;-0.1290;
1084.5000;0.1498;-0.1434;
1084.8000;0.1506;-0.1458;
1085.1000;0.1538;-0.1338;
1085.4000;0.1490;-0.1482;
1085.7000;0.1490;-0.1529;
1086.0000;0.1514;-0.1625;
1086.3000;0.1498;-0.1601;
1086.6000;0.1522;-0.1625;
1086.9000;0.1514;-0.1673;
1087.2000;0.1490;-0.1721;
1087.5000;0.1481;-0.1649;
1087.8000;0.1490;-0.1649;
1088.1000;0.1506;-0.1625;
1088.4000;0.1506;-0.1697;
1088.7000;0.1514;-0.1673;
1089.0000;0.1522;-0.1744;
1089.3000;0.1522;-0.1744;
1089.6000;0.1620;-0.1434;
1089.9000;0.1481;-0.1816;
1090.2000;0.1498;-0.1768;
1090.5000;0.1522;-0.1697;
1090.8000;0.1530;-0.1721;
1091.1000;0.1571;-0.1553;
1091.4000;0.1522;-0.1625;
1091.7000;0.1498;-0.1673;
1092.0000;0.1522;-0.1577;
1092.3000;0.1498;-0.1673;
1092.6000;0.1481;-0.1697;
1092.9000;0.1514;-0.1577;
1093.2000;0.1514;-0.1458;
1093.5000;0.1522;-0.1458;
1093.8000;0.1506;-0.1410;
1094.1000;0.1530;-0.1410;
1094.4000;0.1530;-0.1458;
1094.7000;0.1506;-0.1482;
1095.0000;0.1441;-0.1697;
1095.3000;0.1498;-0.1529;
1095.6000;0.1522;-0.1577;
1095.9000;0.1473;-0.1649;
1096.2000;0.1506;-0.1625;
1096.5000;0.1473;-0.1792;
1096.8000;0.1514;-0.1649;
1097.1000;0.1514;-0.1697;
1097.4000;0.1514;-0.1721;
1097.7000;0.1514;-0.1649;
1098.0000;0.1522;-0.1577;
1098.3000;0.1604;-0.1290;
1098.6000;0.1506;-0.1458;
1098.9000;0.1490;-0.1505;
1099.2000;0.1514;-0.1458;
1099.5000;0.1481;-0.1434;
1099.8000;0.1490;-0.1434;
1100.1000;0.1530;-0.1386;
1100.4000;0.1514;-0.1410;
1100.7000;0.1514;-0.1434;
1101.0000;0.1514;-0.1362;
1101.3000;0.1530;-0.1386;
1101.6000;0.1498;-0.1529;
1101.9000;0.1514;-0.1553;
1102.2000;0.1530;-0.1553;
1102.5000;0.1473;-0.1625;
1102.8000;0.1457;-0.1697;
1103.1000;0.1490;-0.1577;
1103.4000;0.1498;-0.1505;
1103.7000;0.1514;-0.1505;
1104.0000;0.1538;-0.1505;
1104.3000;0.1490;-0.1577;
1104.6000;0.1498;-0.1553;
1104.9000;0.1490;-0.1553;
1105.2000;0.1506;-0.1625;
1105.5000;0.1481;-0.1697;
1105.8000;0.1530;-0.1673;
1106.1000;0.1555;-0.1697;
1106.4000;0.1506;-0.1744;
1106.7000;0.1481;-0.1864;
1107.0000;0.1506;-0.1792;
1107.3000;0.1547;-0.1697;
1107.6000;0.1538;-0.1673;
1107.9000;0.1522;-0.1697;
1108.2000;0.1522;-0.1721;
1108.5000;0.1522;-0.1577;
1108.8000;0.1514;-0.1625;
1109.1000;0.1506;-0.1577;
1109.4000;0.1522;-0.1601;
1109.7000;0.1498;-0.1673;
1110.0000;0.1530;-0.1601;
1110.3000;0.1490;-0.1601;
1110.6000;0.1530;-0.1505;
1110.9000;0.1514;-0.1529;
1111.2000;0.1490;-0.1601;
1111.5000;0.1547;-0.1410;
1111.8000;0.1481;-0.1529;
1112.1000;0.1530;-0.1434;
1112.4000;0.1604;-0.1266;
1112.7000;0.1481;-0.1529;
1113.0000;0.1473;-0.1529;
1113.3000;0.1522;-0.1338;
1113.6000;0.1538;-0.1314;
1113.9000;0.1498;-0.1434;
1114.2000;0.1441;-0.1577;
1114.5000;0.1514;-0.1338;
1114.8000;0.1514;-0.1338;
1115.1000;0.1506;-0.1386;
1115.4000;0.1514;-0.1482;
1115.7000;0.1506;-0.1601;
1116.0000;0.1498;-0.1553;
1116.3000;0.1506;-0.1553;
1116.6000;0.1506;-0.1505;
1116.9000;0.1498;-0.1625;
1117.2000;0.1506;-0.1673;
1117.5000;0.1490;-0.1673;
1117.8000;0.1514;-0.1625;
1118.1000;0.1498;-0.1649;
1118.4000;0.1498;-0.1625;
1118.7000;0.1498;-0.1649;
1119.0000;0.1506;-0.1601;
1119.3000;0.1522;-0.1553;
1119.6000;0.1498;-0.1577;
1119.9000;0.1530;-0.1553;
1120.2000;0.1506;-0.1553;
1120.5000;0.1514;-0.1553;
1120.8000;0.1506;-0.1577;
1121.1000;0.1490;-0.1601;
1121.4000;0.1506;-0.1529;
1121.7000;0.1506;-0.1601;
1122.0000;0.1498;-0.1601;
1122.3000;0.1514;-0.1577;
1122.6000;0.1514;-0.1505;
1122.9000;0.1506;-0.1458;
1123.2000;0.1595;-0.1243;
1123.5000;0.1514;-0.1458;
1123.8000;0.1498;-0.1458;
1124.1000;0.1530;-0.1458;
1124.4000;0.1506;-0.1458;
1124.7000;0.1498;-0.1505;
1125.0000;0.1498;-0.1458;
1125.3000;0.1514;-0.1458;
1125.6000;0.1490;-0.1505;
1125.9000;0.1498;-0.1410;
1126.2000;0.1449;-0.1625;
1126.5000;0.1514;-0.1410;
1126.8000;0.1514;-0.1386;
1127.1000;0.1514;-0.1410;
1127.4000;0.1490;-0.1410;
1127.7000;0.1506;-0.1362;
1128.0000;0.1514;-0.1434;
1128.3000;0.1547;-0.1243;
1128.6000;0.1506;-0.1362;
1128.9000;0.1530;-0.1338;
1129.2000;0.1481;-0.1362;
1129.5000;0.1506;-0.1362;
1129.8000;0.1514;-0.1434;
1130.1000;0.1555;-0.1290;
1130.4000;0.1522;-0.1410;
1130.7000;0.1522;-0.1410;
1131.0000;0.1522;-0.1338;
1131.3000;0.1514;-0.1362;
1131.6000;0.1522;-0.1362;
1131.9000;0.1530;-0.1314;
1132.2000;0.1465;-0.1458;
1132.5000;0.1506;-0.1314;
1132.8000;0.1506;-0.1338;
1133.1000;0.1514;-0.1338;
1133.4000;0.1522;-0.1266;
1133.7000;0.1481;-0.1434;
1134.0000;0.1506;-0.1410;
1134.3000;0.1514;-0.1434;
1134.6000;0.1514;-0.1386;
1134.9000;0.1481;-0.1505;
1135.2000;0.1514;-0.1410;
1135.5000;0.1514;-0.1410;
1135.8000;0.1506;-0.1410;
1136.1000;0.1530;-0.1386;
1136.4000;0.1506;-0.1410;
1136.7000;0.1506;-0.1505;
1137.0000;0.1530;-0.1362;
1137.3000;0.1522;-0.1434;
1137.6000;0.1506;-0.1482;
1137.9000;0.1522;-0.1458;
1138.2000;0.1530;-0.1410;
1138.5000;0.1571;-0.1243;
1138.8000;0.1514;-0.1458;
1139.1000;0.1506;-0.1482;
1139.4000;0.1481;-0.1553;
1139.7000;0.1514;-0.1577;
1140.0000;0.1522;-0.1601;
1140.3000;0.1506;-0.1601;
1140.6000;0.1514;-0.1553;
1140.9000;0.1522;-0.1553;
1141.2000;0.1506;-0.1577;
1141.5000;0.1514;-0.1553;
1141.8000;0.1514;-0.1482;
1142.1000;0.1490;-0.1458;
1142.4000;0.1522;-0.1410;
1142.7000;0.1506;-0.1362;
1143.0000;0.1514;-0.1386;
1143.3000;0.1498;-0.1410;
1143.6000;0.1506;-0.1386;
1143.9000;0.1490;-0.1482;
1144.2000;0.1498;-0.1529;
1144.5000;0.1514;-0.1505;
1144.8000;0.1522;-0.1362;
1145.1000;0.1473;-0.1529;
1145.4000;0.1522;-0.1434;
1145.7000;0.1506;-0.1505;
1146.0000;0.1506;-0.1482;
1146.3000;0.1457;-0.1697;
1146.6000;0.1506;-0.1410;
1146.9000;0.1498;-0.1458;
1147.2000;0.1514;-0.1410;
1147.5000;0.1506;-0.1458;
1147.8000;0.1506;-0.1434;
1148.1000;0.1506;-0.1434;
1148.4000;0.1514;-0.1362;
1148.7000;0.1514;-0.1338;
1149.0000;0.1506;-0.1386;
1149.3000;0.1498;-0.1410;
1149.6000;0.1506;-0.1386;
1149.9000;0.1514;-0.1434;
1150.2000;0.1514;-0.1482;
1150.5000;0.1506;-0.1553;
1150.8000;0.1506;-0.1553;
1151.1000;0.1441;-0.1864;
1151.4000;0.1506;-0.1601;
1151.7000;0.1506;-0.1529;
1152.0000;0.1490;-0.1529;
1152.3000;0.1538;-0.1362;
1152.6000;0.1514;-0.1410;
1152.9000;0.1498;-0.1505;
1153.2000;0.1506;-0.1410;
1153.5000;0.1425;-0.1601;
1153.8000;0.1514;-0.1410;
1154.1000;0.1514;-0.1410;
1154.4000;0.1506;-0.1529;
1154.7000;0.1506;-0.1553;
1155.0000;0.1506;-0.1458;
1155.3000;0.1506;-0.1482;
1155.6000;0.1506;-0.1482;
1155.9000;0.1514;-0.1577;
1156.2000;0.1498;-0.1577;
1156.5000;0.1498;-0.1529;
1156.8000;0.1498;-0.1482;
1157.1000;0.1514;-0.1482;
1157.4000;0.1579;-0.1290;
1157.7000;0.1498;-0.1482;
1158.0000;0.1498;-0.1601;
1158.3000;0.1498;-0.1649;
1158.6000;0.1530;-0.1577;
1158.9000;0.1522;-0.1553;
1159.2000;0.1514;-0.1577;
1159.5000;0.1514;-0.1625;
1159.8000;0.1522;-0.1625;
1160.1000;0.1547;-0.1553;
1160.4000;0.1514;-0.1577;
1160.7000;0.1506;-0.1673;
1161.0000;0.1522;-0.1601;
1161.3000;0.1514;-0.1601;
1161.6000;0.1604;-0.1338;
1161.9000;0.1514;-0.1553;
1162.2000;0.1506;-0.1649;
1162.5000;0.1506;-0.1673;
1162.8000;0.1506;-0.1649;
1163.1000;0.1514;-0.1577;
1163.4000;0.1457;-0.1673;
1163.7000;0.1498;-0.1529;
1164.0000;0.1506;-0.1482;
1164.3000;0.1514;-0.1458;
1164.6000;0.1514;-0.1529;
1164.9000;0.1498;-0.1553;
1165.2000;0.1506;-0.1553;
1165.5000;0.1506;-0.1649;
1165.8000;0.1522;-0.1649;
1166.1000;0.1604;-0.1482;
1166.4000;0.1538;-0.1625;
1166.7000;0.1522;-0.1673;
1167.0000;0.1506;-0.1744;
1167.3000;0.1490;-0.1816;
1167.6000;0.1563;-0.1697;
1167.9000;0.1522;-0.1816;
1168.2000;0.1522;-0.1840;
1168.5000;0.1530;-0.1792;
1168.8000;0.1498;-0.1864;
1169.1000;0.1506;-0.1840;
1169.4000;0.1587;-0.1601;
1169.7000;0.1522;-0.1697;
1170.0000;0.1530;-0.1697;
1170.3000;0.1514;-0.1697;
1170.6000;0.1612;-0.1553;
1170.9000;0.1522;-0.1792;
1171.2000;0.1563;-0.1697;
1171.5000;0.1514;-0.1816;
1171.8000;0.1498;-0.1744;
1172.1000;0.1506;-0.1721;
1172.4000;0.1522;-0.1768;
1172.7000;0.1620;-0.1458;
1173.0000;0.1620;-0.1529;
1173.3000;0.1579;-0.1649;
1173.6000;0.1522;-0.1721;
1173.9000;0.1514;-0.1840;
1174.2000;0.1522;-0.1864;
1174.5000;0.1490;-0.1864;
1174.8000;0.1376;-0.2175;
1175.1000;0.1498;-0.1840;
1175.4000;0.1498;-0.1768;
1175.7000;0.1514;-0.1673;
1176.0000;0.1457;-0.1768;
1176.3000;0.1538;-0.1577;
1176.6000;0.1612;-0.1290;
1176.9000;0.1498;-0.1601;
1177.2000;0.1506;-0.1553;
1177.5000;0.1498;-0.1601;
1177.8000;0.1481;-0.1601;
1178.1000;0.1563;-0.1505;
1178.4000;0.1506;-0.1673;
1178.7000;0.1514;-0.1697;
1179.0000;0.1571;-0.1529;
1179.3000;0.1506;-0.1744;
1179.6000;0.1498;-0.1816;
1179.9000;0.1506;-0.1792;
1180.2000;0.1490;-0.1840;
1180.5000;0.1481;-0.1864;
1180.8000;0.1506;-0.1768;
1181.1000;0.1522;-0.1697;
1181.4000;0.1522;-0.1697;
1181.7000;0.1498;-0.1744;
1182.0000;0.1522;-0.1673;
1182.3000;0.1506;-0.1744;
1182.6000;0.1506;-0.1649;
1182.9000;0.1506;-0.1697;
1183.2000;0.1522;-0.1601;
1183.5000;0.1571;-0.1434;
1183.8000;0.1506;-0.1673;
1184.1000;0.1530;-0.1697;
1184.4000;0.1563;-0.1625;
1184.7000;0.1506;-0.1721;
1185.0000;0.1530;-0.1673;
1185.3000;0.1490;-0.1888;
1185.6000;0.1555;-0.1721;
1185.9000;0.1538;-0.1792;
1186.2000;0.1522;-0.1744;
1186.5000;0.1506;-0.1697;
1186.8000;0.1506;-0.1721;
1187.1000;0.1530;-0.1649;
1187.4000;0.1538;-0.1673;
1187.7000;0.1522;-0.1673;
1188.0000;0.1506;-0.1744;
1188.3000;0.1514;-0.1697;
1188.6000;0.1514;-0.1649;
1188.9000;0.1514;-0.1697;
1189.2000;0.1490;-0.1816;
1189.5000;0.1514;-0.1768;
1189.8000;0.1514;-0.1721;
1190.1000;0.1547;-0.1625;
1190.4000;0.1514;-0.1744;
1190.7000;0.1481;-0.1864;
1191.0000;0.1498;-0.1840;
1191.3000;0.1547;-0.1816;
1191.6000;0.1595;-0.1673;
1191.9000;0.1506;-0.1936;
1192.2000;0.1514;-0.1959;
1192.5000;0.1530;-0.1912;
1192.8000;0.1498;-0.1959;
1193.1000;0.1498;-0.1912;
1193.4000;0.1514;-0.1840;
1193.7000;0.1490;-0.1840;
1194.0000;0.1530;-0.1744;
1194.3000;0.1506;-0.1840;
1194.6000;0.1522;-0.1816;
1194.9000;0.1547;-0.1744;
1195.2000;0.1579;-0.1577;
1195.5000;0.1473;-0.1888;
1195.8000;0.1522;-0.1721;
1196.1000;0.1514;-0.1744;
1196.4000;0.1408;-0.2055;
1196.7000;0.1498;-0.1816;
1197.0000;0.1522;-0.1768;
1197.3000;0.1530;-0.1744;
1197.6000;0.1522;-0.1792;
1197.9000;0.1514;-0.1840;
1198.2000;0.1530;-0.1840;
1198.5000;0.1530;-0.1792;
1198.8000;0.1530;-0.1768;
1199.1000;0.1530;-0.1792;
1199.4000;0.1514;-0.1864;
1199.7000;0.1465;-0.2007;
1200.0000;0.1530;-0.1864;
1200.3000;0.1490;-0.1888;
1200.6000;0.1449;-0.2007;
1200.9000;0.1514;-0.1816;
1201.2000;0.1498;-0.1768;
1201.5000;0.1547;-0.1649;
1201.8000;0.1514;-0.1697;
1202.1000;0.1530;-0.1625;
1202.4000;0.1506;-0.1697;
1202.7000;0.1547;-0.1601;
1203.0000;0.1490;-0.1744;
1203.3000;0.1522;-0.1673;
1203.6000;0.1498;-0.1721;
1203.9000;0.1514;-0.1744;
1204.2000;0.1538;-0.1697;
1204.5000;0.1465;-0.1912;
1204.8000;0.1579;-0.1625;
1205.1000;0.1514;-0.1792;
1205.4000;0.1506;-0.1840;
1205.7000;0.1490;-0.1888;
1206.0000;0.1514;-0.1768;
1206.3000;0.1530;-0.1816;
1206.6000;0.1498;-0.1936;
1206.9000;0.1506;-0.1840;
1207.2000;0.1530;-0.1840;
1207.5000;0.1506;-0.1912;
1207.8000;0.1498;-0.1816;
1208.1000;0.1522;-0.1840;
1208.4000;0.1514;-0.1768;
1208.7000;0.1506;-0.1792;
1209.0000;0.1490;-0.1792;
1209.3000;0.1514;-0.1768;
1209.6000;0.1514;-0.1744;
1209.9000;0.1563;-0.1625;
1210.2000;0.1457;-0.1936;
1210.5000;0.1514;-0.1649;
1210.8000;0.1498;-0.1721;
1211.1000;0.1547;-0.1649;
1211.4000;0.1465;-0.1744;
1211.7000;0.1530;-0.1649;
1212.0000;0.1498;-0.1816;
1212.3000;0.1530;-0.1697;
1212.6000;0.1498;-0.1840;
1212.9000;0.1522;-0.1816;
1213.2000;0.1522;-0.1792;
1213.5000;0.1498;-0.1888;
1213.8000;0.1506;-0.1816;
1214.1000;0.1514;-0.1673;
1214.4000;0.1498;-0.1721;
1214.7000;0.1498;-0.1721;
1215.0000;0.1522;-0.1625;
1215.3000;0.1514;-0.1792;
1215.6000;0.1522;-0.1792;
1215.9000;0.1563;-0.1721;
1216.2000;0.1506;-0.1936;
1216.5000;0.1514;-0.1888;
1216.8000;0.1563;-0.1721;
1217.1000;0.1522;-0.1768;
1217.4000;0.1481;-0.1816;
1217.7000;0.1506;-0.1768;
1218.0000;0.1506;-0.1792;
1218.3000;0.1514;-0.1768;
1218.6000;0.1538;-0.1864;
1218.9000;0.1522;-0.1983;
1219.2000;0.1514;-0.1912;
1219.5000;0.1547;-0.1888;
1219.8000;0.1514;-0.2007;
1220.1000;0.1522;-0.2007;
1220.4000;0.1498;-0.2031;
1220.7000;0.1498;-0.2031;
1221.0000;0.1514;-0.1983;
1221.3000;0.1498;-0.2031;
1221.6000;0.1522;-0.2079;
1221.9000;0.1506;-0.2055;
1222.2000;0.1498;-0.2031;
1222.5000;0.1490;-0.1983;
1222.8000;0.1490;-0.1912;
1223.1000;0.1530;-0.1768;
1223.4000;0.1506;-0.1744;
1223.7000;0.1514;-0.1505;
1224.0000;0.1506;-0.1553;
1224.3000;0.1522;-0.1553;
1224.6000;0.1490;-0.1697;
1224.9000;0.1538;-0.1553;
1225.2000;0.1408;-0.1816;
1225.5000;0.1522;-0.1410;
1225.8000;0.1522;-0.1362;
1226.1000;0.1514;-0.1290;
1226.4000;0.1506;-0.1362;
1226.7000;0.1506;-0.1434;
1227.0000;0.1498;-0.1482;
1227.3000;0.1498;-0.1529;
1227.6000;0.1498;-0.1625;
1227.9000;0.1481;-0.1721;
1228.2000;0.1506;-0.1649;
1228.5000;0.1538;-0.1553;
1228.8000;0.1538;-0.1529;
1229.1000;0.1481;-0.1625;
1229.4000;0.1514;-0.1553;
1229.7000;0.1490;-0.1601;
1230.0000;0.1538;-0.1721;
1230.3000;0.1514;-0.1792;
1230.6000;0.1522;-0.1792;
1230.9000;0.1506;-0.1816;
1231.2000;0.1538;-0.1697;
1231.5000;0.1506;-0.1721;
1231.8000;0.1522;-0.1649;
1232.1000;0.1490;-0.1744;
1232.4000;0.1514;-0.1673;
1232.7000;0.1514;-0.1721;
1233.0000;0.1490;-0.1816;
1233.3000;0.1530;-0.1721;
1233.6000;0.1514;-0.1649;
1233.9000;0.1522;-0.1577;
1234.2000;0.1506;-0.1601;
1234.5000;0.1498;-0.1601;
1234.8000;0.1490;-0.1625;
1235.1000;0.1498;-0.1649;
1235.4000;0.1498;-0.1625;
1235.7000;0.1522;-0.1505;
1236.0000;0.1473;-0.1601;
1236.3000;0.1538;-0.1410;
1236.6000;0.1530;-0.1577;
1236.9000;0.1514;-0.1553;
1237.2000;0.1490;-0.1697;
1237.5000;0.1514;-0.1625;
1237.8000;0.1506;-0.1577;
1238.1000;0.1498;-0.1577;
1238.4000;0.1506;-0.1673;
1238.7000;0.1514;-0.1625;
1239.0000;0.1522;-0.1577;
1239.3000;0.1522;-0.1673;
1239.6000;0.1498;-0.1768;
1239.9000;0.1530;-0.1721;
1240.2000;0.1514;-0.1744;
1240.5000;0.1514;-0.1721;
1240.8000;0.1522;-0.1721;
1241.1000;0.1514;-0.1697;
1241.4000;0.1514;-0.1625;
1241.7000;0.1514;-0.1553;
1242.0000;0.1498;-0.1577;
1242.3000;0.1506;-0.1625;
1242.6000;0.1514;-0.1577;
1242.9000;0.1498;-0.1625;
1243.2000;0.1506;-0.1553;
1243.5000;0.1498;-0.1529;
1243.8000;0.1522;-0.1482;
1244.1000;0.1514;-0.1529;
1244.4000;0.1498;-0.1577;
1244.7000;0.1498;-0.1577;
1245.0000;0.1498;-0.1482;
1245.3000;0.1530;-0.1386;
1245.6000;0.1522;-0.1458;
1245.9000;0.1400;-0.1768;
1246.2000;0.1522;-0.1529;
1246.5000;0.1522;-0.1505;
1246.8000;0.1514;-0.1458;
1247.1000;0.1514;-0.1505;
1247.4000;0.1506;-0.1458;
1247.7000;0.1522;-0.1362;
1248.0000;0.1506;-0.1362;
1248.3000;0.1481;-0.1482;
1248.6000;0.1506;-0.1458;
1248.9000;0.1506;-0.1434;
1249.2000;0.1514;-0.1338;
1249.5000;0.1514;-0.1362;
1249.8000;0.1514;-0.1362;
1250.1000;0.1490;-0.1458;
1250.4000;0.1506;-0.1386;
1250.7000;0.1506;-0.1410;
1251.0000;0.1530;-0.1386;
1251.3000;0.1514;-0.1505;
1251.6000;0.1530;-0.1505;
1251.9000;0.1530;-0.1505;
1252.2000;0.1555;-0.1601;
1252.5000;0.1506;-0.1649;
1252.8000;0.1514;-0.1649;
1253.1000;0.1506;-0.1673;
1253.4000;0.1522;-0.1625;
1253.7000;0.1514;-0.1625;
1254.0000;0.1522;-0.1673;
1254.3000;0.1506;-0.1697;
1254.6000;0.1514;-0.1649;
1254.9000;0.1506;-0.1601;
1255.2000;0.1498;-0.1601;
1255.5000;0.1506;-0.1625;
1255.8000;0.1506;-0.1601;
1256.1000;0.1490;-0.1625;
1256.4000;0.1498;-0.1625;
1256.7000;0.1506;-0.1553;
1257.0000;0.1506;-0.1601;
1257.3000;0.1514;-0.1553;
1257.6000;0.1506;-0.1553;
1257.9000;0.1506;-0.1553;
1258.2000;0.1514;-0.1529;
1258.5000;0.1506;-0.1505;
1258.8000;0.1514;-0.1577;
1259.1000;0.1530;-0.1553;
1259.4000;0.1522;-0.1434;
1259.7000;0.1514;-0.1458;
1260.0000;0.1506;-0.1505;
1260.3000;0.1587;-0.1290;
1260.6000;0.1514;-0.1482;
1260.9000;0.1530;-0.1505;
1261.2000;0.1644;-0.1219;
1261.5000;0.1506;-0.1649;
1261.8000;0.1498;-0.1601;
1262.1000;0.1522;-0.1529;
1262.4000;0.1408;-0.1840;
1262.7000;0.1514;-0.1625;
1263.0000;0.1522;-0.1625;
1263.3000;0.1514;-0.1625;
1263.6000;0.1514;-0.1601;
1263.9000;0.1490;-0.1601;
1264.2000;0.1506;-0.1649;
1264.5000;0.1441;-0.1864;
1264.8000;0.1506;-0.1601;
1265.1000;0.1522;-0.1529;
1265.4000;0.1498;-0.1458;
1265.7000;0.1506;-0.1362;
1266.0000;0.1457;-0.1577;
1266.3000;0.1490;-0.1482;
1266.6000;0.1506;-0.1482;
1266.9000;0.1425;-0.1673;
1267.2000;0.1587;-0.1266;
1267.5000;0.1555;-0.1338;
1267.8000;0.1514;-0.1505;
1268.1000;0.1441;-0.1673;
1268.4000;0.1449;-0.1601;
1268.7000;0.1506;-0.1553;
1269.0000;0.1514;-0.1577;
1269.3000;0.1506;-0.1625;
1269.6000;0.1498;-0.1625;
1269.9000;0.1514;-0.1553;
1270.2000;0.1514;-0.1649;
1270.5000;0.1481;-0.1768;
1270.8000;0.1506;-0.1673;
1271.1000;0.1498;-0.1673;
1271.4000;0.1522;-0.1577;
1271.7000;0.1514;-0.1673;
1272.0000;0.1571;-0.1529;
1272.3000;0.1408;-0.1888;
1272.6000;0.1506;-0.1553;
1272.9000;0.1530;-0.1505;
1273.2000;0.1506;-0.1529;
1273.5000;0.1522;-0.1577;
1273.8000;0.1522;-0.1553;
1274.1000;0.1571;-0.1505;
1274.4000;0.1490;-0.1673;
1274.7000;0.1514;-0.1673;
1275.0000;0.1522;-0.1625;
1275.3000;0.1514;-0.1553;
1275.6000;0.1514;-0.1553;
1275.9000;0.1498;-0.1529;
1276.2000;0.1579;-0.1266;
1276.5000;0.1547;-0.1386;
1276.8000;0.1506;-0.1458;
1277.1000;0.1514;-0.1458;
1277.4000;0.1514;-0.1458;
1277.7000;0.1514;-0.1410;
1278.0000;0.1473;-0.1458;
1278.3000;0.1481;-0.1410;
1278.6000;0.1506;-0.1386;
1278.9000;0.1530;-0.1434;
1279.2000;0.1506;-0.1505;
1279.5000;0.1522;-0.1553;
1279.8000;0.1514;-0.1553;
1280.1000;0.1457;-0.1721;
1280.4000;0.1506;-0.1649;
1280.7000;0.1506;-0.1721;
1281.0000;0.1506;-0.1697;
1281.3000;0.1571;-0.1553;
1281.6000;0.1514;-0.1744;
1281.9000;0.1490;-0.1721;
1282.2000;0.1628;-0.1314;
1282.5000;0.1490;-0.1625;
1282.8000;0.1506;-0.1482;
1283.1000;0.1522;-0.1482;
1283.4000;0.1522;-0.1529;
1283.7000;0.1522;-0.1577;
1284.0000;0.1530;-0.1553;
1284.3000;0.1498;-0.1577;
1284.6000;0.1514;-0.1553;
1284.9000;0.1506;-0.1505;
1285.2000;0.1522;-0.1505;
1285.5000;0.1604;-0.1219;
1285.8000;0.1498;-0.1505;
1286.1000;0.1416;-0.1673;
1286.4000;0.1530;-0.1458;
1286.7000;0.1514;-0.1505;
1287.0000;0.1538;-0.1434;
1287.3000;0.1506;-0.1505;
1287.6000;0.1506;-0.1601;
1287.9000;0.1506;-0.1649;
1288.2000;0.1514;-0.1649;
1288.5000;0.1498;-0.1601;
1288.8000;0.1506;-0.1601;
1289.1000;0.1530;-0.1529;
1289.4000;0.1530;-0.1577;
1289.7000;0.1514;-0.1649;
1290.0000;0.1522;-0.1649;
1290.3000;0.1571;-0.1505;
1290.6000;0.1506;-0.1673;
1290.9000;0.1465;-0.1768;
1291.2000;0.1490;-0.1792;
1291.5000;0.1693;-0.1243;
1291.8000;0.1522;-0.1744;
1292.1000;0.1514;-0.1697;
1292.4000;0.1473;-0.1840;
1292.7000;0.1595;-0.1505;
1293.0000;0.1522;-0.1697;
1293.3000;0.1522;-0.1697;
1293.6000;0.1490;-0.1768;
1293.9000;0.1498;-0.1744;
1294.2000;0.1522;-0.1673;
1294.5000;0.1490;-0.1768;
1294.8000;0.1506;-0.1673;
1295.1000;0.1457;-0.1744;
1295.4000;0.1506;-0.1625;
1295.7000;0.1530;-0.1553;
1296.0000;0.1392;-0.1959;
1296.3000;0.1571;-0.1482;
1296.6000;0.1522;-0.1625;
1296.9000;0.1514;-0.1649;
1297.2000;0.1368;-0.2007;
1297.5000;0.1416;-0.1864;
1297.8000;0.1506;-0.1625;
1298.1000;0.1514;-0.1601;
1298.4000;0.1506;-0.1553;
1298.7000;0.1498;-0.1577;
1299.0000;0.1473;-0.1673;
1299.3000;0.1506;-0.1625;
1299.6000;0.1506;-0.1553;
1299.9000;0.1628;-0.1243;
1300.2000;0.1490;-0.1673;
1300.5000;0.1473;-0.1697;
1300.8000;0.1522;-0.1553;
1301.1000;0.1506;-0.1601;
1301.4000;0.1514;-0.1625;
1301.7000;0.1514;-0.1649;
1302.0000;0.1457;-0.1744;
1302.3000;0.1498;-0.1577;
1302.6000;0.1514;-0.1482;
1302.9000;0.1481;-0.1529;
1303.2000;0.1547;-0.1458;
1303.5000;0.1530;-0.1529;
1303.8000;0.1514;-0.1601;
1304.1000;0.1514;-0.1649;
1304.4000;0.1498;-0.1625;
1304.7000;0.1530;-0.1505;
1305.0000;0.1514;-0.1649;
1305.3000;0.1522;-0.1697;
1305.6000;0.1522;-0.1649;
1305.9000;0.1538;-0.1529;
1306.2000;0.1522;-0.1577;
1306.5000;0.1522;-0.1577;
1306.8000;0.1514;-0.1553;
1307.1000;0.1530;-0.1505;
1307.4000;0.1522;-0.1458;
1307.7000;0.1514;-0.1505;
1308.0000;0.1612;-0.1290;
1308.3000;0.1490;-0.1577;
1308.6000;0.1457;-0.1673;
1308.9000;0.1376;-0.1864;
1309.2000;0.1490;-0.1577;
1309.5000;0.1506;-0.1529;
1309.8000;0.1514;-0.1458;
1310.1000;0.1587;-0.1266;
1310.4000;0.1547;-0.1410;
1310.7000;0.1522;-0.1553;
1311.0000;0.1522;-0.1529;
1311.3000;0.1522;-0.1529;
1311.6000;0.1522;-0.1553;
1311.9000;0.1506;-0.1649;
1312.2000;0.1530;-0.1625;
1312.5000;0.1571;-0.1410;
1312.8000;0.1506;-0.1577;
1313.1000;0.1514;-0.1482;
1313.4000;0.1498;-0.1649;
1313.7000;0.1514;-0.1649;
1314.0000;0.1514;-0.1673;
1314.3000;0.1498;-0.1744;
1314.6000;0.1506;-0.1673;
1314.9000;0.1490;-0.1673;
1315.2000;0.1498;-0.1649;
1315.5000;0.1506;-0.1673;
1315.8000;0.1498;-0.1697;
1316.1000;0.1449;-0.1864;
1316.4000;0.1547;-0.1577;
1316.7000;0.1498;-0.1697;
1317.0000;0.1490;-0.1673;
1317.3000;0.1538;-0.1482;
1317.6000;0.1547;-0.1529;
1317.9000;0.1506;-0.1625;
1318.2000;0.1571;-0.1434;
1318.5000;0.1506;-0.1553;
1318.8000;0.1514;-0.1577;
1319.1000;0.1506;-0.1601;
1319.4000;0.1481;-0.1721;
1319.7000;0.1522;-0.1601;
1320.0000;0.1506;-0.1553;
1320.3000;0.1506;-0.1482;
1320.6000;0.1522;-0.1505;
1320.9000;0.1490;-0.1553;
1321.2000;0.1530;-0.1482;
1321.5000;0.1506;-0.1553;
1321.8000;0.1498;-0.1601;
1322.1000;0.1506;-0.1553;
1322.4000;0.1538;-0.1505;
1322.7000;0.1514;-0.1505;
1323.0000;0.1490;-0.1577;
1323.3000;0.1538;-0.1482;
1323.6000;0.1481;-0.1529;
1323.9000;0.1547;-0.1410;
1324.2000;0.1498;-0.1482;
1324.5000;0.1514;-0.1386;
1324.8000;0.1498;-0.1386;
1325.1000;0.1530;-0.1314;
1325.4000;0.1547;-0.1243;
1325.7000;0.1506;-0.1362;
1326.0000;0.1498;-0.1386;
1326.3000;0.1481;-0.1505;
1326.6000;0.1547;-0.1338;
1326.9000;0.1522;-0.1458;
1327.2000;0.1465;-0.1673;
1327.5000;0.1506;-0.1577;
1327.8000;0.1514;-0.1577;
1328.1000;0.1498;-0.1601;
1328.4000;0.1530;-0.1577;
1328.7000;0.1506;-0.1505;
1329.0000;0.1490;-0.1529;
1329.3000;0.1506;-0.1505;
1329.6000;0.1514;-0.1505;
1329.9000;0.1498;-0.1553;
1330.2000;0.1506;-0.1553;
1330.5000;0.1473;-0.1625;
1330.8000;0.1555;-0.1505;
1331.1000;0.1490;-0.1601;
1331.4000;0.1457;-0.1768;
1331.7000;0.1506;-0.1649;
1332.0000;0.1490;-0.1625;
1332.3000;0.1522;-0.1529;
1332.6000;0.1530;-0.1505;
1332.9000;0.1506;-0.1625;
1333.2000;0.1384;-0.1936;
1333.5000;0.1506;-0.1553;
1333.8000;0.1498;-0.1434;
1334.1000;0.1514;-0.1410;
1334.4000;0.1490;-0.1482;
1334.7000;0.1506;-0.1386;
1335.0000;0.1473;-0.1410;
1335.3000;0.1506;-0.1338;
1335.6000;0.1530;-0.1338;
1335.9000;0.1506;-0.1410;
1336.2000;0.1498;-0.1482;
1336.5000;0.1498;-0.1553;
1336.8000;0.1522;-0.1434;
1337.1000;0.1530;-0.1410;
1337.4000;0.1538;-0.1410;
1337.7000;0.1498;-0.1529;
1338.0000;0.1522;-0.1505;
1338.3000;0.1514;-0.1529;
1338.6000;0.1547;-0.1410;
1338.9000;0.1522;-0.1458;
1339.2000;0.1498;-0.1553;
1339.5000;0.1538;-0.1482;
1339.8000;0.1522;-0.1434;
1340.1000;0.1473;-0.1649;
1340.4000;0.1514;-0.1577;
1340.7000;0.1506;-0.1649;
1341.0000;0.1506;-0.1649;
1341.3000;0.1498;-0.1697;
1341.6000;0.1490;-0.1625;
1341.9000;0.1506;-0.1505;
1342.2000;0.1465;-0.1553;
1342.5000;0.1481;-0.1505;
1342.8000;0.1490;-0.1482;
1343.1000;0.1514;-0.1529;
1343.4000;0.1498;-0.1625;
1343.7000;0.1498;-0.1721;
1344.0000;0.1514;-0.1673;
1344.3000;0.1514;-0.1721;
1344.6000;0.1514;-0.1649;
1344.9000;0.1514;-0.1625;
1345.2000;0.1465;-0.1768;
1345.5000;0.1506;-0.1601;
1345.8000;0.1514;-0.1649;
1346.1000;0.1514;-0.1577;
1346.4000;0.1506;-0.1649;
1346.7000;0.1498;-0.1553;
1347.0000;0.1522;-0.1601;
1347.3000;0.1514;-0.1625;
1347.6000;0.1506;-0.1625;
1347.9000;0.1514;-0.1553;
1348.2000;0.1506;-0.1625;
1348.5000;0.1538;-0.1577;
1348.8000;0.1514;-0.1697;
1349.1000;0.1506;-0.1697;
1349.4000;0.1514;-0.1577;
1349.7000;0.1522;-0.1553;
1350.0000;0.1530;-0.1553;
1350.3000;0.1530;-0.1505;
1350.6000;0.1506;-0.1577;
1350.9000;0.1514;-0.1505;
1351.2000;0.1530;-0.1410;
1351.5000;0.1522;-0.1482;
1351.8000;0.1498;-0.1529;
1352.1000;0.1465;-0.1792;
1352.4000;0.1514;-0.1649;
1352.7000;0.1514;-0.1697;
1353.0000;0.1498;-0.1721;
1353.3000;0.1522;-0.1649;
1353.6000;0.1522;-0.1625;
1353.9000;0.1514;-0.1625;
1354.2000;0.1514;-0.1601;
1354.5000;0.1522;-0.1482;
1354.8000;0.1506;-0.1482;
1355.1000;0.1465;-0.1625;
1355.4000;0.1522;-0.1434;
1355.7000;0.1514;-0.1458;
1356.0000;0.1490;-0.1505;
1356.3000;0.1449;-0.1577;
1356.6000;0.1506;-0.1458;
1356.9000;0.1481;-0.1529;
1357.2000;0.1506;-0.1482;
1357.5000;0.1514;-0.1577;
1357.8000;0.1449;-0.1768;
1358.1000;0.1628;-0.1243;
1358.4000;0.1514;-0.1625;
1358.7000;0.1506;-0.1673;
1359.0000;0.1514;-0.1601;
1359.3000;0.1514;-0.1601;
1359.6000;0.1514;-0.1649;
1359.9000;0.1522;-0.1601;
1360.2000;0.1595;-0.1434;
1360.5000;0.1514;-0.1577;
1360.8000;0.1506;-0.1577;
1361.1000;0.1449;-0.1744;
1361.4000;0.1514;-0.1529;
1361.7000;0.1490;-0.1697;
1362.0000;0.1506;-0.1577;
1362.3000;0.1506;-0.1625;
1362.6000;0.1506;-0.1529;
1362.9000;0.1490;-0.1601;
1363.2000;0.1498;-0.1529;
1363.5000;0.1506;-0.1529;
1363.8000;0.1506;-0.1553;
1364.1000;0.1506;-0.1458;
1364.4000;0.1498;-0.1434;
1364.7000;0.1498;-0.1505;
1365.0000;0.1530;-0.1505;
1365.3000;0.1514;-0.1482;
1365.6000;0.1506;-0.1482;
1365.9000;0.1628;-0.1147;
1366.2000;0.1473;-0.1577;
1366.5000;0.1514;-0.1458;
1366.8000;0.1514;-0.1482;
1367.1000;0.1498;-0.1529;
1367.4000;0.1514;-0.1505;
1367.7000;0.1506;-0.1577;
1368.0000;0.1514;-0.1529;
1368.3000;0.1498;-0.1601;
1368.6000;0.1506;-0.1601;
1368.9000;0.1506;-0.1529;
1369.2000;0.1506;-0.1505;
1369.5000;0.1490;-0.1529;
1369.8000;0.1490;-0.1529;
1370.1000;0.1514;-0.1482;
1370.4000;0.1506;-0.1529;
1370.7000;0.1490;-0.1577;
1371.0000;0.1547;-0.1458;
1371.3000;0.1530;-0.1458;
1371.6000;0.1514;-0.1577;
1371.9000;0.1481;-0.1744;
1372.2000;0.1490;-0.1792;
1372.5000;0.1514;-0.1721;
1372.8000;0.1506;-0.1721;
1373.1000;0.1604;-0.1434;
1373.4000;0.1506;-0.1697;
1373.7000;0.1506;-0.1649;
1374.0000;0.1522;-0.1577;
1374.3000;0.1604;-0.1314;
1374.6000;0.1506;-0.1505;
1374.9000;0.1514;-0.1482;
1375.2000;0.1506;-0.1529;
1375.5000;0.1506;-0.1482;
1375.8000;0.1514;-0.1482;
1376.1000;0.1522;-0.1553;
1376.4000;0.1514;-0.1577;
1376.7000;0.1522;-0.1601;
1377.0000;0.1514;-0.1625;
1377.3000;0.1538;-0.1601;
1377.6000;0.1457;-0.1840;
1377.9000;0.1514;-0.1625;
1378.2000;0.1514;-0.1529;
1378.5000;0.1514;-0.1505;
1378.8000;0.1522;-0.1553;
1379.1000;0.1408;-0.1840;
1379.4000;0.1506;-0.1601;
1379.7000;0.1612;-0.1362;
1380.0000;0.1522;-0.1601;
1380.3000;0.1530;-0.1577;
1380.6000;0.1498;-0.1697;
1380.9000;0.1530;-0.1697;
1381.2000;0.1522;-0.1649;
1381.5000;0.1522;-0.1697;
1381.8000;0.1506;-0.1649;
1382.1000;0.1522;-0.1577;
1382.4000;0.1579;-0.1458;
1382.7000;0.1514;-0.1649;
1383.0000;0.1530;-0.1505;
1383.3000;0.1538;-0.1577;
1383.6000;0.1465;-0.1768;
1383.9000;0.1506;-0.1744;
1384.2000;0.1563;-0.1553;
1384.5000;0.1433;-0.1936;
1384.8000;0.1481;-0.1840;
1385.1000;0.1547;-0.1721;
1385.4000;0.1522;-0.1721;
1385.7000;0.1514;-0.1697;
1386.0000;0.1538;-0.1673;
1386.3000;0.1514;-0.1649;
1386.6000;0.1490;-0.1768;
1386.9000;0.1441;-0.1864;
1387.2000;0.1547;-0.1625;
1387.5000;0.1506;-0.1673;
1387.8000;0.1514;-0.1697;
1388.1000;0.1530;-0.1625;
1388.4000;0.1498;-0.1744;
1388.7000;0.1514;-0.1768;
1389.0000;0.1514;-0.1768;
1389.3000;0.1530;-0.1673;
1389.6000;0.1506;-0.1744;
1389.9000;0.1514;-0.1649;
1390.2000;0.1490;-0.1601;
1390.5000;0.1506;-0.1601;
1390.8000;0.1506;-0.1649;
1391.1000;0.1522;-0.1673;
1391.4000;0.1400;-0.2007;
1391.7000;0.1506;-0.1768;
1392.0000;0.1514;-0.1816;
1392.3000;0.1506;-0.1888;
1392.6000;0.1498;-0.1959;
1392.9000;0.1506;-0.1888;
1393.2000;0.1522;-0.1792;
1393.5000;0.1514;-0.1792;
1393.8000;0.1530;-0.1744;
1394.1000;0.1514;-0.1840;
1394.4000;0.1498;-0.1816;
1394.7000;0.1563;-0.1553;
1395.0000;0.1449;-0.1864;
1395.3000;0.1514;-0.1649;
1395.6000;0.1498;-0.1673;
1395.9000;0.1506;-0.1673;
1396.2000;0.1498;-0.1744;
1396.5000;0.1425;-0.1936;
1396.8000;0.1522;-0.1601;
1397.1000;0.1506;-0.1625;
1397.4000;0.1368;-0.2007;
1397.7000;0.1514;-0.1649;
1398.0000;0.1481;-0.1768;
1398.3000;0.1530;-0.1649;
1398.6000;0.1579;-0.1601;
1398.9000;0.1514;-0.1768;
1399.2000;0.1514;-0.1768;
1399.5000;0.1522;-0.1768;
1399.8000;0.1547;-0.1721;
