time/ms;Fluo/V;P700 deltaI/I x10³;
-199.8000;0.1498;-0.0789;
-199.5000;0.1498;-0.0836;
-199.2000;0.1506;-0.0908;
-198.9000;0.1514;-0.0860;
-198.6000;0.1514;-0.0884;
-198.3000;0.1506;-0.0932;
-198.0000;0.1506;-0.0908;
-197.7000;0.1490;-0.0956;
-197.4000;0.1506;-0.0908;
-197.1000;0.1522;-0.0908;
-196.8000;0.1392;-0.1219;
-196.5000;0.1481;-0.0980;
-196.2000;0.1498;-0.1004;
-195.9000;0.1530;-0.1004;
-195.6000;0.1498;-0.1099;
-195.3000;0.1514;-0.1123;
-195.0000;0.1506;-0.1195;
-194.7000;0.1514;-0.1195;
-194.4000;0.1506;-0.1147;
-194.1000;0.1498;-0.1123;
-193.8000;0.1530;-0.1075;
-193.5000;0.1490;-0.1219;
-193.2000;0.1506;-0.1219;
-192.9000;0.1481;-0.1266;
-192.6000;0.1514;-0.1195;
-192.3000;0.1522;-0.1123;
-192.0000;0.1514;-0.1099;
-191.7000;0.1514;-0.1147;
-191.4000;0.1514;-0.1051;
-191.1000;0.1522;-0.1099;
-190.8000;0.1522;-0.1075;
-190.5000;0.1498;-0.1075;
-190.2000;0.1490;-0.1075;
-189.9000;0.1514;-0.1028;
-189.6000;0.1498;-0.1051;
-189.3000;0.1530;-0.0956;
-189.0000;0.1490;-0.1051;
-188.7000;0.1498;-0.1099;
-188.4000;0.1530;-0.1004;
-188.1000;0.1490;-0.1099;
-187.8000;0.1490;-0.1099;
-187.5000;0.1522;-0.1051;
-187.2000;0.1514;-0.1099;
-186.9000;0.1498;-0.1123;
-186.6000;0.1490;-0.1099;
-186.3000;0.1506;-0.1075;
-186.0000;0.1498;-0.1099;
-185.7000;0.1530;-0.1004;
-185.4000;0.1522;-0.1028;
-185.1000;0.1506;-0.1004;
-184.8000;0.1433;-0.1243;
-184.5000;0.1530;-0.0980;
-184.2000;0.1433;-0.1195;
-183.9000;0.1514;-0.0980;
-183.6000;0.1522;-0.0884;
-183.3000;0.1538;-0.0789;
-183.0000;0.1498;-0.0836;
-182.7000;0.1498;-0.0812;
-182.4000;0.1498;-0.0860;
-182.1000;0.1498;-0.0884;
-181.8000;0.1490;-0.0884;
-181.5000;0.1490;-0.0932;
-181.2000;0.1498;-0.0908;
-180.9000;0.1522;-0.0860;
-180.6000;0.1506;-0.0884;
-180.3000;0.1506;-0.0956;
-180.0000;0.1522;-0.0908;
-179.7000;0.1506;-0.0932;
-179.4000;0.1498;-0.0956;
-179.1000;0.1538;-0.0884;
-178.8000;0.1514;-0.0980;
-178.5000;0.1514;-0.0980;
-178.2000;0.1579;-0.0860;
-177.9000;0.1530;-0.0884;
-177.6000;0.1481;-0.1004;
-177.3000;0.1498;-0.1028;
-177.0000;0.1555;-0.0836;
-176.7000;0.1514;-0.0908;
-176.4000;0.1547;-0.0812;
-176.1000;0.1490;-0.0884;
-175.8000;0.1571;-0.0645;
-175.5000;0.1506;-0.0836;
-175.2000;0.1587;-0.0717;
-174.9000;0.1514;-0.0908;
-174.6000;0.1514;-0.0884;
-174.3000;0.1514;-0.0932;
-174.0000;0.1530;-0.0836;
-173.7000;0.1490;-0.1004;
-173.4000;0.1514;-0.1028;
-173.1000;0.1506;-0.0956;
-172.8000;0.1490;-0.1075;
-172.5000;0.1498;-0.1051;
-172.2000;0.1481;-0.1171;
-171.9000;0.1506;-0.1028;
-171.6000;0.1506;-0.0980;
-171.3000;0.1490;-0.1004;
-171.0000;0.1522;-0.0884;
-170.7000;0.1530;-0.0860;
-170.4000;0.1498;-0.0932;
-170.1000;0.1506;-0.0860;
-169.8000;0.1481;-0.0956;
-169.5000;0.1563;-0.0693;
-169.2000;0.1490;-0.0884;
-168.9000;0.1514;-0.0812;
-168.6000;0.1555;-0.0669;
-168.3000;0.1473;-0.0932;
-168.0000;0.1506;-0.0932;
-167.7000;0.1522;-0.0908;
-167.4000;0.1506;-0.1051;
-167.1000;0.1514;-0.1004;
-166.8000;0.1514;-0.0956;
-166.5000;0.1506;-0.1004;
-166.2000;0.1522;-0.1004;
-165.9000;0.1498;-0.1051;
-165.6000;0.1498;-0.1028;
-165.3000;0.1506;-0.1028;
-165.0000;0.1522;-0.0980;
-164.7000;0.1457;-0.1123;
-164.4000;0.1506;-0.1028;
-164.1000;0.1514;-0.1099;
-163.8000;0.1498;-0.1171;
-163.5000;0.1506;-0.1171;
-163.2000;0.1506;-0.1171;
-162.9000;0.1506;-0.1099;
-162.6000;0.1522;-0.1004;
-162.3000;0.1506;-0.1051;
-162.0000;0.1506;-0.1123;
-161.7000;0.1555;-0.0932;
-161.4000;0.1506;-0.0980;
-161.1000;0.1441;-0.1123;
-160.8000;0.1441;-0.1195;
-160.5000;0.1490;-0.1028;
-160.2000;0.1498;-0.1075;
-159.9000;0.1514;-0.1123;
-159.6000;0.1522;-0.1147;
-159.3000;0.1498;-0.1195;
-159.0000;0.1547;-0.0980;
-158.7000;0.1514;-0.1051;
-158.4000;0.1530;-0.1004;
-158.1000;0.1514;-0.1075;
-157.8000;0.1506;-0.0980;
-157.5000;0.1514;-0.1051;
-157.2000;0.1506;-0.1123;
-156.9000;0.1522;-0.1099;
-156.6000;0.1514;-0.1123;
-156.3000;0.1490;-0.1147;
-156.0000;0.1555;-0.1004;
-155.7000;0.1481;-0.1219;
-155.4000;0.1644;-0.0860;
-155.1000;0.1522;-0.1243;
-154.8000;0.1538;-0.1171;
-154.5000;0.1506;-0.1147;
-154.2000;0.1579;-0.0908;
-153.9000;0.1481;-0.1195;
-153.6000;0.1514;-0.1099;
-153.3000;0.1547;-0.0980;
-153.0000;0.1498;-0.1028;
-152.7000;0.1481;-0.1075;
-152.4000;0.1514;-0.1075;
-152.1000;0.1506;-0.1028;
-151.8000;0.1506;-0.1004;
-151.5000;0.1506;-0.1051;
-151.2000;0.1514;-0.1004;
-150.9000;0.1538;-0.1099;
-150.6000;0.1498;-0.1195;
-150.3000;0.1498;-0.1219;
-150.0000;0.1530;-0.1099;
-149.7000;0.1490;-0.1195;
-149.4000;0.1481;-0.1243;
-149.1000;0.1522;-0.1028;
-148.8000;0.1490;-0.1051;
-148.5000;0.1506;-0.1051;
-148.2000;0.1522;-0.1099;
-147.9000;0.1490;-0.1147;
-147.6000;0.1449;-0.1219;
-147.3000;0.1506;-0.1123;
-147.0000;0.1522;-0.1075;
-146.7000;0.1498;-0.1123;
-146.4000;0.1555;-0.0980;
-146.1000;0.1522;-0.1123;
-145.8000;0.1514;-0.1147;
-145.5000;0.1384;-0.1458;
-145.2000;0.1416;-0.1362;
-144.9000;0.1506;-0.1004;
-144.6000;0.1563;-0.0932;
-144.3000;0.1522;-0.1171;
-144.0000;0.1498;-0.1243;
-143.7000;0.1457;-0.1386;
-143.4000;0.1506;-0.1219;
-143.1000;0.1522;-0.1171;
-142.8000;0.1506;-0.1195;
-142.5000;0.1506;-0.1219;
-142.2000;0.1571;-0.1075;
-141.9000;0.1514;-0.1243;
-141.6000;0.1522;-0.1314;
-141.3000;0.1498;-0.1410;
-141.0000;0.1514;-0.1314;
-140.7000;0.1538;-0.1123;
-140.4000;0.1514;-0.1195;
-140.1000;0.1506;-0.1219;
-139.8000;0.1506;-0.1171;
-139.5000;0.1506;-0.1004;
-139.2000;0.1522;-0.1004;
-138.9000;0.1498;-0.1123;
-138.6000;0.1465;-0.1243;
-138.3000;0.1522;-0.1123;
-138.0000;0.1612;-0.0836;
-137.7000;0.1620;-0.0812;
-137.4000;0.1506;-0.1099;
-137.1000;0.1547;-0.1004;
-136.8000;0.1506;-0.1099;
-136.5000;0.1400;-0.1410;
-136.2000;0.1481;-0.1075;
-135.9000;0.1587;-0.0717;
-135.6000;0.1506;-0.1028;
-135.3000;0.1506;-0.1004;
-135.0000;0.1514;-0.1028;
-134.7000;0.1514;-0.1028;
-134.4000;0.1514;-0.1051;
-134.1000;0.1522;-0.1075;
-133.8000;0.1555;-0.0980;
-133.5000;0.1498;-0.1075;
-133.2000;0.1490;-0.1099;
-132.9000;0.1514;-0.1004;
-132.6000;0.1498;-0.1051;
-132.3000;0.1547;-0.0956;
-132.0000;0.1506;-0.1171;
-131.7000;0.1538;-0.1171;
-131.4000;0.1514;-0.1243;
-131.1000;0.1506;-0.1243;
-130.8000;0.1522;-0.1219;
-130.5000;0.1530;-0.1123;
-130.2000;0.1522;-0.1123;
-129.9000;0.1530;-0.1123;
-129.6000;0.1514;-0.1123;
-129.3000;0.1457;-0.1338;
-129.0000;0.1465;-0.1195;
-128.7000;0.1473;-0.1171;
-128.4000;0.1498;-0.1075;
-128.1000;0.1522;-0.0932;
-127.8000;0.1490;-0.0980;
-127.5000;0.1498;-0.1051;
-127.2000;0.1498;-0.1123;
-126.9000;0.1514;-0.1075;
-126.6000;0.1498;-0.1099;
-126.3000;0.1522;-0.1171;
-126.0000;0.1498;-0.1243;
-125.7000;0.1514;-0.1195;
-125.4000;0.1555;-0.1171;
-125.1000;0.1522;-0.1290;
-124.8000;0.1563;-0.1219;
-124.5000;0.1498;-0.1338;
-124.2000;0.1506;-0.1338;
-123.9000;0.1514;-0.1338;
-123.6000;0.1465;-0.1482;
-123.3000;0.1481;-0.1362;
-123.0000;0.1498;-0.1386;
-122.7000;0.1498;-0.1314;
-122.4000;0.1498;-0.1386;
-122.1000;0.1498;-0.1338;
-121.8000;0.1579;-0.1147;
-121.5000;0.1490;-0.1338;
-121.2000;0.1522;-0.1266;
-120.9000;0.1490;-0.1362;
-120.6000;0.1490;-0.1362;
-120.3000;0.1514;-0.1171;
-120.0000;0.1498;-0.1314;
-119.7000;0.1530;-0.1243;
-119.4000;0.1490;-0.1338;
-119.1000;0.1473;-0.1458;
-118.8000;0.1514;-0.1290;
-118.5000;0.1514;-0.1314;
-118.2000;0.1441;-0.1505;
-117.9000;0.1498;-0.1386;
-117.6000;0.1514;-0.1410;
-117.3000;0.1506;-0.1362;
-117.0000;0.1522;-0.1266;
-116.7000;0.1538;-0.1219;
-116.4000;0.1473;-0.1290;
-116.1000;0.1587;-0.1004;
-115.8000;0.1514;-0.1195;
-115.5000;0.1587;-0.0980;
-115.2000;0.1555;-0.1051;
-114.9000;0.1441;-0.1243;
-114.6000;0.1490;-0.1147;
-114.3000;0.1498;-0.1147;
-114.0000;0.1441;-0.1362;
-113.7000;0.1644;-0.0884;
-113.4000;0.1530;-0.1195;
-113.1000;0.1522;-0.1219;
-112.8000;0.1490;-0.1195;
-112.5000;0.1498;-0.1171;
-112.2000;0.1530;-0.1051;
-111.9000;0.1514;-0.1147;
-111.6000;0.1498;-0.1195;
-111.3000;0.1498;-0.1171;
-111.0000;0.1506;-0.1266;
-110.7000;0.1538;-0.1290;
-110.4000;0.1514;-0.1266;
-110.1000;0.1514;-0.1266;
-109.8000;0.1522;-0.1171;
-109.5000;0.1522;-0.1123;
-109.2000;0.1538;-0.1051;
-108.9000;0.1522;-0.0980;
-108.6000;0.1514;-0.0956;
-108.3000;0.1530;-0.0980;
-108.0000;0.1522;-0.0980;
-107.7000;0.1506;-0.0908;
-107.4000;0.1490;-0.0980;
-107.1000;0.1506;-0.0980;
-106.8000;0.1400;-0.1219;
-106.5000;0.1506;-0.0836;
-106.2000;0.1506;-0.0884;
-105.9000;0.1506;-0.0908;
-105.6000;0.1522;-0.0932;
-105.3000;0.1522;-0.1004;
-105.0000;0.1514;-0.1123;
-104.7000;0.1530;-0.1099;
-104.4000;0.1538;-0.1028;
-104.1000;0.1490;-0.1099;
-103.8000;0.1522;-0.0980;
-103.5000;0.1514;-0.1004;
-103.2000;0.1506;-0.1051;
-102.9000;0.1506;-0.1028;
-102.6000;0.1465;-0.1147;
-102.3000;0.1506;-0.1004;
-102.0000;0.1530;-0.0956;
-101.7000;0.1481;-0.1051;
-101.4000;0.1506;-0.1099;
-101.1000;0.1522;-0.1028;
-100.8000;0.1481;-0.1171;
-100.5000;0.1563;-0.0980;
-100.2000;0.1522;-0.0980;
-99.9000;0.1425;-0.1243;
-99.6000;0.1530;-0.1051;
-99.3000;0.1547;-0.1051;
-99.0000;0.1506;-0.1171;
-98.7000;0.1612;-0.0932;
-98.4000;0.1538;-0.1075;
-98.1000;0.1514;-0.1099;
-97.8000;0.1571;-0.0860;
-97.5000;0.1498;-0.1099;
-97.2000;0.1498;-0.1099;
-96.9000;0.1514;-0.0980;
-96.6000;0.1506;-0.0956;
-96.3000;0.1490;-0.1028;
-96.0000;0.1498;-0.1028;
-95.7000;0.1522;-0.0908;
-95.4000;0.1498;-0.0980;
-95.1000;0.1498;-0.1051;
-94.8000;0.1514;-0.1028;
-94.5000;0.1522;-0.1099;
-94.2000;0.1514;-0.1147;
-93.9000;0.1514;-0.1171;
-93.6000;0.1473;-0.1219;
-93.3000;0.1530;-0.1028;
-93.0000;0.1498;-0.1051;
-92.7000;0.1522;-0.0932;
-92.4000;0.1522;-0.1051;
-92.1000;0.1498;-0.1075;
-91.8000;0.1522;-0.1028;
-91.5000;0.1522;-0.0956;
-91.2000;0.1506;-0.0956;
-90.9000;0.1490;-0.0956;
-90.6000;0.1498;-0.0908;
-90.3000;0.1522;-0.0860;
-90.0000;0.1490;-0.0908;
-89.7000;0.1522;-0.0932;
-89.4000;0.1490;-0.1028;
-89.1000;0.1587;-0.0741;
-88.8000;0.1498;-0.0932;
-88.5000;0.1506;-0.0884;
-88.2000;0.1498;-0.0884;
-87.9000;0.1514;-0.0812;
-87.6000;0.1498;-0.0860;
-87.3000;0.1498;-0.0836;
-87.0000;0.1522;-0.0789;
-86.7000;0.1465;-0.1051;
-86.4000;0.1490;-0.1004;
-86.1000;0.1498;-0.0956;
-85.8000;0.1522;-0.0860;
-85.5000;0.1514;-0.0860;
-85.2000;0.1522;-0.0860;
-84.9000;0.1522;-0.0884;
-84.6000;0.1514;-0.0932;
-84.3000;0.1514;-0.0956;
-84.0000;0.1433;-0.1171;
-83.7000;0.1490;-0.0956;
-83.4000;0.1530;-0.0765;
-83.1000;0.1481;-0.0884;
-82.8000;0.1457;-0.0860;
-82.5000;0.1506;-0.0669;
-82.2000;0.1490;-0.0812;
-81.9000;0.1514;-0.0789;
-81.6000;0.1490;-0.0836;
-81.3000;0.1498;-0.0932;
-81.0000;0.1498;-0.1004;
-80.7000;0.1522;-0.0956;
-80.4000;0.1506;-0.1028;
-80.1000;0.1498;-0.1099;
-79.8000;0.1514;-0.1075;
-79.5000;0.1506;-0.1051;
-79.2000;0.1514;-0.1099;
-78.9000;0.1514;-0.1075;
-78.6000;0.1457;-0.1195;
-78.3000;0.1514;-0.1004;
-78.0000;0.1473;-0.1051;
-77.7000;0.1547;-0.0860;
-77.4000;0.1514;-0.0932;
-77.1000;0.1514;-0.0980;
-76.8000;0.1522;-0.0884;
-76.5000;0.1522;-0.0836;
-76.2000;0.1506;-0.0884;
-75.9000;0.1514;-0.0884;
-75.6000;0.1506;-0.0956;
-75.3000;0.1514;-0.0980;
-75.0000;0.1514;-0.1051;
-74.7000;0.1538;-0.1028;
-74.4000;0.1506;-0.1051;
-74.1000;0.1538;-0.0980;
-73.8000;0.1514;-0.1123;
-73.5000;0.1498;-0.1219;
-73.2000;0.1498;-0.1243;
-72.9000;0.1490;-0.1219;
-72.6000;0.1522;-0.1004;
-72.3000;0.1506;-0.1004;
-72.0000;0.1481;-0.1147;
-71.7000;0.1514;-0.1099;
-71.4000;0.1490;-0.1123;
-71.1000;0.1522;-0.1051;
-70.8000;0.1604;-0.0860;
-70.5000;0.1506;-0.1147;
-70.2000;0.1465;-0.1290;
-69.9000;0.1636;-0.0836;
-69.6000;0.1514;-0.1099;
-69.3000;0.1514;-0.1051;
-69.0000;0.1457;-0.1147;
-68.7000;0.1547;-0.0789;
-68.4000;0.1522;-0.0908;
-68.1000;0.1506;-0.0860;
-67.8000;0.1522;-0.0836;
-67.5000;0.1490;-0.0932;
-67.2000;0.1579;-0.0765;
-66.9000;0.1530;-0.0932;
-66.6000;0.1490;-0.1028;
-66.3000;0.1498;-0.1004;
-66.0000;0.1522;-0.0860;
-65.7000;0.1514;-0.0932;
-65.4000;0.1498;-0.1099;
-65.1000;0.1506;-0.1051;
-64.8000;0.1506;-0.1028;
-64.5000;0.1522;-0.1004;
-64.2000;0.1522;-0.1004;
-63.9000;0.1490;-0.1099;
-63.6000;0.1522;-0.1099;
-63.3000;0.1522;-0.1028;
-63.0000;0.1522;-0.0980;
-62.7000;0.1498;-0.1051;
-62.4000;0.1530;-0.0980;
-62.1000;0.1514;-0.0956;
-61.8000;0.1506;-0.1004;
-61.5000;0.1506;-0.1004;
-61.2000;0.1490;-0.1147;
-60.9000;0.1514;-0.1147;
-60.6000;0.1506;-0.1099;
-60.3000;0.1571;-0.0860;
-60.0000;0.1498;-0.1004;
-59.7000;0.1506;-0.1099;
-59.4000;0.1530;-0.1099;
-59.1000;0.1498;-0.1171;
-58.8000;0.1376;-0.1434;
-58.5000;0.1514;-0.1147;
-58.2000;0.1473;-0.1243;
-57.9000;0.1441;-0.1290;
-57.6000;0.1506;-0.1123;
-57.3000;0.1506;-0.1171;
-57.0000;0.1498;-0.1099;
-56.7000;0.1498;-0.1051;
-56.4000;0.1506;-0.0980;
-56.1000;0.1490;-0.1123;
-55.8000;0.1530;-0.0956;
-55.5000;0.1490;-0.1099;
-55.2000;0.1514;-0.1004;
-54.9000;0.1522;-0.0980;
-54.6000;0.1498;-0.1099;
-54.3000;0.1514;-0.1051;
-54.0000;0.1498;-0.1099;
-53.7000;0.1498;-0.1099;
-53.4000;0.1506;-0.1099;
-53.1000;0.1522;-0.1075;
-52.8000;0.1506;-0.1051;
-52.5000;0.1498;-0.1075;
-52.2000;0.1506;-0.1171;
-51.9000;0.1506;-0.1171;
-51.6000;0.1530;-0.1266;
-51.3000;0.1522;-0.1338;
-51.0000;0.1514;-0.1410;
-50.7000;0.1514;-0.1434;
-50.4000;0.1522;-0.1458;
-50.1000;0.1506;-0.1434;
-49.8000;0.1441;-0.1553;
-49.5000;0.1522;-0.1290;
-49.2000;0.1481;-0.1314;
-48.9000;0.1530;-0.1171;
-48.6000;0.1506;-0.1338;
-48.3000;0.1530;-0.1195;
-48.0000;0.1506;-0.1243;
-47.7000;0.1506;-0.1195;
-47.4000;0.1506;-0.1243;
-47.1000;0.1498;-0.1243;
-46.8000;0.1498;-0.1219;
-46.5000;0.1498;-0.1219;
-46.2000;0.1530;-0.1171;
-45.9000;0.1514;-0.1195;
-45.6000;0.1547;-0.1099;
-45.3000;0.1514;-0.1219;
-45.0000;0.1498;-0.1243;
-44.7000;0.1530;-0.1051;
-44.4000;0.1481;-0.1171;
-44.1000;0.1514;-0.1123;
-43.8000;0.1530;-0.1123;
-43.5000;0.1530;-0.1123;
-43.2000;0.1514;-0.1243;
-42.9000;0.1514;-0.1266;
-42.6000;0.1530;-0.1147;
-42.3000;0.1522;-0.1195;
-42.0000;0.1522;-0.1243;
-41.7000;0.1547;-0.1171;
-41.4000;0.1506;-0.1219;
-41.1000;0.1498;-0.1195;
-40.8000;0.1490;-0.1266;
-40.5000;0.1506;-0.1243;
-40.2000;0.1522;-0.1147;
-39.9000;0.1522;-0.1147;
-39.6000;0.1514;-0.1219;
-39.3000;0.1522;-0.1219;
-39.0000;0.1506;-0.1219;
-38.7000;0.1498;-0.1171;
-38.4000;0.1506;-0.1123;
-38.1000;0.1506;-0.1099;
-37.8000;0.1498;-0.1147;
-37.5000;0.1522;-0.1099;
-37.2000;0.1498;-0.1147;
-36.9000;0.1514;-0.1123;
-36.6000;0.1506;-0.1051;
-36.3000;0.1644;-0.0621;
-36.0000;0.1498;-0.0932;
-35.7000;0.1490;-0.0956;
-35.4000;0.1522;-0.1004;
-35.1000;0.1481;-0.1123;
-34.8000;0.1506;-0.1147;
-34.5000;0.1506;-0.1099;
-34.2000;0.1457;-0.1266;
-33.9000;0.1514;-0.1147;
-33.6000;0.1514;-0.1219;
-33.3000;0.1579;-0.1171;
-33.0000;0.1490;-0.1314;
-32.7000;0.1506;-0.1171;
-32.4000;0.1530;-0.1171;
-32.1000;0.1514;-0.1243;
-31.8000;0.1498;-0.1219;
-31.5000;0.1490;-0.1290;
-31.2000;0.1522;-0.1290;
-30.9000;0.1498;-0.1338;
-30.6000;0.1726;-0.0765;
-30.3000;0.1506;-0.1362;
-30.0000;0.1506;-0.1410;
-29.7000;0.1498;-0.1290;
-29.4000;0.1538;-0.1171;
-29.1000;0.1433;-0.1386;
-28.8000;0.1506;-0.1147;
-28.5000;0.1530;-0.1028;
-28.2000;0.1498;-0.1051;
-27.9000;0.1490;-0.0980;
-27.6000;0.1555;-0.0956;
-27.3000;0.1514;-0.1123;
-27.0000;0.1514;-0.1195;
-26.7000;0.1498;-0.1362;
-26.4000;0.1465;-0.1434;
-26.1000;0.1481;-0.1458;
-25.8000;0.1490;-0.1410;
-25.5000;0.1522;-0.1338;
-25.2000;0.1506;-0.1266;
-24.9000;0.1498;-0.1219;
-24.6000;0.1392;-0.1458;
-24.3000;0.1433;-0.1362;
-24.0000;0.1514;-0.1123;
-23.7000;0.1481;-0.1195;
-23.4000;0.1498;-0.1051;
-23.1000;0.1506;-0.0980;
-22.8000;0.1498;-0.0980;
-22.5000;0.1571;-0.0717;
-22.2000;0.1514;-0.0908;
-21.9000;0.1579;-0.0789;
-21.6000;0.1506;-0.1099;
-21.3000;0.1506;-0.1099;
-21.0000;0.1481;-0.1219;
-20.7000;0.1530;-0.1147;
-20.4000;0.1514;-0.1243;
-20.1000;0.1522;-0.1243;
-19.8000;0.1506;-0.1338;
-19.5000;0.1514;-0.1290;
-19.2000;0.1538;-0.1171;
-18.9000;0.1514;-0.1290;
-18.6000;0.1481;-0.1434;
-18.3000;0.1506;-0.1482;
-18.0000;0.1514;-0.1505;
-17.7000;0.1498;-0.1458;
-17.4000;0.1514;-0.1338;
-17.1000;0.1490;-0.1458;
-16.8000;0.1514;-0.1458;
-16.5000;0.1481;-0.1505;
-16.2000;0.1490;-0.1482;
-15.9000;0.1514;-0.1410;
-15.6000;0.1481;-0.1410;
-15.3000;0.1587;-0.1147;
-15.0000;0.1514;-0.1362;
-14.7000;0.1514;-0.1362;
-14.4000;0.1522;-0.1338;
-14.1000;0.1506;-0.1290;
-13.8000;0.1506;-0.1290;
-13.5000;0.1498;-0.1386;
-13.2000;0.1604;-0.1195;
-12.9000;0.1498;-0.1290;
-12.6000;0.1530;-0.1147;
-12.3000;0.1514;-0.1147;
-12.0000;0.1506;-0.1099;
-11.7000;0.1498;-0.1099;
-11.4000;0.1514;-0.1028;
-11.1000;0.1506;-0.1051;
-10.8000;0.1498;-0.1099;
-10.5000;0.1490;-0.1171;
-10.2000;0.1506;-0.1123;
-9.9000;0.1530;-0.1028;
-9.6000;0.1498;-0.1004;
-9.3000;0.1490;-0.1099;
-9.0000;0.1384;-0.1314;
-8.7000;0.1498;-0.1075;
-8.4000;0.1506;-0.1051;
-8.1000;0.1481;-0.1028;
-7.8000;0.1530;-0.0956;
-7.5000;0.1563;-0.0956;
-7.2000;0.1498;-0.1075;
-6.9000;0.1506;-0.1051;
-6.6000;0.1555;-0.1004;
-6.3000;0.1522;-0.1099;
-6.0000;0.1449;-0.1243;
-5.7000;0.1376;-0.1458;
-5.4000;0.1620;-0.0836;
-5.1000;0.1490;-0.1171;
-4.8000;0.1571;-0.1075;
-4.5000;0.1490;-0.1290;
-4.2000;0.1530;-0.1147;
-3.9000;0.1498;-0.1195;
-3.6000;0.1506;-0.1219;
-3.3000;0.1473;-0.1266;
-3.0000;0.1506;-0.1147;
-2.7000;0.1530;-0.1123;
-2.4000;0.1514;-0.1147;
-2.1000;0.1449;-0.1266;
-1.8000;0.1522;-0.1099;
-1.5000;0.1522;-0.1028;
-1.2000;0.1498;-0.1004;
-0.9000;0.1538;-0.0836;
-0.6000;0.1506;-0.0956;
-0.3000;0.1465;-0.1075;
0.0000;0.1465;-0.1075;
0.3000;0.1579;-0.1147;
0.6000;0.1506;-0.1195;
0.9000;0.1522;-0.1004;
1.2000;0.1530;-0.0860;
1.5000;0.1530;-0.0717;
1.8000;0.1587;-0.0406;
2.1000;0.1555;-0.0406;
2.4000;0.1522;-0.0430;
2.7000;0.1538;-0.0239;
3.0000;0.1538;-0.0167;
3.3000;0.1490;-0.0287;
3.6000;0.1555;-0.0143;
3.9000;0.1530;-0.0167;
4.2000;0.1563;-0.0096;
4.5000;0.1514;-0.0239;
4.8000;0.1555;-0.0096;
5.1000;0.1563;-0.0119;
5.4000;0.1547;-0.0143;
5.7000;0.1547;-0.0143;
6.0000;0.1547;-0.0072;
6.3000;0.1530;-0.0048;
6.6000;0.1530;0.0072;
6.9000;0.1579;0.0215;
7.2000;0.1538;0.0239;
7.5000;0.1571;0.0263;
7.8000;0.1579;0.0287;
8.1000;0.1685;0.0574;
8.4000;0.1547;0.0263;
8.7000;0.1547;0.0311;
9.0000;0.1538;0.0287;
9.3000;0.1538;0.0263;
9.6000;0.1538;0.0239;
9.9000;0.1563;0.0191;
10.2000;0.1563;0.0096;
10.5000;0.1571;0.0096;
10.8000;0.1547;0.0119;
11.1000;0.1571;0.0143;
11.4000;0.1547;0.0167;
11.7000;0.1538;0.0072;
12.0000;0.1555;0.0167;
12.3000;0.1514;0.0096;
12.6000;0.1538;0.0143;
12.9000;0.1555;0.0191;
13.2000;0.1587;0.0335;
13.5000;0.1547;0.0215;
13.8000;0.1522;0.0167;
14.1000;0.1563;0.0239;
14.4000;0.1579;0.0263;
14.7000;0.1538;0.0239;
15.0000;0.1530;0.0191;
15.3000;0.1538;0.0215;
15.6000;0.1530;0.0263;
15.9000;0.1555;0.0311;
16.2000;0.1612;0.0478;
16.5000;0.1538;0.0287;
16.8000;0.1563;0.0382;
17.1000;0.1547;0.0311;
17.4000;0.1604;0.0406;
17.7000;0.1555;0.0311;
18.0000;0.1547;0.0215;
18.3000;0.1595;0.0311;
18.6000;0.1587;0.0287;
18.9000;0.1620;0.0430;
19.2000;0.1514;0.0215;
19.5000;0.1441;0.0096;
19.8000;0.1563;0.0263;
20.1000;0.1571;0.0215;
20.4000;0.1538;0.0096;
20.7000;0.1538;0.0096;
21.0000;0.1579;0.0287;
21.3000;0.1547;0.0215;
21.6000;0.1522;0.0215;
21.9000;0.1563;0.0358;
22.2000;0.1563;0.0382;
22.5000;0.1538;0.0311;
22.8000;0.1547;0.0382;
23.1000;0.1579;0.0502;
23.4000;0.1555;0.0454;
23.7000;0.1547;0.0478;
24.0000;0.1506;0.0287;
24.3000;0.1530;0.0335;
24.6000;0.1538;0.0382;
24.9000;0.1530;0.0454;
25.2000;0.1538;0.0502;
25.5000;0.1538;0.0478;
25.8000;0.1538;0.0406;
26.1000;0.1547;0.0406;
26.4000;0.1530;0.0311;
26.7000;0.1538;0.0191;
27.0000;0.1538;0.0191;
27.3000;0.1547;0.0263;
27.6000;0.1547;0.0287;
27.9000;0.1612;0.0478;
28.2000;0.1555;0.0335;
28.5000;0.1555;0.0358;
28.8000;0.1547;0.0335;
29.1000;0.1506;0.0215;
29.4000;0.1530;0.0335;
29.7000;0.1563;0.0478;
30.0000;0.1555;0.0478;
30.3000;0.1563;0.0502;
30.6000;0.1555;0.0478;
30.9000;0.1547;0.0478;
31.2000;0.1555;0.0526;
31.5000;0.1547;0.0311;
31.8000;0.1555;0.0167;
32.1000;0.1595;0.0239;
32.4000;0.1555;0.0167;
32.7000;0.1514;0.0119;
33.0000;0.1522;0.0167;
33.3000;0.1522;0.0191;
33.6000;0.1620;0.0478;
33.9000;0.1555;0.0239;
34.2000;0.1538;0.0191;
34.5000;0.1522;0.0143;
34.8000;0.1555;0.0191;
35.1000;0.1555;0.0119;
35.4000;0.1530;0.0096;
35.7000;0.1481;0.0024;
36.0000;0.1538;0.0215;
36.3000;0.1522;0.0191;
36.6000;0.1506;0.0239;
36.9000;0.1555;0.0287;
37.2000;0.1563;0.0287;
37.5000;0.1547;0.0263;
37.8000;0.1547;0.0358;
38.1000;0.1563;0.0335;
38.4000;0.1628;0.0550;
38.7000;0.1555;0.0382;
39.0000;0.1563;0.0358;
39.3000;0.1514;0.0311;
39.6000;0.1571;0.0430;
39.9000;0.1530;0.0430;
40.2000;0.1563;0.0478;
40.5000;0.1530;0.0335;
40.8000;0.1547;0.0239;
41.1000;0.1571;0.0215;
41.4000;0.1579;0.0215;
41.7000;0.1530;0.0143;
42.0000;0.1563;0.0191;
42.3000;0.1547;0.0072;
42.6000;0.1555;0.0119;
42.9000;0.1547;0.0072;
43.2000;0.1595;0.0191;
43.5000;0.1555;0.0167;
43.8000;0.1538;0.0143;
44.1000;0.1563;0.0215;
44.4000;0.1538;0.0191;
44.7000;0.1538;0.0191;
45.0000;0.1490;0.0096;
45.3000;0.1555;0.0287;
45.6000;0.1571;0.0263;
45.9000;0.1579;0.0191;
46.2000;0.1579;0.0119;
46.5000;0.1555;-0.0024;
46.8000;0.1547;0.0000;
47.1000;0.1547;0.0024;
47.4000;0.1579;0.0048;
47.7000;0.1555;0.0048;
48.0000;0.1555;0.0048;
48.3000;0.1547;-0.0024;
48.6000;0.1530;-0.0024;
48.9000;0.1563;0.0119;
49.2000;0.1530;0.0048;
49.5000;0.1563;0.0143;
49.8000;0.1547;0.0167;
50.1000;0.1538;0.0119;
50.4000;0.1563;0.0215;
50.7000;0.1555;0.0263;
51.0000;0.1547;0.0287;
51.3000;0.1644;0.0526;
51.6000;0.1538;0.0215;
51.9000;0.1538;0.0215;
52.2000;0.1547;0.0143;
52.5000;0.1547;0.0167;
52.8000;0.1563;0.0191;
53.1000;0.1530;0.0119;
53.4000;0.1538;0.0191;
53.7000;0.1514;0.0096;
54.0000;0.1563;0.0191;
54.3000;0.1522;0.0072;
54.6000;0.1547;0.0143;
54.9000;0.1538;0.0191;
55.2000;0.1547;0.0143;
55.5000;0.1530;0.0096;
55.8000;0.1669;0.0406;
56.1000;0.1547;0.0048;
56.4000;0.1530;-0.0024;
56.7000;0.1490;-0.0143;
57.0000;0.1530;0.0096;
57.3000;0.1555;0.0239;
57.6000;0.1644;0.0502;
57.9000;0.1563;0.0311;
58.2000;0.1563;0.0239;
58.5000;0.1555;0.0239;
58.8000;0.1563;0.0239;
59.1000;0.1555;0.0287;
59.4000;0.1547;0.0263;
59.7000;0.1538;0.0215;
60.0000;0.1547;0.0215;
60.3000;0.1563;0.0239;
60.6000;0.1547;0.0143;
60.9000;0.1522;0.0072;
61.2000;0.1522;0.0048;
61.5000;0.1555;0.0096;
61.8000;0.1538;-0.0048;
62.1000;0.1522;-0.0119;
62.4000;0.1538;-0.0024;
62.7000;0.1538;0.0096;
63.0000;0.1514;0.0072;
63.3000;0.1547;0.0191;
63.6000;0.1522;0.0167;
63.9000;0.1538;0.0239;
64.2000;0.1555;0.0263;
64.5000;0.1555;0.0239;
64.8000;0.1547;0.0191;
65.1000;0.1530;0.0119;
65.4000;0.1563;0.0239;
65.7000;0.1538;0.0143;
66.0000;0.1538;0.0167;
66.3000;0.1530;0.0239;
66.6000;0.1547;0.0263;
66.9000;0.1587;0.0335;
67.2000;0.1547;0.0263;
67.5000;0.1563;0.0239;
67.8000;0.1530;0.0096;
68.1000;0.1538;0.0072;
68.4000;0.1547;0.0096;
68.7000;0.1506;0.0024;
69.0000;0.1514;-0.0024;
69.3000;0.1563;0.0143;
69.6000;0.1547;0.0167;
69.9000;0.1538;0.0191;
70.2000;0.1547;0.0191;
70.5000;0.1644;0.0430;
70.8000;0.1530;0.0143;
71.1000;0.1538;0.0215;
71.4000;0.1457;0.0072;
71.7000;0.1547;0.0215;
72.0000;0.1522;0.0096;
72.3000;0.1644;0.0478;
72.6000;0.1538;0.0239;
72.9000;0.1555;0.0287;
73.2000;0.1547;0.0287;
73.5000;0.1449;-0.0048;
73.8000;0.1571;0.0287;
74.1000;0.1555;0.0191;
74.4000;0.1514;0.0191;
74.7000;0.1547;0.0263;
75.0000;0.1514;0.0096;
75.3000;0.1612;0.0406;
75.6000;0.1530;0.0191;
75.9000;0.1595;0.0382;
76.2000;0.1547;0.0263;
76.5000;0.1547;0.0215;
76.8000;0.1563;0.0191;
77.1000;0.1563;0.0143;
77.4000;0.1530;0.0048;
77.7000;0.1522;0.0000;
78.0000;0.1481;-0.0119;
78.3000;0.1571;0.0072;
78.6000;0.1538;-0.0048;
78.9000;0.1555;0.0072;
79.2000;0.1530;0.0143;
79.5000;0.1538;0.0215;
79.8000;0.1604;0.0358;
80.1000;0.1563;0.0191;
80.4000;0.1555;0.0167;
80.7000;0.1547;0.0167;
81.0000;0.1555;0.0143;
81.3000;0.1547;0.0119;
81.6000;0.1620;0.0287;
81.9000;0.1538;0.0096;
82.2000;0.1481;0.0000;
82.5000;0.1530;0.0072;
82.8000;0.1620;0.0215;
83.1000;0.1538;0.0000;
83.4000;0.1547;0.0024;
83.7000;0.1547;0.0000;
84.0000;0.1530;0.0024;
84.3000;0.1555;0.0072;
84.6000;0.1538;0.0048;
84.9000;0.1530;0.0024;
85.2000;0.1555;0.0048;
85.5000;0.1555;0.0024;
85.8000;0.1547;0.0119;
86.1000;0.1555;0.0191;
86.4000;0.1555;0.0167;
86.7000;0.1538;0.0072;
87.0000;0.1555;0.0048;
87.3000;0.1571;0.0048;
87.6000;0.1612;0.0263;
87.9000;0.1530;0.0072;
88.2000;0.1563;0.0119;
88.5000;0.1547;0.0119;
88.8000;0.1555;0.0143;
89.1000;0.1538;0.0072;
89.4000;0.1563;0.0096;
89.7000;0.1555;0.0119;
90.0000;0.1547;0.0024;
90.3000;0.1563;0.0096;
90.6000;0.1506;-0.0119;
90.9000;0.1587;0.0191;
91.2000;0.1555;0.0072;
91.5000;0.1555;0.0072;
91.8000;0.1677;0.0382;
92.1000;0.1579;0.0119;
92.4000;0.1530;0.0048;
92.7000;0.1547;0.0167;
93.0000;0.1563;0.0215;
93.3000;0.1538;0.0119;
93.6000;0.1555;0.0167;
93.9000;0.1636;0.0430;
94.2000;0.1563;0.0263;
94.5000;0.1595;0.0287;
94.8000;0.1538;0.0143;
95.1000;0.1530;0.0167;
95.4000;0.1555;0.0191;
95.7000;0.1555;0.0263;
96.0000;0.1538;0.0263;
96.3000;0.1563;0.0263;
96.6000;0.1555;0.0191;
96.9000;0.1547;0.0143;
97.2000;0.1538;0.0167;
97.5000;0.1604;0.0191;
97.8000;0.1547;0.0072;
98.1000;0.1514;-0.0024;
98.4000;0.1555;0.0119;
98.7000;0.1538;0.0072;
99.0000;0.1571;0.0119;
99.3000;0.1538;0.0000;
99.6000;0.1538;-0.0048;
99.9000;0.1530;0.0000;
100.2000;0.1530;0.0000;
100.5000;0.1563;0.0119;
100.8000;0.1555;0.0072;
101.1000;0.1620;0.0287;
101.4000;0.1538;0.0143;
101.7000;0.1563;0.0239;
102.0000;0.1579;0.0311;
102.3000;0.1449;0.0024;
102.6000;0.1530;0.0191;
102.9000;0.1547;0.0191;
103.2000;0.1514;0.0191;
103.5000;0.1538;0.0287;
103.8000;0.1530;0.0191;
104.1000;0.1547;0.0191;
104.4000;0.1538;0.0215;
104.7000;0.1538;0.0167;
105.0000;0.1547;0.0191;
105.3000;0.1538;0.0191;
105.6000;0.1547;0.0167;
105.9000;0.1522;0.0167;
106.2000;0.1547;0.0167;
106.5000;0.1522;0.0143;
106.8000;0.1506;0.0215;
107.1000;0.1555;0.0263;
107.4000;0.1571;0.0191;
107.7000;0.1563;0.0215;
108.0000;0.1547;0.0239;
108.3000;0.1506;0.0096;
108.6000;0.1579;0.0335;
108.9000;0.1547;0.0215;
109.2000;0.1538;0.0119;
109.5000;0.1538;0.0072;
109.8000;0.1571;0.0287;
110.1000;0.1538;0.0215;
110.4000;0.1498;0.0096;
110.7000;0.1563;0.0311;
111.0000;0.1571;0.0358;
111.3000;0.1571;0.0311;
111.6000;0.1449;0.0024;
111.9000;0.1522;0.0167;
112.2000;0.1547;0.0239;
112.5000;0.1547;0.0191;
112.8000;0.1595;0.0191;
113.1000;0.1571;0.0096;
113.4000;0.1563;0.0143;
113.7000;0.1538;0.0215;
114.0000;0.1547;0.0239;
114.3000;0.1571;0.0311;
114.6000;0.1555;0.0311;
114.9000;0.1530;0.0263;
115.2000;0.1555;0.0358;
115.5000;0.1538;0.0215;
115.8000;0.1547;0.0239;
116.1000;0.1563;0.0263;
116.4000;0.1547;0.0263;
116.7000;0.1530;0.0239;
117.0000;0.1530;0.0191;
117.3000;0.1547;0.0215;
117.6000;0.1522;0.0239;
117.9000;0.1555;0.0287;
118.2000;0.1538;0.0239;
118.5000;0.1538;0.0263;
118.8000;0.1530;0.0335;
119.1000;0.1538;0.0358;
119.4000;0.1555;0.0263;
119.7000;0.1530;0.0167;
120.0000;0.1547;0.0215;
120.3000;0.1538;0.0167;
120.6000;0.1538;0.0072;
120.9000;0.1506;0.0000;
121.2000;0.1538;0.0119;
121.5000;0.1538;0.0143;
121.8000;0.1538;0.0263;
122.1000;0.1530;0.0311;
122.4000;0.1555;0.0311;
122.7000;0.1547;0.0263;
123.0000;0.1547;0.0263;
123.3000;0.1530;0.0119;
123.6000;0.1555;0.0167;
123.9000;0.1652;0.0454;
124.2000;0.1547;0.0239;
124.5000;0.1538;0.0191;
124.8000;0.1538;0.0119;
125.1000;0.1481;-0.0072;
125.4000;0.1547;0.0239;
125.7000;0.1530;0.0119;
126.0000;0.1547;0.0215;
126.3000;0.1563;0.0287;
126.6000;0.1555;0.0239;
126.9000;0.1571;0.0358;
127.2000;0.1547;0.0287;
127.5000;0.1563;0.0311;
127.8000;0.1547;0.0239;
128.1000;0.1530;0.0191;
128.4000;0.1563;0.0287;
128.7000;0.1555;0.0263;
129.0000;0.1555;0.0335;
129.3000;0.1465;0.0143;
129.6000;0.1538;0.0358;
129.9000;0.1555;0.0382;
130.2000;0.1547;0.0239;
130.5000;0.1571;0.0263;
130.8000;0.1538;0.0191;
131.1000;0.1555;0.0239;
131.4000;0.1522;0.0239;
131.7000;0.1547;0.0263;
132.0000;0.1538;0.0167;
132.3000;0.1506;0.0096;
132.6000;0.1522;0.0239;
132.9000;0.1571;0.0311;
133.2000;0.1530;0.0287;
133.5000;0.1547;0.0311;
133.8000;0.1538;0.0311;
134.1000;0.1547;0.0287;
134.4000;0.1612;0.0430;
134.7000;0.1555;0.0263;
135.0000;0.1587;0.0358;
135.3000;0.1530;0.0311;
135.6000;0.1547;0.0430;
135.9000;0.1555;0.0406;
136.2000;0.1604;0.0526;
136.5000;0.1538;0.0311;
136.8000;0.1547;0.0406;
137.1000;0.1571;0.0454;
137.4000;0.1547;0.0382;
137.7000;0.1538;0.0311;
138.0000;0.1555;0.0358;
138.3000;0.1514;0.0287;
138.6000;0.1538;0.0263;
138.9000;0.1538;0.0358;
139.2000;0.1416;-0.0048;
139.5000;0.1547;0.0287;
139.8000;0.1522;0.0239;
140.1000;0.1538;0.0287;
140.4000;0.1538;0.0311;
140.7000;0.1538;0.0311;
141.0000;0.1530;0.0287;
141.3000;0.1530;0.0311;
141.6000;0.1522;0.0263;
141.9000;0.1538;0.0263;
142.2000;0.1555;0.0382;
142.5000;0.1530;0.0335;
142.8000;0.1547;0.0382;
143.1000;0.1530;0.0358;
143.4000;0.1563;0.0382;
143.7000;0.1538;0.0263;
144.0000;0.1538;0.0143;
144.3000;0.1522;0.0096;
144.6000;0.1538;0.0191;
144.9000;0.1547;0.0287;
145.2000;0.1636;0.0550;
145.5000;0.1538;0.0287;
145.8000;0.1522;0.0239;
146.1000;0.1563;0.0382;
146.4000;0.1555;0.0382;
146.7000;0.1563;0.0526;
147.0000;0.1595;0.0502;
147.3000;0.1555;0.0454;
147.6000;0.1555;0.0478;
147.9000;0.1538;0.0406;
148.2000;0.1538;0.0239;
148.5000;0.1555;0.0239;
148.8000;0.1538;0.0239;
149.1000;0.1563;0.0311;
149.4000;0.1555;0.0287;
149.7000;0.1506;0.0143;
150.0000;0.1547;0.0263;
150.3000;0.1587;0.0406;
150.6000;0.1530;0.0287;
150.9000;0.1555;0.0406;
151.2000;0.1522;0.0406;
151.5000;0.1555;0.0406;
151.8000;0.1433;0.0096;
152.1000;0.1530;0.0358;
152.4000;0.1547;0.0454;
152.7000;0.1530;0.0430;
153.0000;0.1530;0.0335;
153.3000;0.1530;0.0239;
153.6000;0.1538;0.0263;
153.9000;0.1522;0.0167;
154.2000;0.1555;0.0215;
154.5000;0.1514;0.0072;
154.8000;0.1538;0.0191;
155.1000;0.1522;0.0191;
155.4000;0.1522;0.0215;
155.7000;0.1530;0.0239;
156.0000;0.1433;0.0000;
156.3000;0.1530;0.0406;
156.6000;0.1547;0.0502;
156.9000;0.1530;0.0406;
157.2000;0.1547;0.0311;
157.5000;0.1530;0.0311;
157.8000;0.1555;0.0358;
158.1000;0.1457;0.0000;
158.4000;0.1604;0.0454;
158.7000;0.1522;0.0263;
159.0000;0.1538;0.0287;
159.3000;0.1538;0.0143;
159.6000;0.1530;0.0215;
159.9000;0.1563;0.0239;
160.2000;0.1538;0.0215;
160.5000;0.1522;0.0191;
160.8000;0.1514;0.0119;
161.1000;0.1571;0.0239;
161.4000;0.1530;0.0143;
161.7000;0.1563;0.0239;
162.0000;0.1563;0.0239;
162.3000;0.1563;0.0263;
162.6000;0.1547;0.0358;
162.9000;0.1555;0.0358;
163.2000;0.1571;0.0358;
163.5000;0.1547;0.0358;
163.8000;0.1498;0.0215;
164.1000;0.1563;0.0263;
164.4000;0.1547;0.0239;
164.7000;0.1555;0.0311;
165.0000;0.1547;0.0287;
165.3000;0.1547;0.0287;
165.6000;0.1530;0.0239;
165.9000;0.1555;0.0239;
166.2000;0.1555;0.0096;
166.5000;0.1538;0.0167;
166.8000;0.1547;0.0191;
167.1000;0.1514;0.0143;
167.4000;0.1530;0.0239;
167.7000;0.1555;0.0287;
168.0000;0.1465;0.0167;
168.3000;0.1538;0.0382;
168.6000;0.1555;0.0382;
168.9000;0.1530;0.0382;
169.2000;0.1441;0.0119;
169.5000;0.1547;0.0382;
169.8000;0.1538;0.0287;
170.1000;0.1595;0.0454;
170.4000;0.1563;0.0406;
170.7000;0.1530;0.0382;
171.0000;0.1538;0.0406;
171.3000;0.1563;0.0526;
171.6000;0.1538;0.0430;
171.9000;0.1547;0.0430;
172.2000;0.1669;0.0741;
172.5000;0.1547;0.0382;
172.8000;0.1587;0.0502;
173.1000;0.1522;0.0167;
173.4000;0.1628;0.0502;
173.7000;0.1481;0.0119;
174.0000;0.1555;0.0263;
174.3000;0.1563;0.0358;
174.6000;0.1441;0.0119;
174.9000;0.1530;0.0358;
175.2000;0.1547;0.0406;
175.5000;0.1587;0.0430;
175.8000;0.1579;0.0454;
176.1000;0.1530;0.0358;
176.4000;0.1538;0.0358;
176.7000;0.1555;0.0382;
177.0000;0.1555;0.0382;
177.3000;0.1547;0.0335;
177.6000;0.1547;0.0335;
177.9000;0.1555;0.0382;
178.2000;0.1547;0.0406;
178.5000;0.1555;0.0454;
178.8000;0.1547;0.0358;
179.1000;0.1538;0.0335;
179.4000;0.1538;0.0287;
179.7000;0.1555;0.0215;
180.0000;0.1538;0.0215;
180.3000;0.1547;0.0215;
180.6000;0.1538;0.0239;
180.9000;0.1547;0.0287;
181.2000;0.1547;0.0287;
181.5000;0.1538;0.0167;
181.8000;0.1555;0.0191;
182.1000;0.1522;0.0215;
182.4000;0.1538;0.0239;
182.7000;0.1587;0.0335;
183.0000;0.1547;0.0239;
183.3000;0.1547;0.0287;
183.6000;0.1555;0.0287;
183.9000;0.1579;0.0335;
184.2000;0.1530;0.0167;
184.5000;0.1555;0.0167;
184.8000;0.1571;0.0215;
185.1000;0.1538;0.0167;
185.4000;0.1547;0.0263;
185.7000;0.1547;0.0287;
186.0000;0.1563;0.0311;
186.3000;0.1547;0.0358;
186.6000;0.1538;0.0406;
186.9000;0.1538;0.0382;
187.2000;0.1498;0.0239;
187.5000;0.1530;0.0311;
187.8000;0.1530;0.0239;
188.1000;0.1563;0.0263;
188.4000;0.1563;0.0263;
188.7000;0.1628;0.0478;
189.0000;0.1547;0.0335;
189.3000;0.1538;0.0287;
189.6000;0.1538;0.0287;
189.9000;0.1547;0.0263;
190.2000;0.1538;0.0215;
190.5000;0.1547;0.0215;
190.8000;0.1547;0.0287;
191.1000;0.1538;0.0239;
191.4000;0.1522;0.0215;
191.7000;0.1522;0.0239;
192.0000;0.1547;0.0239;
192.3000;0.1538;0.0215;
192.6000;0.1530;0.0239;
192.9000;0.1514;0.0239;
193.2000;0.1547;0.0335;
193.5000;0.1555;0.0311;
193.8000;0.1538;0.0263;
194.1000;0.1579;0.0239;
194.4000;0.1579;0.0311;
194.7000;0.1506;0.0215;
195.0000;0.1555;0.0287;
195.3000;0.1563;0.0263;
195.6000;0.1514;0.0239;
195.9000;0.1547;0.0335;
196.2000;0.1547;0.0358;
196.5000;0.1555;0.0358;
196.8000;0.1547;0.0335;
197.1000;0.1538;0.0406;
197.4000;0.1595;0.0597;
197.7000;0.1530;0.0406;
198.0000;0.1530;0.0382;
198.3000;0.1604;0.0550;
198.6000;0.1571;0.0430;
198.9000;0.1465;0.0167;
199.2000;0.1538;0.0406;
199.5000;0.1628;0.0669;
199.8000;0.1555;0.0526;
200.1000;0.1555;0.0430;
200.4000;0.1547;0.0406;
200.7000;0.1530;0.0358;
201.0000;0.1530;0.0406;
201.3000;0.1547;0.0478;
201.6000;0.1522;0.0335;
201.9000;0.1522;0.0239;
202.2000;0.1522;0.0215;
202.5000;0.1547;0.0215;
202.8000;0.1538;0.0191;
203.1000;0.1563;0.0382;
203.4000;0.1661;0.0693;
203.7000;0.1547;0.0358;
204.0000;0.1555;0.0335;
204.3000;0.1514;0.0287;
204.6000;0.1538;0.0382;
204.9000;0.1547;0.0358;
205.2000;0.1294;-0.0263;
205.5000;0.1538;0.0406;
205.8000;0.1522;0.0406;
206.1000;0.1530;0.0478;
206.4000;0.1433;0.0239;
206.7000;0.1530;0.0502;
207.0000;0.1555;0.0478;
207.3000;0.1538;0.0358;
207.6000;0.1538;0.0335;
207.9000;0.1595;0.0406;
208.2000;0.1490;0.0072;
208.5000;0.1547;0.0263;
208.8000;0.1571;0.0406;
209.1000;0.1530;0.0335;
209.4000;0.1538;0.0382;
209.7000;0.1506;0.0167;
210.0000;0.1449;-0.0048;
210.3000;0.1571;0.0263;
210.6000;0.1571;0.0287;
210.9000;0.1555;0.0311;
211.2000;0.1563;0.0358;
211.5000;0.1522;0.0287;
211.8000;0.1547;0.0406;
212.1000;0.1547;0.0430;
212.4000;0.1530;0.0358;
212.7000;0.1555;0.0430;
213.0000;0.1530;0.0382;
213.3000;0.1547;0.0311;
213.6000;0.1530;0.0263;
213.9000;0.1555;0.0358;
214.2000;0.1555;0.0358;
214.5000;0.1530;0.0287;
214.8000;0.1547;0.0335;
215.1000;0.1547;0.0311;
215.4000;0.1530;0.0263;
215.7000;0.1555;0.0287;
216.0000;0.1555;0.0191;
216.3000;0.1538;0.0167;
216.6000;0.1547;0.0263;
216.9000;0.1579;0.0335;
217.2000;0.1555;0.0311;
217.5000;0.1555;0.0382;
217.8000;0.1481;0.0167;
218.1000;0.1547;0.0335;
218.4000;0.1506;0.0263;
218.7000;0.1530;0.0263;
219.0000;0.1481;0.0048;
219.3000;0.1579;0.0239;
219.6000;0.1547;0.0143;
219.9000;0.1555;0.0167;
220.2000;0.1636;0.0454;
220.5000;0.1530;0.0263;
220.8000;0.1530;0.0287;
221.1000;0.1522;0.0335;
221.4000;0.1612;0.0550;
221.7000;0.1547;0.0406;
222.0000;0.1555;0.0454;
222.3000;0.1416;0.0143;
222.6000;0.1547;0.0382;
222.9000;0.1555;0.0406;
223.2000;0.1563;0.0502;
223.5000;0.1530;0.0382;
223.8000;0.1538;0.0430;
224.1000;0.1538;0.0478;
224.4000;0.1538;0.0597;
224.7000;0.1563;0.0574;
225.0000;0.1547;0.0478;
225.3000;0.1522;0.0406;
225.6000;0.1538;0.0430;
225.9000;0.1547;0.0430;
226.2000;0.1538;0.0430;
226.5000;0.1555;0.0502;
226.8000;0.1530;0.0478;
227.1000;0.1538;0.0478;
227.4000;0.1547;0.0382;
227.7000;0.1538;0.0335;
228.0000;0.1555;0.0382;
228.3000;0.1547;0.0406;
228.6000;0.1416;0.0119;
228.9000;0.1530;0.0335;
229.2000;0.1498;0.0263;
229.5000;0.1571;0.0430;
229.8000;0.1538;0.0382;
230.1000;0.1522;0.0335;
230.4000;0.1490;0.0191;
230.7000;0.1571;0.0382;
231.0000;0.1522;0.0335;
231.3000;0.1538;0.0382;
231.6000;0.1547;0.0406;
231.9000;0.1547;0.0358;
232.2000;0.1571;0.0502;
232.5000;0.1563;0.0454;
232.8000;0.1563;0.0358;
233.1000;0.1514;0.0335;
233.4000;0.1547;0.0382;
233.7000;0.1547;0.0358;
234.0000;0.1530;0.0335;
234.3000;0.1538;0.0358;
234.6000;0.1530;0.0335;
234.9000;0.1522;0.0287;
235.2000;0.1530;0.0502;
235.5000;0.1522;0.0502;
235.8000;0.1538;0.0550;
236.1000;0.1547;0.0597;
236.4000;0.1538;0.0502;
236.7000;0.1563;0.0502;
237.0000;0.1547;0.0406;
237.3000;0.1547;0.0358;
237.6000;0.1530;0.0335;
237.9000;0.1547;0.0406;
238.2000;0.1522;0.0358;
238.5000;0.1547;0.0454;
238.8000;0.1563;0.0478;
239.1000;0.1530;0.0406;
239.4000;0.1538;0.0406;
239.7000;0.1530;0.0430;
240.0000;0.1555;0.0502;
240.3000;0.1538;0.0502;
240.6000;0.1547;0.0550;
240.9000;0.1538;0.0550;
241.2000;0.1433;0.0215;
241.5000;0.1538;0.0574;
241.8000;0.1547;0.0574;
242.1000;0.1555;0.0550;
242.4000;0.1530;0.0478;
242.7000;0.1547;0.0430;
243.0000;0.1555;0.0406;
243.3000;0.1522;0.0358;
243.6000;0.1604;0.0645;
243.9000;0.1555;0.0430;
244.2000;0.1595;0.0502;
244.5000;0.1514;0.0311;
244.8000;0.1530;0.0454;
245.1000;0.1587;0.0550;
245.4000;0.1547;0.0406;
245.7000;0.1555;0.0454;
246.0000;0.1547;0.0454;
246.3000;0.1481;0.0263;
246.6000;0.1547;0.0406;
246.9000;0.1522;0.0335;
247.2000;0.1595;0.0574;
247.5000;0.1514;0.0287;
247.8000;0.1538;0.0382;
248.1000;0.1538;0.0382;
248.4000;0.1538;0.0430;
248.7000;0.1530;0.0406;
249.0000;0.1547;0.0502;
249.3000;0.1571;0.0526;
249.6000;0.1547;0.0526;
249.9000;0.1547;0.0454;
250.2000;0.1547;0.0311;
250.5000;0.1547;0.0239;
250.8000;0.1473;0.0024;
251.1000;0.1530;0.0263;
251.4000;0.1498;0.0143;
251.7000;0.1538;0.0263;
252.0000;0.1498;0.0167;
252.3000;0.1514;0.0191;
252.6000;0.1530;0.0191;
252.9000;0.1538;0.0239;
253.2000;0.1579;0.0335;
253.5000;0.1547;0.0311;
253.8000;0.1530;0.0287;
254.1000;0.1498;0.0191;
254.4000;0.1571;0.0358;
254.7000;0.1538;0.0263;
255.0000;0.1547;0.0239;
255.3000;0.1530;0.0191;
255.6000;0.1538;0.0239;
255.9000;0.1522;0.0263;
256.2000;0.1547;0.0335;
256.5000;0.1522;0.0263;
256.8000;0.1538;0.0335;
257.1000;0.1530;0.0287;
257.4000;0.1522;0.0335;
257.7000;0.1530;0.0335;
258.0000;0.1538;0.0287;
258.3000;0.1530;0.0215;
258.6000;0.1538;0.0239;
258.9000;0.1538;0.0215;
259.2000;0.1563;0.0311;
259.5000;0.1547;0.0287;
259.8000;0.1522;0.0167;
260.1000;0.1490;0.0000;
260.4000;0.1555;0.0119;
260.7000;0.1530;0.0096;
261.0000;0.1547;0.0143;
261.3000;0.1547;0.0191;
261.6000;0.1538;0.0143;
261.9000;0.1506;0.0048;
262.2000;0.1538;0.0072;
262.5000;0.1530;0.0072;
262.8000;0.1514;0.0072;
263.1000;0.1522;0.0119;
263.4000;0.1555;0.0215;
263.7000;0.1538;0.0167;
264.0000;0.1538;0.0239;
264.3000;0.1547;0.0191;
264.6000;0.1514;0.0119;
264.9000;0.1555;0.0191;
265.2000;0.1530;0.0143;
265.5000;0.1522;0.0143;
265.8000;0.1530;0.0072;
266.1000;0.1620;0.0311;
266.4000;0.1547;0.0215;
266.7000;0.1538;0.0287;
267.0000;0.1547;0.0311;
267.3000;0.1538;0.0335;
267.6000;0.1587;0.0406;
267.9000;0.1547;0.0311;
268.2000;0.1465;0.0119;
268.5000;0.1538;0.0406;
268.8000;0.1538;0.0454;
269.1000;0.1538;0.0406;
269.4000;0.1530;0.0406;
269.7000;0.1538;0.0430;
270.0000;0.1555;0.0382;
270.3000;0.1547;0.0287;
270.6000;0.1579;0.0406;
270.9000;0.1555;0.0382;
271.2000;0.1563;0.0454;
271.5000;0.1530;0.0406;
271.8000;0.1538;0.0430;
272.1000;0.1530;0.0358;
272.4000;0.1530;0.0358;
272.7000;0.1530;0.0358;
273.0000;0.1530;0.0382;
273.3000;0.1538;0.0406;
273.6000;0.1530;0.0311;
273.9000;0.1538;0.0287;
274.2000;0.1530;0.0215;
274.5000;0.1571;0.0311;
274.8000;0.1547;0.0215;
275.1000;0.1555;0.0167;
275.4000;0.1538;0.0072;
275.7000;0.1538;0.0143;
276.0000;0.1547;0.0215;
276.3000;0.1538;0.0119;
276.6000;0.1473;-0.0048;
276.9000;0.1538;0.0215;
277.2000;0.1547;0.0239;
277.5000;0.1538;0.0311;
277.8000;0.1547;0.0382;
278.1000;0.1628;0.0574;
278.4000;0.1506;0.0287;
278.7000;0.1547;0.0382;
279.0000;0.1514;0.0335;
279.3000;0.1563;0.0335;
279.6000;0.1490;0.0167;
279.9000;0.1538;0.0335;
280.2000;0.1555;0.0430;
280.5000;0.1563;0.0430;
280.8000;0.1555;0.0358;
281.1000;0.1538;0.0287;
281.4000;0.1555;0.0311;
281.7000;0.1538;0.0191;
282.0000;0.1457;0.0048;
282.3000;0.1530;0.0191;
282.6000;0.1563;0.0239;
282.9000;0.1555;0.0358;
283.2000;0.1587;0.0550;
283.5000;0.1547;0.0382;
283.8000;0.1547;0.0478;
284.1000;0.1571;0.0478;
284.4000;0.1506;0.0287;
284.7000;0.1530;0.0358;
285.0000;0.1514;0.0287;
285.3000;0.1538;0.0406;
285.6000;0.1538;0.0430;
285.9000;0.1530;0.0382;
286.2000;0.1547;0.0358;
286.5000;0.1530;0.0263;
286.8000;0.1522;0.0311;
287.1000;0.1555;0.0406;
287.4000;0.1530;0.0311;
287.7000;0.1547;0.0358;
288.0000;0.1547;0.0335;
288.3000;0.1547;0.0287;
288.6000;0.1530;0.0287;
288.9000;0.1522;0.0263;
289.2000;0.1538;0.0239;
289.5000;0.1490;0.0096;
289.8000;0.1538;0.0191;
290.1000;0.1547;0.0167;
290.4000;0.1555;0.0167;
290.7000;0.1522;0.0024;
291.0000;0.1522;0.0048;
291.3000;0.1538;0.0119;
291.6000;0.1538;0.0119;
291.9000;0.1571;0.0143;
292.2000;0.1538;0.0096;
292.5000;0.1506;0.0096;
292.8000;0.1530;0.0215;
293.1000;0.1587;0.0287;
293.4000;0.1547;0.0215;
293.7000;0.1538;0.0191;
294.0000;0.1579;0.0406;
294.3000;0.1547;0.0430;
294.6000;0.1506;0.0358;
294.9000;0.1644;0.0669;
295.2000;0.1538;0.0335;
295.5000;0.1490;0.0143;
295.8000;0.1530;0.0239;
296.1000;0.1538;0.0191;
296.4000;0.1538;0.0191;
296.7000;0.1547;0.0239;
297.0000;0.1481;0.0143;
297.3000;0.1636;0.0597;
297.6000;0.1514;0.0239;
297.9000;0.1547;0.0406;
298.2000;0.1547;0.0358;
298.5000;0.1571;0.0382;
298.8000;0.1530;0.0287;
299.1000;0.1563;0.0239;
299.4000;0.1522;0.0143;
299.7000;0.1522;0.0143;
300.0000;0.1547;0.0143;
300.3000;0.1636;0.0382;
300.6000;0.1547;0.0096;
300.9000;0.1530;0.0263;
301.2000;0.1514;0.0215;
301.5000;0.1514;0.0215;
301.8000;0.1587;0.0335;
302.1000;0.1514;0.0119;
302.4000;0.1538;0.0215;
302.7000;0.1555;0.0335;
303.0000;0.1563;0.0406;
303.3000;0.1661;0.0741;
303.6000;0.1547;0.0406;
303.9000;0.1530;0.0311;
304.2000;0.1538;0.0263;
304.5000;0.1538;0.0263;
304.8000;0.1547;0.0263;
305.1000;0.1506;0.0096;
305.4000;0.1530;0.0119;
305.7000;0.1547;0.0239;
306.0000;0.1547;0.0335;
306.3000;0.1547;0.0382;
306.6000;0.1530;0.0311;
306.9000;0.1538;0.0335;
307.2000;0.1514;0.0215;
307.5000;0.1547;0.0287;
307.8000;0.1547;0.0287;
308.1000;0.1522;0.0191;
308.4000;0.1547;0.0311;
308.7000;0.1555;0.0358;
309.0000;0.1547;0.0358;
309.3000;0.1538;0.0311;
309.6000;0.1547;0.0287;
309.9000;0.1538;0.0239;
310.2000;0.1498;0.0143;
310.5000;0.1538;0.0239;
310.8000;0.1538;0.0239;
311.1000;0.1530;0.0191;
311.4000;0.1547;0.0263;
311.7000;0.1538;0.0191;
312.0000;0.1538;0.0263;
312.3000;0.1457;0.0119;
312.6000;0.1555;0.0430;
312.9000;0.1530;0.0382;
313.2000;0.1547;0.0406;
313.5000;0.1538;0.0358;
313.8000;0.1547;0.0311;
314.1000;0.1538;0.0358;
314.4000;0.1555;0.0335;
314.7000;0.1538;0.0311;
315.0000;0.1547;0.0335;
315.3000;0.1481;0.0072;
315.6000;0.1538;0.0143;
315.9000;0.1547;0.0263;
316.2000;0.1425;-0.0119;
316.5000;0.1530;0.0191;
316.8000;0.1538;0.0215;
317.1000;0.1547;0.0239;
317.4000;0.1563;0.0239;
317.7000;0.1547;0.0096;
318.0000;0.1538;0.0072;
318.3000;0.1530;0.0024;
318.6000;0.1547;0.0119;
318.9000;0.1571;0.0263;
319.2000;0.1498;0.0024;
319.5000;0.1538;0.0215;
319.8000;0.1563;0.0167;
320.1000;0.1563;0.0167;
320.4000;0.1538;0.0119;
320.7000;0.1538;0.0167;
321.0000;0.1538;0.0215;
321.3000;0.1587;0.0335;
321.6000;0.1538;0.0119;
321.9000;0.1547;0.0167;
322.2000;0.1579;0.0287;
322.5000;0.1530;0.0143;
322.8000;0.1514;0.0167;
323.1000;0.1547;0.0143;
323.4000;0.1547;0.0239;
323.7000;0.1530;0.0167;
324.0000;0.1547;0.0143;
324.3000;0.1490;-0.0048;
324.6000;0.1530;0.0191;
324.9000;0.1514;0.0215;
325.2000;0.1530;0.0263;
325.5000;0.1563;0.0263;
325.8000;0.1563;0.0263;
326.1000;0.1547;0.0239;
326.4000;0.1571;0.0335;
326.7000;0.1530;0.0191;
327.0000;0.1538;0.0143;
327.3000;0.1579;0.0263;
327.6000;0.1522;0.0119;
327.9000;0.1530;0.0096;
328.2000;0.1538;0.0215;
328.5000;0.1538;0.0239;
328.8000;0.1538;0.0287;
329.1000;0.1538;0.0239;
329.4000;0.1522;0.0167;
329.7000;0.1547;0.0191;
330.0000;0.1522;0.0096;
330.3000;0.1530;0.0048;
330.6000;0.1555;0.0143;
330.9000;0.1547;0.0143;
331.2000;0.1547;0.0239;
331.5000;0.1538;0.0143;
331.8000;0.1498;0.0143;
332.1000;0.1571;0.0335;
332.4000;0.1547;0.0287;
332.7000;0.1538;0.0215;
333.0000;0.1538;0.0191;
333.3000;0.1538;0.0191;
333.6000;0.1538;0.0215;
333.9000;0.1563;0.0263;
334.2000;0.1579;0.0239;
334.5000;0.1522;0.0167;
334.8000;0.1522;0.0191;
335.1000;0.1547;0.0263;
335.4000;0.1547;0.0287;
335.7000;0.1547;0.0287;
336.0000;0.1563;0.0335;
336.3000;0.1547;0.0335;
336.6000;0.1538;0.0311;
336.9000;0.1547;0.0311;
337.2000;0.1530;0.0263;
337.5000;0.1530;0.0287;
337.8000;0.1530;0.0358;
338.1000;0.1571;0.0430;
338.4000;0.1498;0.0263;
338.7000;0.1547;0.0382;
339.0000;0.1538;0.0335;
339.3000;0.1628;0.0669;
339.6000;0.1563;0.0478;
339.9000;0.1530;0.0263;
340.2000;0.1547;0.0239;
340.5000;0.1538;0.0215;
340.8000;0.1522;0.0191;
341.1000;0.1538;0.0311;
341.4000;0.1571;0.0430;
341.7000;0.1547;0.0239;
342.0000;0.1547;0.0287;
342.3000;0.1571;0.0335;
342.6000;0.1506;0.0191;
342.9000;0.1530;0.0287;
343.2000;0.1555;0.0335;
343.5000;0.1481;0.0119;
343.8000;0.1522;0.0358;
344.1000;0.1522;0.0430;
344.4000;0.1571;0.0621;
344.7000;0.1547;0.0478;
345.0000;0.1538;0.0454;
345.3000;0.1473;0.0215;
345.6000;0.1538;0.0358;
345.9000;0.1538;0.0382;
346.2000;0.1530;0.0382;
346.5000;0.1547;0.0478;
346.8000;0.1547;0.0502;
347.1000;0.1563;0.0526;
347.4000;0.1538;0.0454;
347.7000;0.1530;0.0430;
348.0000;0.1530;0.0478;
348.3000;0.1547;0.0478;
348.6000;0.1555;0.0526;
348.9000;0.1530;0.0335;
349.2000;0.1547;0.0335;
349.5000;0.1514;0.0335;
349.8000;0.1563;0.0502;
350.1000;0.1538;0.0406;
350.4000;0.1538;0.0382;
350.7000;0.1538;0.0358;
351.0000;0.1555;0.0311;
351.3000;0.1530;0.0191;
351.6000;0.1530;0.0191;
351.9000;0.1530;0.0263;
352.2000;0.1555;0.0311;
352.5000;0.1522;0.0263;
352.8000;0.1530;0.0311;
353.1000;0.1530;0.0311;
353.4000;0.1547;0.0311;
353.7000;0.1555;0.0311;
354.0000;0.1449;0.0000;
354.3000;0.1538;0.0335;
354.6000;0.1522;0.0191;
354.9000;0.1538;0.0215;
355.2000;0.1652;0.0430;
355.5000;0.1522;0.0096;
355.8000;0.1547;0.0119;
356.1000;0.1530;0.0000;
356.4000;0.1522;0.0048;
356.7000;0.1547;0.0191;
357.0000;0.1555;0.0143;
357.3000;0.1506;-0.0024;
357.6000;0.1522;0.0072;
357.9000;0.1547;0.0096;
358.2000;0.1514;0.0048;
358.5000;0.1490;-0.0048;
358.8000;0.1571;0.0191;
359.1000;0.1506;0.0000;
359.4000;0.1563;0.0119;
359.7000;0.1522;0.0096;
360.0000;0.1547;0.0239;
360.3000;0.1514;0.0215;
360.6000;0.1538;0.0311;
360.9000;0.1547;0.0263;
361.2000;0.1530;0.0143;
361.5000;0.1587;0.0191;
361.8000;0.1530;0.0143;
362.1000;0.1538;0.0191;
362.4000;0.1538;0.0072;
362.7000;0.1555;0.0143;
363.0000;0.1530;0.0191;
363.3000;0.1530;0.0191;
363.6000;0.1612;0.0335;
363.9000;0.1555;0.0191;
364.2000;0.1514;0.0119;
364.5000;0.1522;0.0143;
364.8000;0.1490;0.0072;
365.1000;0.1530;0.0239;
365.4000;0.1555;0.0287;
365.7000;0.1547;0.0287;
366.0000;0.1522;0.0167;
366.3000;0.1555;0.0287;
366.6000;0.1555;0.0311;
366.9000;0.1571;0.0311;
367.2000;0.1538;0.0215;
367.5000;0.1547;0.0215;
367.8000;0.1563;0.0335;
368.1000;0.1538;0.0311;
368.4000;0.1547;0.0311;
368.7000;0.1547;0.0311;
369.0000;0.1555;0.0406;
369.3000;0.1522;0.0287;
369.6000;0.1563;0.0335;
369.9000;0.1530;0.0406;
370.2000;0.1547;0.0430;
370.5000;0.1547;0.0478;
370.8000;0.1481;0.0287;
371.1000;0.1547;0.0430;
371.4000;0.1538;0.0430;
371.7000;0.1547;0.0335;
372.0000;0.1538;0.0287;
372.3000;0.1530;0.0215;
372.6000;0.1555;0.0239;
372.9000;0.1514;0.0239;
373.2000;0.1449;0.0096;
373.5000;0.1538;0.0335;
373.8000;0.1538;0.0335;
374.1000;0.1547;0.0358;
374.4000;0.1538;0.0478;
374.7000;0.1538;0.0430;
375.0000;0.1530;0.0358;
375.3000;0.1514;0.0311;
375.6000;0.1563;0.0358;
375.9000;0.1563;0.0263;
376.2000;0.1530;0.0191;
376.5000;0.1530;0.0287;
376.8000;0.1555;0.0239;
377.1000;0.1506;0.0191;
377.4000;0.1530;0.0311;
377.7000;0.1547;0.0287;
378.0000;0.1538;0.0191;
378.3000;0.1538;0.0215;
378.6000;0.1555;0.0143;
378.9000;0.1571;0.0167;
379.2000;0.1555;0.0191;
379.5000;0.1547;0.0191;
379.8000;0.1563;0.0191;
380.1000;0.1514;0.0167;
380.4000;0.1538;0.0191;
380.7000;0.1538;0.0143;
381.0000;0.1457;-0.0119;
381.3000;0.1555;0.0119;
381.6000;0.1522;0.0119;
381.9000;0.1538;0.0143;
382.2000;0.1530;0.0143;
382.5000;0.1530;0.0024;
382.8000;0.1555;0.0167;
383.1000;0.1587;0.0263;
383.4000;0.1530;0.0024;
383.7000;0.1538;0.0119;
384.0000;0.1538;0.0096;
384.3000;0.1547;0.0167;
384.6000;0.1538;0.0287;
384.9000;0.1563;0.0406;
385.2000;0.1490;0.0287;
385.5000;0.1514;0.0382;
385.8000;0.1571;0.0430;
386.1000;0.1563;0.0454;
386.4000;0.1530;0.0335;
386.7000;0.1579;0.0406;
387.0000;0.1547;0.0382;
387.3000;0.1547;0.0358;
387.6000;0.1522;0.0358;
387.9000;0.1473;0.0167;
388.2000;0.1530;0.0263;
388.5000;0.1661;0.0574;
388.8000;0.1555;0.0287;
389.1000;0.1547;0.0263;
389.4000;0.1555;0.0382;
389.7000;0.1538;0.0311;
390.0000;0.1530;0.0311;
390.3000;0.1538;0.0382;
390.6000;0.1555;0.0382;
390.9000;0.1555;0.0406;
391.2000;0.1563;0.0550;
391.5000;0.1457;0.0239;
391.8000;0.1530;0.0430;
392.1000;0.1538;0.0478;
392.4000;0.1547;0.0454;
392.7000;0.1555;0.0430;
393.0000;0.1555;0.0311;
393.3000;0.1530;0.0143;
393.6000;0.1555;0.0215;
393.9000;0.1563;0.0263;
394.2000;0.1514;0.0239;
394.5000;0.1530;0.0215;
394.8000;0.1563;0.0335;
395.1000;0.1547;0.0430;
395.4000;0.1530;0.0358;
395.7000;0.1514;0.0358;
396.0000;0.1538;0.0406;
396.3000;0.1555;0.0335;
396.6000;0.1563;0.0382;
396.9000;0.1595;0.0478;
397.2000;0.1538;0.0358;
397.5000;0.1530;0.0358;
397.8000;0.1530;0.0239;
398.1000;0.1441;-0.0024;
398.4000;0.1530;0.0239;
398.7000;0.1579;0.0335;
399.0000;0.1538;0.0239;
399.3000;0.1522;0.0191;
399.6000;0.1498;0.0143;
399.9000;0.1514;0.0239;
400.2000;0.1506;0.0263;
400.5000;0.1522;0.0263;
400.8000;0.1547;0.0263;
401.1000;0.1522;0.0239;
401.4000;0.1538;0.0382;
401.7000;0.1530;0.0430;
402.0000;0.1547;0.0502;
402.3000;0.1530;0.0502;
402.6000;0.1538;0.0406;
402.9000;0.1530;0.0358;
403.2000;0.1547;0.0311;
403.5000;0.1514;0.0215;
403.8000;0.1538;0.0287;
404.1000;0.1587;0.0454;
404.4000;0.1547;0.0430;
404.7000;0.1514;0.0454;
405.0000;0.1563;0.0526;
405.3000;0.1595;0.0717;
405.6000;0.1514;0.0478;
405.9000;0.1547;0.0454;
406.2000;0.1530;0.0430;
406.5000;0.1555;0.0502;
406.8000;0.1506;0.0430;
407.1000;0.1538;0.0406;
407.4000;0.1514;0.0311;
407.7000;0.1547;0.0406;
408.0000;0.1530;0.0382;
408.3000;0.1538;0.0478;
408.6000;0.1547;0.0478;
408.9000;0.1506;0.0382;
409.2000;0.1514;0.0430;
409.5000;0.1498;0.0287;
409.8000;0.1530;0.0311;
410.1000;0.1530;0.0454;
410.4000;0.1530;0.0406;
410.7000;0.1538;0.0335;
411.0000;0.1522;0.0382;
411.3000;0.1490;0.0287;
411.6000;0.1530;0.0382;
411.9000;0.1481;0.0191;
412.2000;0.1530;0.0263;
412.5000;0.1547;0.0335;
412.8000;0.1530;0.0191;
413.1000;0.1579;0.0215;
413.4000;0.1522;0.0000;
413.7000;0.1506;-0.0096;
414.0000;0.1538;0.0000;
414.3000;0.1425;-0.0287;
414.6000;0.1530;0.0000;
414.9000;0.1538;0.0024;
415.2000;0.1547;0.0119;
415.5000;0.1669;0.0526;
415.8000;0.1538;0.0119;
416.1000;0.1522;0.0143;
416.4000;0.1563;0.0239;
416.7000;0.1514;0.0143;
417.0000;0.1547;0.0287;
417.3000;0.1522;0.0191;
417.6000;0.1555;0.0287;
417.9000;0.1530;0.0215;
418.2000;0.1555;0.0215;
418.5000;0.1481;-0.0072;
418.8000;0.1441;-0.0191;
419.1000;0.1547;0.0119;
419.4000;0.1579;0.0191;
419.7000;0.1506;-0.0048;
420.0000;0.1506;0.0000;
420.3000;0.1530;0.0048;
420.6000;0.1563;0.0143;
420.9000;0.1522;0.0096;
421.2000;0.1498;-0.0048;
421.5000;0.1506;0.0024;
421.8000;0.1652;0.0358;
422.1000;0.1571;0.0048;
422.4000;0.1555;0.0143;
422.7000;0.1538;0.0119;
423.0000;0.1522;0.0119;
423.3000;0.1547;0.0119;
423.6000;0.1547;0.0167;
423.9000;0.1669;0.0550;
424.2000;0.1579;0.0287;
424.5000;0.1547;0.0024;
424.8000;0.1547;0.0072;
425.1000;0.1571;0.0119;
425.4000;0.1522;0.0024;
425.7000;0.1506;-0.0048;
426.0000;0.1538;0.0000;
426.3000;0.1522;0.0000;
426.6000;0.1538;0.0143;
426.9000;0.1522;0.0096;
427.2000;0.1530;0.0119;
427.5000;0.1538;0.0191;
427.8000;0.1538;0.0239;
428.1000;0.1538;0.0335;
428.4000;0.1547;0.0358;
428.7000;0.1547;0.0335;
429.0000;0.1571;0.0382;
429.3000;0.1522;0.0215;
429.6000;0.1514;0.0215;
429.9000;0.1547;0.0263;
430.2000;0.1538;0.0191;
430.5000;0.1530;0.0143;
430.8000;0.1530;0.0143;
431.1000;0.1514;0.0119;
431.4000;0.1555;0.0167;
431.7000;0.1644;0.0478;
432.0000;0.1547;0.0215;
432.3000;0.1530;0.0119;
432.6000;0.1465;-0.0048;
432.9000;0.1538;0.0167;
433.2000;0.1530;0.0167;
433.5000;0.1636;0.0478;
433.8000;0.1465;-0.0072;
434.1000;0.1547;0.0215;
434.4000;0.1481;0.0048;
434.7000;0.1530;0.0215;
435.0000;0.1498;0.0143;
435.3000;0.1547;0.0263;
435.6000;0.1408;-0.0096;
435.9000;0.1522;0.0311;
436.2000;0.1522;0.0239;
436.5000;0.1530;0.0335;
436.8000;0.1514;0.0358;
437.1000;0.1538;0.0382;
437.4000;0.1530;0.0358;
437.7000;0.1514;0.0406;
438.0000;0.1506;0.0406;
438.3000;0.1498;0.0335;
438.6000;0.1473;0.0311;
438.9000;0.1530;0.0454;
439.2000;0.1514;0.0430;
439.5000;0.1522;0.0406;
439.8000;0.1604;0.0597;
440.1000;0.1555;0.0454;
440.4000;0.1498;0.0287;
440.7000;0.1547;0.0430;
441.0000;0.1530;0.0382;
441.3000;0.1628;0.0669;
441.6000;0.1530;0.0406;
441.9000;0.1555;0.0550;
442.2000;0.1530;0.0430;
442.5000;0.1538;0.0430;
442.8000;0.1530;0.0382;
443.1000;0.1538;0.0454;
443.4000;0.1514;0.0358;
443.7000;0.1530;0.0382;
444.0000;0.1547;0.0358;
444.3000;0.1555;0.0335;
444.6000;0.1555;0.0382;
444.9000;0.1555;0.0406;
445.2000;0.1457;0.0167;
445.5000;0.1530;0.0382;
445.8000;0.1498;0.0335;
446.1000;0.1547;0.0358;
446.4000;0.1547;0.0287;
446.7000;0.1538;0.0263;
447.0000;0.1571;0.0430;
447.3000;0.1530;0.0406;
447.6000;0.1538;0.0406;
447.9000;0.1514;0.0358;
448.2000;0.1538;0.0382;
448.5000;0.1522;0.0311;
448.8000;0.1555;0.0430;
449.1000;0.1514;0.0406;
449.4000;0.1547;0.0550;
449.7000;0.1538;0.0574;
450.0000;0.1538;0.0574;
450.3000;0.1547;0.0574;
450.6000;0.1530;0.0454;
450.9000;0.1555;0.0478;
451.2000;0.1538;0.0406;
451.5000;0.1530;0.0454;
451.8000;0.1522;0.0454;
452.1000;0.1547;0.0478;
452.4000;0.1449;0.0239;
452.7000;0.1538;0.0502;
453.0000;0.1530;0.0502;
453.3000;0.1530;0.0478;
453.6000;0.1530;0.0526;
453.9000;0.1547;0.0478;
454.2000;0.1628;0.0741;
454.5000;0.1571;0.0478;
454.8000;0.1547;0.0597;
455.1000;0.1547;0.0645;
455.4000;0.1579;0.0717;
455.7000;0.1555;0.0669;
456.0000;0.1547;0.0574;
456.3000;0.1612;0.0717;
456.6000;0.1620;0.0717;
456.9000;0.1547;0.0550;
457.2000;0.1555;0.0526;
457.5000;0.1490;0.0287;
457.8000;0.1571;0.0430;
458.1000;0.1530;0.0239;
458.4000;0.1530;0.0239;
458.7000;0.1530;0.0191;
459.0000;0.1530;0.0263;
459.3000;0.1473;0.0215;
459.6000;0.1530;0.0382;
459.9000;0.1563;0.0502;
460.2000;0.1547;0.0454;
460.5000;0.1547;0.0478;
460.8000;0.1538;0.0478;
461.1000;0.1555;0.0502;
461.4000;0.1530;0.0382;
461.7000;0.1530;0.0406;
462.0000;0.1506;0.0335;
462.3000;0.1530;0.0454;
462.6000;0.1595;0.0597;
462.9000;0.1530;0.0430;
463.2000;0.1555;0.0406;
463.5000;0.1538;0.0454;
463.8000;0.1538;0.0406;
464.1000;0.1563;0.0406;
464.4000;0.1538;0.0311;
464.7000;0.1563;0.0382;
465.0000;0.1547;0.0382;
465.3000;0.1547;0.0358;
465.6000;0.1530;0.0358;
465.9000;0.1522;0.0215;
466.2000;0.1530;0.0263;
466.5000;0.1498;0.0167;
466.8000;0.1547;0.0358;
467.1000;0.1514;0.0287;
467.4000;0.1514;0.0239;
467.7000;0.1530;0.0263;
468.0000;0.1538;0.0263;
468.3000;0.1530;0.0311;
468.6000;0.1514;0.0215;
468.9000;0.1530;0.0311;
469.2000;0.1555;0.0287;
469.5000;0.1547;0.0382;
469.8000;0.1547;0.0430;
470.1000;0.1522;0.0358;
470.4000;0.1538;0.0430;
470.7000;0.1530;0.0406;
471.0000;0.1547;0.0358;
471.3000;0.1538;0.0287;
471.6000;0.1530;0.0167;
471.9000;0.1538;0.0215;
472.2000;0.1571;0.0287;
472.5000;0.1538;0.0143;
472.8000;0.1563;0.0191;
473.1000;0.1514;0.0024;
473.4000;0.1530;-0.0048;
473.7000;0.1530;-0.0024;
474.0000;0.1538;0.0072;
474.3000;0.1498;0.0167;
474.6000;0.1506;0.0191;
474.9000;0.1555;0.0335;
475.2000;0.1628;0.0502;
475.5000;0.1522;0.0263;
475.8000;0.1514;0.0287;
476.1000;0.1685;0.0669;
476.4000;0.1449;0.0048;
476.7000;0.1514;0.0191;
477.0000;0.1538;0.0263;
477.3000;0.1490;0.0143;
477.6000;0.1530;0.0287;
477.9000;0.1538;0.0287;
478.2000;0.1563;0.0358;
478.5000;0.1555;0.0382;
478.8000;0.1514;0.0191;
479.1000;0.1530;0.0335;
479.4000;0.1587;0.0478;
479.7000;0.1530;0.0311;
480.0000;0.1514;0.0239;
480.3000;0.1514;0.0239;
480.6000;0.1595;0.0382;
480.9000;0.1522;0.0287;
481.2000;0.1555;0.0311;
481.5000;0.1555;0.0335;
481.8000;0.1547;0.0287;
482.1000;0.1555;0.0335;
482.4000;0.1538;0.0382;
482.7000;0.1457;0.0096;
483.0000;0.1571;0.0454;
483.3000;0.1538;0.0406;
483.6000;0.1530;0.0430;
483.9000;0.1563;0.0597;
484.2000;0.1538;0.0574;
484.5000;0.1522;0.0550;
484.8000;0.1498;0.0454;
485.1000;0.1547;0.0574;
485.4000;0.1530;0.0502;
485.7000;0.1547;0.0621;
486.0000;0.1555;0.0574;
486.3000;0.1522;0.0454;
486.6000;0.1628;0.0717;
486.9000;0.1506;0.0263;
487.2000;0.1522;0.0191;
487.5000;0.1481;0.0096;
487.8000;0.1538;0.0239;
488.1000;0.1506;0.0287;
488.4000;0.1538;0.0358;
488.7000;0.1530;0.0239;
489.0000;0.1530;0.0191;
489.3000;0.1514;0.0215;
489.6000;0.1538;0.0335;
489.9000;0.1628;0.0597;
490.2000;0.1538;0.0382;
490.5000;0.1595;0.0550;
490.8000;0.1530;0.0430;
491.1000;0.1555;0.0454;
491.4000;0.1522;0.0454;
491.7000;0.1538;0.0430;
492.0000;0.1530;0.0382;
492.3000;0.1530;0.0311;
492.6000;0.1555;0.0358;
492.9000;0.1547;0.0287;
493.2000;0.1571;0.0382;
493.5000;0.1530;0.0215;
493.8000;0.1555;0.0382;
494.1000;0.1604;0.0550;
494.4000;0.1538;0.0311;
494.7000;0.1530;0.0287;
495.0000;0.1547;0.0311;
495.3000;0.1530;0.0215;
495.6000;0.1522;0.0191;
495.9000;0.1547;0.0311;
496.2000;0.1530;0.0382;
496.5000;0.1538;0.0382;
496.8000;0.1547;0.0406;
497.1000;0.1530;0.0430;
497.4000;0.1514;0.0335;
497.7000;0.1538;0.0406;
498.0000;0.1563;0.0430;
498.3000;0.1555;0.0430;
498.6000;0.1555;0.0430;
498.9000;0.1547;0.0478;
499.2000;0.1522;0.0430;
499.5000;0.1538;0.0382;
499.8000;0.1522;0.0311;
500.1000;0.1555;0.0335;
500.4000;0.1547;0.0239;
500.7000;0.1555;0.0358;
501.0000;0.1604;0.0526;
501.3000;0.1587;0.0454;
501.6000;0.1530;0.0311;
501.9000;0.1538;0.0382;
502.2000;0.1514;0.0358;
502.5000;0.1522;0.0287;
502.8000;0.1530;0.0263;
503.1000;0.1530;0.0263;
503.4000;0.1563;0.0311;
503.7000;0.1604;0.0358;
504.0000;0.1473;0.0048;
504.3000;0.1530;0.0215;
504.6000;0.1538;0.0239;
504.9000;0.1522;0.0215;
505.2000;0.1522;0.0263;
505.5000;0.1522;0.0215;
505.8000;0.1522;0.0239;
506.1000;0.1547;0.0382;
506.4000;0.1579;0.0478;
506.7000;0.1522;0.0335;
507.0000;0.1522;0.0287;
507.3000;0.1563;0.0382;
507.6000;0.1538;0.0382;
507.9000;0.1571;0.0502;
508.2000;0.1547;0.0454;
508.5000;0.1677;0.0789;
508.8000;0.1514;0.0311;
509.1000;0.1522;0.0358;
509.4000;0.1530;0.0335;
509.7000;0.1563;0.0406;
510.0000;0.1522;0.0382;
510.3000;0.1547;0.0406;
510.6000;0.1563;0.0478;
510.9000;0.1538;0.0406;
511.2000;0.1530;0.0382;
511.5000;0.1571;0.0502;
511.8000;0.1530;0.0550;
512.1000;0.1530;0.0550;
512.4000;0.1538;0.0502;
512.7000;0.1547;0.0430;
513.0000;0.1522;0.0335;
513.3000;0.1530;0.0311;
513.6000;0.1530;0.0335;
513.9000;0.1530;0.0335;
514.2000;0.1473;0.0263;
514.5000;0.1514;0.0358;
514.8000;0.1465;0.0215;
515.1000;0.1547;0.0358;
515.4000;0.1530;0.0335;
515.7000;0.1530;0.0263;
516.0000;0.1538;0.0335;
516.3000;0.1538;0.0335;
516.6000;0.1538;0.0191;
516.9000;0.1547;0.0191;
517.2000;0.1408;-0.0143;
517.5000;0.1538;0.0167;
517.8000;0.1547;0.0239;
518.1000;0.1547;0.0311;
518.4000;0.1490;0.0263;
518.7000;0.1530;0.0335;
519.0000;0.1538;0.0358;
519.3000;0.1579;0.0526;
519.6000;0.1547;0.0454;
519.9000;0.1530;0.0454;
520.2000;0.1530;0.0478;
520.5000;0.1538;0.0502;
520.8000;0.1530;0.0406;
521.1000;0.1604;0.0550;
521.4000;0.1547;0.0430;
521.7000;0.1538;0.0406;
522.0000;0.1530;0.0287;
522.3000;0.1547;0.0358;
522.6000;0.1547;0.0382;
522.9000;0.1538;0.0335;
523.2000;0.1538;0.0358;
523.5000;0.1506;0.0335;
523.8000;0.1530;0.0430;
524.1000;0.1547;0.0311;
524.4000;0.1547;0.0335;
524.7000;0.1555;0.0311;
525.0000;0.1465;0.0119;
525.3000;0.1538;0.0406;
525.6000;0.1538;0.0430;
525.9000;0.1547;0.0478;
526.2000;0.1530;0.0478;
526.5000;0.1530;0.0478;
526.8000;0.1555;0.0574;
527.1000;0.1555;0.0526;
527.4000;0.1547;0.0454;
527.7000;0.1652;0.0693;
528.0000;0.1555;0.0406;
528.3000;0.1522;0.0335;
528.6000;0.1538;0.0335;
528.9000;0.1530;0.0430;
529.2000;0.1547;0.0526;
529.5000;0.1555;0.0574;
529.8000;0.1522;0.0478;
530.1000;0.1530;0.0502;
530.4000;0.1498;0.0478;
530.7000;0.1563;0.0645;
531.0000;0.1514;0.0550;
531.3000;0.1530;0.0574;
531.6000;0.1538;0.0550;
531.9000;0.1538;0.0454;
532.2000;0.1530;0.0454;
532.5000;0.1408;0.0143;
532.8000;0.1547;0.0526;
533.1000;0.1563;0.0574;
533.4000;0.1555;0.0526;
533.7000;0.1530;0.0550;
534.0000;0.1522;0.0478;
534.3000;0.1530;0.0358;
534.6000;0.1587;0.0478;
534.9000;0.1433;0.0119;
535.2000;0.1538;0.0430;
535.5000;0.1547;0.0502;
535.8000;0.1579;0.0669;
536.1000;0.1530;0.0574;
536.4000;0.1538;0.0550;
536.7000;0.1547;0.0669;
537.0000;0.1571;0.0717;
537.3000;0.1555;0.0645;
537.6000;0.1522;0.0621;
537.9000;0.1538;0.0789;
538.2000;0.1522;0.0812;
538.5000;0.1522;0.0789;
538.8000;0.1547;0.0812;
539.1000;0.1514;0.0597;
539.4000;0.1522;0.0574;
539.7000;0.1538;0.0597;
540.0000;0.1563;0.0478;
540.3000;0.1530;0.0430;
540.6000;0.1547;0.0430;
540.9000;0.1522;0.0382;
541.2000;0.1498;0.0311;
541.5000;0.1555;0.0382;
541.8000;0.1522;0.0382;
542.1000;0.1433;0.0119;
542.4000;0.1514;0.0406;
542.7000;0.1555;0.0526;
543.0000;0.1481;0.0382;
543.3000;0.1538;0.0526;
543.6000;0.1547;0.0621;
543.9000;0.1547;0.0621;
544.2000;0.1530;0.0550;
544.5000;0.1538;0.0550;
544.8000;0.1547;0.0550;
545.1000;0.1538;0.0454;
545.4000;0.1522;0.0382;
545.7000;0.1555;0.0358;
546.0000;0.1555;0.0430;
546.3000;0.1555;0.0382;
546.6000;0.1547;0.0382;
546.9000;0.1514;0.0287;
547.2000;0.1538;0.0311;
547.5000;0.1579;0.0430;
547.8000;0.1538;0.0382;
548.1000;0.1490;0.0311;
548.4000;0.1506;0.0358;
548.7000;0.1538;0.0526;
549.0000;0.1538;0.0478;
549.3000;0.1522;0.0454;
549.6000;0.1547;0.0454;
549.9000;0.1538;0.0406;
550.2000;0.1563;0.0454;
550.5000;0.1538;0.0526;
550.8000;0.1449;0.0263;
551.1000;0.1579;0.0621;
551.4000;0.1522;0.0478;
551.7000;0.1530;0.0478;
552.0000;0.1563;0.0526;
552.3000;0.1547;0.0502;
552.6000;0.1457;0.0287;
552.9000;0.1522;0.0430;
553.2000;0.1530;0.0430;
553.5000;0.1563;0.0526;
553.8000;0.1555;0.0574;
554.1000;0.1547;0.0526;
554.4000;0.1547;0.0645;
554.7000;0.1595;0.0836;
555.0000;0.1555;0.0597;
555.3000;0.1530;0.0550;
555.6000;0.1538;0.0597;
555.9000;0.1522;0.0454;
556.2000;0.1538;0.0502;
556.5000;0.1563;0.0550;
556.8000;0.1514;0.0406;
557.1000;0.1547;0.0406;
557.4000;0.1595;0.0550;
557.7000;0.1547;0.0406;
558.0000;0.1587;0.0550;
558.3000;0.1514;0.0311;
558.6000;0.1498;0.0358;
558.9000;0.1571;0.0502;
559.2000;0.1547;0.0454;
559.5000;0.1530;0.0430;
559.8000;0.1530;0.0526;
560.1000;0.1538;0.0597;
560.4000;0.1538;0.0693;
560.7000;0.1538;0.0621;
561.0000;0.1530;0.0478;
561.3000;0.1530;0.0430;
561.6000;0.1547;0.0382;
561.9000;0.1547;0.0406;
562.2000;0.1522;0.0430;
562.5000;0.1506;0.0454;
562.8000;0.1538;0.0502;
563.1000;0.1555;0.0502;
563.4000;0.1555;0.0550;
563.7000;0.1538;0.0574;
564.0000;0.1481;0.0430;
564.3000;0.1547;0.0621;
564.6000;0.1555;0.0526;
564.9000;0.1522;0.0454;
565.2000;0.1538;0.0478;
565.5000;0.1547;0.0502;
565.8000;0.1530;0.0454;
566.1000;0.1490;0.0358;
566.4000;0.1530;0.0550;
566.7000;0.1555;0.0574;
567.0000;0.1587;0.0741;
567.3000;0.1538;0.0597;
567.6000;0.1522;0.0478;
567.9000;0.1555;0.0574;
568.2000;0.1538;0.0502;
568.5000;0.1522;0.0526;
568.8000;0.1547;0.0502;
569.1000;0.1555;0.0526;
569.4000;0.1530;0.0526;
569.7000;0.1530;0.0526;
570.0000;0.1538;0.0574;
570.3000;0.1595;0.0717;
570.6000;0.1538;0.0526;
570.9000;0.1530;0.0430;
571.2000;0.1538;0.0502;
571.5000;0.1555;0.0502;
571.8000;0.1555;0.0526;
572.1000;0.1595;0.0765;
572.4000;0.1547;0.0574;
572.7000;0.1538;0.0502;
573.0000;0.1522;0.0382;
573.3000;0.1612;0.0765;
573.6000;0.1538;0.0621;
573.9000;0.1571;0.0645;
574.2000;0.1612;0.0765;
574.5000;0.1538;0.0502;
574.8000;0.1530;0.0478;
575.1000;0.1514;0.0406;
575.4000;0.1506;0.0382;
575.7000;0.1587;0.0645;
576.0000;0.1538;0.0454;
576.3000;0.1538;0.0478;
576.6000;0.1514;0.0430;
576.9000;0.1538;0.0454;
577.2000;0.1547;0.0526;
577.5000;0.1530;0.0454;
577.8000;0.1530;0.0406;
578.1000;0.1530;0.0335;
578.4000;0.1538;0.0406;
578.7000;0.1547;0.0574;
579.0000;0.1514;0.0454;
579.3000;0.1547;0.0526;
579.6000;0.1555;0.0502;
579.9000;0.1555;0.0574;
580.2000;0.1547;0.0621;
580.5000;0.1522;0.0550;
580.8000;0.1538;0.0550;
581.1000;0.1579;0.0621;
581.4000;0.1563;0.0597;
581.7000;0.1538;0.0478;
582.0000;0.1530;0.0478;
582.3000;0.1530;0.0454;
582.6000;0.1522;0.0478;
582.9000;0.1538;0.0574;
583.2000;0.1522;0.0454;
583.5000;0.1538;0.0597;
583.8000;0.1538;0.0550;
584.1000;0.1538;0.0502;
584.4000;0.1538;0.0597;
584.7000;0.1538;0.0574;
585.0000;0.1498;0.0454;
585.3000;0.1522;0.0478;
585.6000;0.1538;0.0454;
585.9000;0.1587;0.0597;
586.2000;0.1530;0.0597;
586.5000;0.1522;0.0645;
586.8000;0.1530;0.0645;
587.1000;0.1547;0.0741;
587.4000;0.1547;0.0669;
587.7000;0.1530;0.0621;
588.0000;0.1538;0.0597;
588.3000;0.1547;0.0574;
588.6000;0.1563;0.0693;
588.9000;0.1530;0.0621;
589.2000;0.1530;0.0597;
589.5000;0.1538;0.0526;
589.8000;0.1538;0.0502;
590.1000;0.1571;0.0645;
590.4000;0.1538;0.0574;
590.7000;0.1514;0.0550;
591.0000;0.1522;0.0550;
591.3000;0.1538;0.0550;
591.6000;0.1547;0.0526;
591.9000;0.1530;0.0526;
592.2000;0.1555;0.0550;
592.5000;0.1571;0.0526;
592.8000;0.1538;0.0550;
593.1000;0.1555;0.0574;
593.4000;0.1514;0.0478;
593.7000;0.1538;0.0478;
594.0000;0.1538;0.0550;
594.3000;0.1530;0.0526;
594.6000;0.1522;0.0454;
594.9000;0.1547;0.0574;
595.2000;0.1530;0.0454;
595.5000;0.1522;0.0478;
595.8000;0.1514;0.0478;
596.1000;0.1530;0.0550;
596.4000;0.1538;0.0550;
596.7000;0.1530;0.0550;
597.0000;0.1547;0.0526;
597.3000;0.1522;0.0526;
597.6000;0.1587;0.0765;
597.9000;0.1547;0.0621;
598.2000;0.1530;0.0502;
598.5000;0.1530;0.0574;
598.8000;0.1530;0.0526;
599.1000;0.1555;0.0574;
599.4000;0.1538;0.0526;
599.7000;0.1547;0.0454;
600.0000;0.1522;0.0335;
600.3000;0.1555;0.0430;
600.6000;0.1506;0.0263;
600.9000;0.1555;0.0358;
601.2000;0.1547;0.0287;
601.5000;0.1514;0.0263;
601.8000;0.1538;0.0263;
602.1000;0.1530;0.0215;
602.4000;0.1530;0.0096;
602.7000;0.1530;0.0024;
603.0000;0.1490;0.0000;
603.3000;0.1506;0.0048;
603.6000;0.1595;0.0215;
603.9000;0.1530;-0.0191;
604.2000;0.1514;-0.0311;
604.5000;0.1538;-0.0287;
604.8000;0.1514;-0.0382;
605.1000;0.1514;-0.0430;
605.4000;0.1498;-0.0478;
605.7000;0.1514;-0.0502;
606.0000;0.1498;-0.0574;
606.3000;0.1498;-0.0621;
606.6000;0.1506;-0.0621;
606.9000;0.1522;-0.0621;
607.2000;0.1506;-0.0693;
607.5000;0.1498;-0.0621;
607.8000;0.1530;-0.0574;
608.1000;0.1506;-0.0717;
608.4000;0.1490;-0.0765;
608.7000;0.1400;-0.0956;
609.0000;0.1490;-0.0693;
609.3000;0.1473;-0.0812;
609.6000;0.1514;-0.0669;
609.9000;0.1538;-0.0669;
610.2000;0.1400;-0.1123;
610.5000;0.1441;-0.0980;
610.8000;0.1506;-0.0884;
611.1000;0.1522;-0.0908;
611.4000;0.1514;-0.0860;
611.7000;0.1498;-0.0812;
612.0000;0.1514;-0.0836;
612.3000;0.1498;-0.0884;
612.6000;0.1506;-0.0789;
612.9000;0.1473;-0.0812;
613.2000;0.1457;-0.0812;
613.5000;0.1498;-0.0693;
613.8000;0.1506;-0.0717;
614.1000;0.1571;-0.0621;
614.4000;0.1514;-0.0789;
614.7000;0.1498;-0.0836;
615.0000;0.1514;-0.0836;
615.3000;0.1481;-0.0908;
615.6000;0.1522;-0.0765;
615.9000;0.1498;-0.0860;
616.2000;0.1481;-0.0812;
616.5000;0.1498;-0.0860;
616.8000;0.1530;-0.0693;
617.1000;0.1506;-0.0717;
617.4000;0.1498;-0.0741;
617.7000;0.1498;-0.0741;
618.0000;0.1498;-0.0765;
618.3000;0.1490;-0.0884;
618.6000;0.1506;-0.0860;
618.9000;0.1490;-0.0908;
619.2000;0.1514;-0.0836;
619.5000;0.1490;-0.0860;
619.8000;0.1538;-0.0645;
620.1000;0.1530;-0.0669;
620.4000;0.1490;-0.0765;
620.7000;0.1457;-0.0884;
621.0000;0.1498;-0.0717;
621.3000;0.1506;-0.0717;
621.6000;0.1457;-0.0884;
621.9000;0.1612;-0.0406;
622.2000;0.1498;-0.0789;
622.5000;0.1514;-0.0836;
622.8000;0.1498;-0.0908;
623.1000;0.1343;-0.1266;
623.4000;0.1449;-0.1028;
623.7000;0.1481;-0.0932;
624.0000;0.1490;-0.1051;
624.3000;0.1481;-0.1051;
624.6000;0.1547;-0.0741;
624.9000;0.1506;-0.0932;
625.2000;0.1506;-0.1004;
625.5000;0.1498;-0.0980;
625.8000;0.1506;-0.0932;
626.1000;0.1506;-0.0932;
626.4000;0.1579;-0.0645;
626.7000;0.1498;-0.0789;
627.0000;0.1498;-0.0812;
627.3000;0.1481;-0.0836;
627.6000;0.1579;-0.0502;
627.9000;0.1416;-0.0980;
628.2000;0.1506;-0.0812;
628.5000;0.1449;-0.0932;
628.8000;0.1490;-0.0741;
629.1000;0.1490;-0.0765;
629.4000;0.1514;-0.0669;
629.7000;0.1506;-0.0597;
630.0000;0.1490;-0.0717;
630.3000;0.1498;-0.0812;
630.6000;0.1481;-0.0812;
630.9000;0.1490;-0.0860;
631.2000;0.1506;-0.0884;
631.5000;0.1473;-0.0980;
631.8000;0.1490;-0.0956;
632.1000;0.1384;-0.1195;
632.4000;0.1433;-0.1171;
632.7000;0.1465;-0.1075;
633.0000;0.1481;-0.1028;
633.3000;0.1490;-0.0956;
633.6000;0.1490;-0.0908;
633.9000;0.1376;-0.1290;
634.2000;0.1514;-0.0956;
634.5000;0.1506;-0.1028;
634.8000;0.1514;-0.0932;
635.1000;0.1514;-0.0932;
635.4000;0.1498;-0.0860;
635.7000;0.1498;-0.0645;
636.0000;0.1506;-0.0597;
636.3000;0.1555;-0.0550;
636.6000;0.1498;-0.0717;
636.9000;0.1490;-0.0693;
637.2000;0.1473;-0.0789;
637.5000;0.1506;-0.0765;
637.8000;0.1506;-0.0693;
638.1000;0.1498;-0.0621;
638.4000;0.1465;-0.0789;
638.7000;0.1481;-0.0884;
639.0000;0.1473;-0.0836;
639.3000;0.1490;-0.0765;
639.6000;0.1514;-0.0717;
639.9000;0.1498;-0.0693;
640.2000;0.1481;-0.0717;
640.5000;0.1498;-0.0669;
640.8000;0.1498;-0.0717;
641.1000;0.1571;-0.0478;
641.4000;0.1514;-0.0621;
641.7000;0.1498;-0.0645;
642.0000;0.1465;-0.0836;
642.3000;0.1490;-0.0812;
642.6000;0.1498;-0.0693;
642.9000;0.1498;-0.0765;
643.2000;0.1498;-0.0812;
643.5000;0.1571;-0.0621;
643.8000;0.1481;-0.0717;
644.1000;0.1571;-0.0382;
644.4000;0.1530;-0.0454;
644.7000;0.1506;-0.0526;
645.0000;0.1498;-0.0621;
645.3000;0.1498;-0.0693;
645.6000;0.1490;-0.0669;
645.9000;0.1563;-0.0621;
646.2000;0.1498;-0.0765;
646.5000;0.1465;-0.0884;
646.8000;0.1514;-0.0836;
647.1000;0.1490;-0.0956;
647.4000;0.1498;-0.0980;
647.7000;0.1498;-0.0908;
648.0000;0.1473;-0.0884;
648.3000;0.1498;-0.0860;
648.6000;0.1498;-0.0741;
648.9000;0.1490;-0.0765;
649.2000;0.1514;-0.0741;
649.5000;0.1506;-0.0765;
649.8000;0.1490;-0.0812;
650.1000;0.1506;-0.0812;
650.4000;0.1441;-0.1051;
650.7000;0.1506;-0.0860;
651.0000;0.1498;-0.0812;
651.3000;0.1506;-0.0741;
651.6000;0.1522;-0.0789;
651.9000;0.1506;-0.0884;
652.2000;0.1498;-0.0860;
652.5000;0.1473;-0.0860;
652.8000;0.1490;-0.0741;
653.1000;0.1473;-0.0789;
653.4000;0.1530;-0.0693;
653.7000;0.1490;-0.0717;
654.0000;0.1490;-0.0741;
654.3000;0.1506;-0.0765;
654.6000;0.1506;-0.0812;
654.9000;0.1612;-0.0550;
655.2000;0.1490;-0.0884;
655.5000;0.1490;-0.0956;
655.8000;0.1506;-0.0884;
656.1000;0.1490;-0.0884;
656.4000;0.1481;-0.0908;
656.7000;0.1514;-0.0741;
657.0000;0.1530;-0.0693;
657.3000;0.1514;-0.0741;
657.6000;0.1457;-0.0932;
657.9000;0.1490;-0.0884;
658.2000;0.1473;-0.0908;
658.5000;0.1514;-0.0860;
658.8000;0.1522;-0.0860;
659.1000;0.1416;-0.1195;
659.4000;0.1457;-0.1028;
659.7000;0.1490;-0.0956;
660.0000;0.1449;-0.1028;
660.3000;0.1490;-0.0908;
660.6000;0.1481;-0.0980;
660.9000;0.1522;-0.0812;
661.2000;0.1490;-0.0860;
661.5000;0.1514;-0.0836;
661.8000;0.1522;-0.0812;
662.1000;0.1547;-0.0741;
662.4000;0.1498;-0.0836;
662.7000;0.1490;-0.0812;
663.0000;0.1563;-0.0597;
663.3000;0.1490;-0.0741;
663.6000;0.1514;-0.0717;
663.9000;0.1490;-0.0812;
664.2000;0.1433;-0.1004;
664.5000;0.1473;-0.0932;
664.8000;0.1490;-0.0956;
665.1000;0.1457;-0.1028;
665.4000;0.1481;-0.0956;
665.7000;0.1490;-0.0884;
666.0000;0.1473;-0.1028;
666.3000;0.1571;-0.0741;
666.6000;0.1506;-0.0884;
666.9000;0.1506;-0.0884;
667.2000;0.1498;-0.0860;
667.5000;0.1579;-0.0717;
667.8000;0.1498;-0.0980;
668.1000;0.1457;-0.1123;
668.4000;0.1498;-0.1028;
668.7000;0.1514;-0.0932;
669.0000;0.1498;-0.1004;
669.3000;0.1514;-0.0956;
669.6000;0.1465;-0.1004;
669.9000;0.1498;-0.0908;
670.2000;0.1506;-0.0836;
670.5000;0.1498;-0.0836;
670.8000;0.1465;-0.0932;
671.1000;0.1408;-0.1123;
671.4000;0.1522;-0.0908;
671.7000;0.1506;-0.0860;
672.0000;0.1481;-0.0980;
672.3000;0.1498;-0.0908;
672.6000;0.1498;-0.0908;
672.9000;0.1498;-0.0932;
673.2000;0.1481;-0.0956;
673.5000;0.1547;-0.0836;
673.8000;0.1498;-0.0908;
674.1000;0.1506;-0.0860;
674.4000;0.1506;-0.0836;
674.7000;0.1506;-0.0789;
675.0000;0.1530;-0.0765;
675.3000;0.1506;-0.0836;
675.6000;0.1490;-0.0908;
675.9000;0.1490;-0.0956;
676.2000;0.1465;-0.1004;
676.5000;0.1473;-0.0956;
676.8000;0.1498;-0.0932;
677.1000;0.1506;-0.0956;
677.4000;0.1514;-0.0932;
677.7000;0.1490;-0.0908;
678.0000;0.1514;-0.0741;
678.3000;0.1481;-0.0884;
678.6000;0.1490;-0.0884;
678.9000;0.1481;-0.0908;
679.2000;0.1498;-0.0765;
679.5000;0.1481;-0.0789;
679.8000;0.1481;-0.0836;
680.1000;0.1481;-0.0812;
680.4000;0.1498;-0.0812;
680.7000;0.1490;-0.0836;
681.0000;0.1506;-0.0717;
681.3000;0.1457;-0.0812;
681.6000;0.1481;-0.0717;
681.9000;0.1481;-0.0765;
682.2000;0.1449;-0.0860;
682.5000;0.1481;-0.0789;
682.8000;0.1490;-0.0836;
683.1000;0.1595;-0.0526;
683.4000;0.1628;-0.0478;
683.7000;0.1498;-0.0789;
684.0000;0.1514;-0.0765;
684.3000;0.1506;-0.0789;
684.6000;0.1514;-0.0884;
684.9000;0.1490;-0.0980;
685.2000;0.1465;-0.1051;
685.5000;0.1481;-0.0980;
685.8000;0.1506;-0.0932;
686.1000;0.1490;-0.0956;
686.4000;0.1595;-0.0574;
686.7000;0.1465;-0.0884;
687.0000;0.1506;-0.0812;
687.3000;0.1498;-0.0956;
687.6000;0.1425;-0.1123;
687.9000;0.1514;-0.0908;
688.2000;0.1498;-0.0836;
688.5000;0.1473;-0.0836;
688.8000;0.1490;-0.0860;
689.1000;0.1506;-0.0908;
689.4000;0.1514;-0.0908;
689.7000;0.1506;-0.0860;
690.0000;0.1498;-0.0956;
690.3000;0.1538;-0.0789;
690.6000;0.1514;-0.0980;
690.9000;0.1400;-0.1243;
691.2000;0.1498;-0.1075;
691.5000;0.1481;-0.1051;
691.8000;0.1514;-0.1028;
692.1000;0.1498;-0.1004;
692.4000;0.1490;-0.0884;
692.7000;0.1465;-0.0932;
693.0000;0.1498;-0.0932;
693.3000;0.1473;-0.1123;
693.6000;0.1530;-0.0908;
693.9000;0.1433;-0.1075;
694.2000;0.1481;-0.0908;
694.5000;0.1498;-0.0908;
694.8000;0.1498;-0.0860;
695.1000;0.1498;-0.0836;
695.4000;0.1506;-0.0812;
695.7000;0.1490;-0.0812;
696.0000;0.1506;-0.0812;
696.3000;0.1498;-0.0860;
696.6000;0.1490;-0.0908;
696.9000;0.1506;-0.0812;
697.2000;0.1498;-0.0741;
697.5000;0.1490;-0.0812;
697.8000;0.1465;-0.0860;
698.1000;0.1514;-0.0717;
698.4000;0.1498;-0.0717;
698.7000;0.1481;-0.0717;
699.0000;0.1400;-0.1028;
699.3000;0.1473;-0.0789;
699.6000;0.1490;-0.0717;
699.9000;0.1498;-0.0621;
700.2000;0.1481;-0.0574;
700.5000;0.1449;-0.0765;
700.8000;0.1498;-0.0645;
701.1000;0.1481;-0.0717;
701.4000;0.1498;-0.0717;
701.7000;0.1473;-0.0765;
702.0000;0.1481;-0.0789;
702.3000;0.1490;-0.0812;
702.6000;0.1481;-0.0884;
702.9000;0.1538;-0.0789;
703.2000;0.1465;-0.0932;
703.5000;0.1490;-0.0956;
703.8000;0.1473;-0.1051;
704.1000;0.1514;-0.0932;
704.4000;0.1473;-0.0980;
704.7000;0.1481;-0.0956;
705.0000;0.1473;-0.0956;
705.3000;0.1506;-0.0956;
705.6000;0.1498;-0.0956;
705.9000;0.1481;-0.0956;
706.2000;0.1563;-0.0741;
706.5000;0.1490;-0.0932;
706.8000;0.1506;-0.0789;
707.1000;0.1498;-0.0860;
707.4000;0.1408;-0.1051;
707.7000;0.1498;-0.0812;
708.0000;0.1481;-0.0860;
708.3000;0.1465;-0.0956;
708.6000;0.1498;-0.0884;
708.9000;0.1530;-0.0789;
709.2000;0.1490;-0.0908;
709.5000;0.1490;-0.0908;
709.8000;0.1506;-0.0836;
710.1000;0.1498;-0.0836;
710.4000;0.1473;-0.0812;
710.7000;0.1490;-0.0693;
711.0000;0.1490;-0.0693;
711.3000;0.1514;-0.0645;
711.6000;0.1490;-0.0717;
711.9000;0.1490;-0.0669;
712.2000;0.1473;-0.0765;
712.5000;0.1522;-0.0693;
712.8000;0.1498;-0.0717;
713.1000;0.1490;-0.0765;
713.4000;0.1465;-0.0836;
713.7000;0.1514;-0.0693;
714.0000;0.1481;-0.0693;
714.3000;0.1514;-0.0597;
714.6000;0.1604;-0.0430;
714.9000;0.1498;-0.0717;
715.2000;0.1506;-0.0765;
715.5000;0.1628;-0.0454;
715.8000;0.1481;-0.0812;
716.1000;0.1506;-0.0789;
716.4000;0.1514;-0.0836;
716.7000;0.1506;-0.0956;
717.0000;0.1506;-0.1051;
717.3000;0.1473;-0.1099;
717.6000;0.1498;-0.1028;
717.9000;0.1441;-0.1171;
718.2000;0.1498;-0.0932;
718.5000;0.1506;-0.0980;
718.8000;0.1481;-0.1028;
719.1000;0.1481;-0.1123;
719.4000;0.1473;-0.1171;
719.7000;0.1481;-0.1123;
720.0000;0.1481;-0.1075;
720.3000;0.1490;-0.1051;
720.6000;0.1473;-0.1028;
720.9000;0.1490;-0.0932;
721.2000;0.1481;-0.0932;
721.5000;0.1522;-0.0836;
721.8000;0.1425;-0.1075;
722.1000;0.1604;-0.0550;
722.4000;0.1498;-0.0812;
722.7000;0.1506;-0.0836;
723.0000;0.1449;-0.0932;
723.3000;0.1490;-0.0836;
723.6000;0.1498;-0.0812;
723.9000;0.1473;-0.0789;
724.2000;0.1441;-0.0860;
724.5000;0.1490;-0.0669;
724.8000;0.1498;-0.0645;
725.1000;0.1481;-0.0693;
725.4000;0.1506;-0.0597;
725.7000;0.1514;-0.0645;
726.0000;0.1481;-0.0789;
726.3000;0.1490;-0.0812;
726.6000;0.1481;-0.0836;
726.9000;0.1530;-0.0741;
727.2000;0.1498;-0.0765;
727.5000;0.1481;-0.0741;
727.8000;0.1522;-0.0645;
728.1000;0.1457;-0.0789;
728.4000;0.1498;-0.0693;
728.7000;0.1481;-0.0789;
729.0000;0.1433;-0.0908;
729.3000;0.1506;-0.0812;
729.6000;0.1506;-0.0741;
729.9000;0.1481;-0.0741;
730.2000;0.1498;-0.0717;
730.5000;0.1498;-0.0741;
730.8000;0.1506;-0.0717;
731.1000;0.1490;-0.0789;
731.4000;0.1481;-0.0765;
731.7000;0.1481;-0.0812;
732.0000;0.1522;-0.0669;
732.3000;0.1465;-0.0836;
732.6000;0.1490;-0.0789;
732.9000;0.1579;-0.0621;
733.2000;0.1490;-0.0908;
733.5000;0.1506;-0.0860;
733.8000;0.1506;-0.0812;
734.1000;0.1498;-0.0765;
734.4000;0.1620;-0.0358;
734.7000;0.1457;-0.0812;
735.0000;0.1473;-0.0789;
735.3000;0.1490;-0.0812;
735.6000;0.1498;-0.0812;
735.9000;0.1498;-0.0884;
736.2000;0.1481;-0.0956;
736.5000;0.1587;-0.0741;
736.8000;0.1522;-0.0884;
737.1000;0.1498;-0.0884;
737.4000;0.1481;-0.0908;
737.7000;0.1490;-0.0884;
738.0000;0.1465;-0.0980;
738.3000;0.1490;-0.0932;
738.6000;0.1498;-0.0884;
738.9000;0.1498;-0.0836;
739.2000;0.1563;-0.0645;
739.5000;0.1555;-0.0597;
739.8000;0.1514;-0.0741;
740.1000;0.1490;-0.0836;
740.4000;0.1481;-0.0956;
740.7000;0.1490;-0.0980;
741.0000;0.1514;-0.0908;
741.3000;0.1498;-0.0956;
741.6000;0.1514;-0.0884;
741.9000;0.1457;-0.1051;
742.2000;0.1465;-0.0956;
742.5000;0.1522;-0.0860;
742.8000;0.1514;-0.0932;
743.1000;0.1498;-0.0932;
743.4000;0.1522;-0.0860;
743.7000;0.1498;-0.0908;
744.0000;0.1514;-0.0860;
744.3000;0.1506;-0.0908;
744.6000;0.1579;-0.0717;
744.9000;0.1481;-0.0908;
745.2000;0.1506;-0.1004;
745.5000;0.1490;-0.0980;
745.8000;0.1538;-0.0789;
746.1000;0.1457;-0.0980;
746.4000;0.1506;-0.0884;
746.7000;0.1490;-0.0932;
747.0000;0.1481;-0.0980;
747.3000;0.1465;-0.0980;
747.6000;0.1522;-0.0836;
747.9000;0.1514;-0.0860;
748.2000;0.1498;-0.0860;
748.5000;0.1506;-0.0884;
748.8000;0.1498;-0.0812;
749.1000;0.1498;-0.0717;
749.4000;0.1481;-0.0765;
749.7000;0.1408;-0.1028;
750.0000;0.1481;-0.0765;
750.3000;0.1392;-0.1075;
750.6000;0.1481;-0.0812;
750.9000;0.1498;-0.0812;
751.2000;0.1522;-0.0717;
751.5000;0.1490;-0.0765;
751.8000;0.1490;-0.0812;
752.1000;0.1490;-0.0812;
752.4000;0.1498;-0.0812;
752.7000;0.1522;-0.0789;
753.0000;0.1530;-0.0789;
753.3000;0.1400;-0.1051;
753.6000;0.1514;-0.0669;
753.9000;0.1490;-0.0741;
754.2000;0.1506;-0.0717;
754.5000;0.1490;-0.0765;
754.8000;0.1498;-0.0693;
755.1000;0.1392;-0.0980;
755.4000;0.1425;-0.0812;
755.7000;0.1579;-0.0406;
756.0000;0.1490;-0.0693;
756.3000;0.1506;-0.0669;
756.6000;0.1514;-0.0669;
756.9000;0.1555;-0.0574;
757.2000;0.1384;-0.1099;
757.5000;0.1473;-0.0836;
757.8000;0.1490;-0.0741;
758.1000;0.1620;-0.0311;
758.4000;0.1408;-0.0980;
758.7000;0.1473;-0.0765;
759.0000;0.1514;-0.0717;
759.3000;0.1522;-0.0693;
759.6000;0.1498;-0.0789;
759.9000;0.1490;-0.0812;
760.2000;0.1449;-0.0980;
760.5000;0.1498;-0.0956;
760.8000;0.1595;-0.0789;
761.1000;0.1547;-0.0932;
761.4000;0.1481;-0.1004;
761.7000;0.1416;-0.1219;
762.0000;0.1473;-0.0956;
762.3000;0.1473;-0.0956;
762.6000;0.1514;-0.0812;
762.9000;0.1449;-0.0836;
763.2000;0.1530;-0.0621;
763.5000;0.1490;-0.0789;
763.8000;0.1433;-0.0956;
764.1000;0.1490;-0.0836;
764.4000;0.1506;-0.0884;
764.7000;0.1498;-0.0932;
765.0000;0.1481;-0.0980;
765.3000;0.1481;-0.0956;
765.6000;0.1473;-0.1051;
765.9000;0.1506;-0.0932;
766.2000;0.1514;-0.0836;
766.5000;0.1498;-0.0908;
766.8000;0.1490;-0.0908;
767.1000;0.1449;-0.1028;
767.4000;0.1473;-0.1028;
767.7000;0.1506;-0.0884;
768.0000;0.1490;-0.0932;
768.3000;0.1490;-0.0812;
768.6000;0.1498;-0.0860;
768.9000;0.1506;-0.0932;
769.2000;0.1490;-0.0884;
769.5000;0.1506;-0.0765;
769.8000;0.1490;-0.0884;
770.1000;0.1514;-0.0860;
770.4000;0.1465;-0.1028;
770.7000;0.1449;-0.1051;
771.0000;0.1498;-0.0908;
771.3000;0.1506;-0.1028;
771.6000;0.1522;-0.1051;
771.9000;0.1530;-0.0884;
772.2000;0.1481;-0.1004;
772.5000;0.1473;-0.1075;
772.8000;0.1473;-0.1147;
773.1000;0.1506;-0.1123;
773.4000;0.1457;-0.1171;
773.7000;0.1506;-0.1171;
774.0000;0.1506;-0.1171;
774.3000;0.1449;-0.1219;
774.6000;0.1481;-0.1099;
774.9000;0.1490;-0.1099;
775.2000;0.1498;-0.1123;
775.5000;0.1465;-0.1171;
775.8000;0.1498;-0.0980;
776.1000;0.1506;-0.1028;
776.4000;0.1498;-0.0956;
776.7000;0.1498;-0.0932;
777.0000;0.1490;-0.1004;
777.3000;0.1481;-0.1075;
777.6000;0.1481;-0.1028;
777.9000;0.1481;-0.0980;
778.2000;0.1498;-0.0932;
778.5000;0.1408;-0.1314;
778.8000;0.1465;-0.1123;
779.1000;0.1473;-0.1099;
779.4000;0.1612;-0.0693;
779.7000;0.1506;-0.0956;
780.0000;0.1514;-0.0908;
780.3000;0.1498;-0.0932;
780.6000;0.1481;-0.0980;
780.9000;0.1481;-0.1075;
781.2000;0.1441;-0.1266;
781.5000;0.1522;-0.1171;
781.8000;0.1441;-0.1386;
782.1000;0.1547;-0.1075;
782.4000;0.1416;-0.1410;
782.7000;0.1522;-0.1147;
783.0000;0.1481;-0.1243;
783.3000;0.1481;-0.1243;
783.6000;0.1481;-0.1219;
783.9000;0.1473;-0.1243;
784.2000;0.1547;-0.1051;
784.5000;0.1481;-0.1266;
784.8000;0.1498;-0.1123;
785.1000;0.1481;-0.1099;
785.4000;0.1498;-0.0980;
785.7000;0.1490;-0.1004;
786.0000;0.1498;-0.0980;
786.3000;0.1498;-0.0956;
786.6000;0.1465;-0.1123;
786.9000;0.1522;-0.1099;
787.2000;0.1506;-0.1147;
787.5000;0.1490;-0.1123;
787.8000;0.1498;-0.1075;
788.1000;0.1473;-0.1123;
788.4000;0.1563;-0.0789;
788.7000;0.1522;-0.0884;
789.0000;0.1595;-0.0574;
789.3000;0.1457;-0.0884;
789.6000;0.1498;-0.0884;
789.9000;0.1498;-0.0932;
790.2000;0.1481;-0.0980;
790.5000;0.1481;-0.1075;
790.8000;0.1490;-0.1004;
791.1000;0.1530;-0.0836;
791.4000;0.1579;-0.0789;
791.7000;0.1490;-0.1028;
792.0000;0.1408;-0.1219;
792.3000;0.1506;-0.1051;
792.6000;0.1498;-0.1075;
792.9000;0.1490;-0.1075;
793.2000;0.1473;-0.1075;
793.5000;0.1481;-0.1075;
793.8000;0.1506;-0.1028;
794.1000;0.1490;-0.0956;
794.4000;0.1506;-0.0956;
794.7000;0.1514;-0.0932;
795.0000;0.1481;-0.0932;
795.3000;0.1490;-0.0884;
795.6000;0.1490;-0.0908;
795.9000;0.1481;-0.0908;
796.2000;0.1473;-0.0860;
796.5000;0.1498;-0.0789;
796.8000;0.1506;-0.0812;
797.1000;0.1555;-0.0717;
797.4000;0.1571;-0.0717;
797.7000;0.1506;-0.0908;
798.0000;0.1490;-0.0884;
798.3000;0.1506;-0.0836;
798.6000;0.1457;-0.1004;
798.9000;0.1481;-0.1075;
799.2000;0.1481;-0.0980;
799.5000;0.1498;-0.0980;
799.8000;0.1514;-0.0884;
800.1000;0.1457;-0.0956;
800.4000;0.1498;-0.0836;
800.7000;0.1498;-0.0908;
801.0000;0.1473;-0.0956;
801.3000;0.1473;-0.0908;
801.6000;0.1522;-0.0765;
801.9000;0.1514;-0.0908;
802.2000;0.1481;-0.0980;
802.5000;0.1506;-0.1004;
802.8000;0.1514;-0.1004;
803.1000;0.1506;-0.1004;
803.4000;0.1595;-0.0741;
803.7000;0.1481;-0.1028;
804.0000;0.1514;-0.0980;
804.3000;0.1522;-0.0908;
804.6000;0.1498;-0.1004;
804.9000;0.1449;-0.1028;
805.2000;0.1490;-0.0932;
805.5000;0.1433;-0.1243;
805.8000;0.1490;-0.1075;
806.1000;0.1473;-0.1028;
806.4000;0.1530;-0.0908;
806.7000;0.1457;-0.1099;
807.0000;0.1490;-0.1075;
807.3000;0.1498;-0.1099;
807.6000;0.1473;-0.1099;
807.9000;0.1481;-0.1171;
808.2000;0.1481;-0.1099;
808.5000;0.1530;-0.0932;
808.8000;0.1514;-0.1028;
809.1000;0.1506;-0.1123;
809.4000;0.1514;-0.1004;
809.7000;0.1481;-0.1075;
810.0000;0.1490;-0.1123;
810.3000;0.1481;-0.1075;
810.6000;0.1449;-0.1075;
810.9000;0.1465;-0.1099;
811.2000;0.1498;-0.1004;
811.5000;0.1490;-0.1051;
811.8000;0.1506;-0.1004;
812.1000;0.1416;-0.1219;
812.4000;0.1530;-0.1004;
812.7000;0.1490;-0.1147;
813.0000;0.1465;-0.1243;
813.3000;0.1522;-0.1123;
813.6000;0.1612;-0.0932;
813.9000;0.1392;-0.1482;
814.2000;0.1490;-0.1219;
814.5000;0.1522;-0.1171;
814.8000;0.1506;-0.1147;
815.1000;0.1506;-0.1147;
815.4000;0.1481;-0.1123;
815.7000;0.1498;-0.1099;
816.0000;0.1498;-0.1051;
816.3000;0.1506;-0.1075;
816.6000;0.1490;-0.1147;
816.9000;0.1498;-0.1195;
817.2000;0.1498;-0.1099;
817.5000;0.1490;-0.1123;
817.8000;0.1490;-0.1051;
818.1000;0.1481;-0.1075;
818.4000;0.1506;-0.1051;
818.7000;0.1473;-0.1075;
819.0000;0.1441;-0.1051;
819.3000;0.1490;-0.0956;
819.6000;0.1481;-0.1075;
819.9000;0.1498;-0.1051;
820.2000;0.1506;-0.1075;
820.5000;0.1481;-0.1171;
820.8000;0.1547;-0.1004;
821.1000;0.1498;-0.1171;
821.4000;0.1506;-0.1219;
821.7000;0.1441;-0.1362;
822.0000;0.1669;-0.0765;
822.3000;0.1506;-0.1171;
822.6000;0.1498;-0.1195;
822.9000;0.1473;-0.1123;
823.2000;0.1506;-0.0980;
823.5000;0.1498;-0.1028;
823.8000;0.1457;-0.1147;
824.1000;0.1449;-0.1147;
824.4000;0.1498;-0.1075;
824.7000;0.1498;-0.1147;
825.0000;0.1490;-0.1123;
825.3000;0.1498;-0.1051;
825.6000;0.1481;-0.1219;
825.9000;0.1514;-0.1171;
826.2000;0.1506;-0.1219;
826.5000;0.1514;-0.1195;
826.8000;0.1506;-0.1195;
827.1000;0.1490;-0.1219;
827.4000;0.1457;-0.1338;
827.7000;0.1490;-0.1266;
828.0000;0.1490;-0.1266;
828.3000;0.1514;-0.1123;
828.6000;0.1514;-0.1099;
828.9000;0.1498;-0.1099;
829.2000;0.1473;-0.1243;
829.5000;0.1425;-0.1410;
829.8000;0.1490;-0.1219;
830.1000;0.1514;-0.1243;
830.4000;0.1490;-0.1338;
830.7000;0.1481;-0.1266;
831.0000;0.1490;-0.1219;
831.3000;0.1490;-0.1243;
831.6000;0.1490;-0.1314;
831.9000;0.1490;-0.1243;
832.2000;0.1506;-0.1219;
832.5000;0.1506;-0.1266;
832.8000;0.1579;-0.1004;
833.1000;0.1498;-0.1195;
833.4000;0.1473;-0.1219;
833.7000;0.1506;-0.1099;
834.0000;0.1490;-0.1123;
834.3000;0.1490;-0.1123;
834.6000;0.1473;-0.1243;
834.9000;0.1498;-0.1195;
835.2000;0.1514;-0.1171;
835.5000;0.1481;-0.1290;
835.8000;0.1506;-0.1219;
836.1000;0.1514;-0.1266;
836.4000;0.1490;-0.1410;
836.7000;0.1473;-0.1386;
837.0000;0.1481;-0.1338;
837.3000;0.1481;-0.1314;
837.6000;0.1433;-0.1458;
837.9000;0.1481;-0.1290;
838.2000;0.1490;-0.1219;
838.5000;0.1522;-0.1075;
838.8000;0.1506;-0.1075;
839.1000;0.1481;-0.1051;
839.4000;0.1465;-0.1123;
839.7000;0.1481;-0.1195;
840.0000;0.1481;-0.1099;
840.3000;0.1530;-0.0908;
840.6000;0.1498;-0.0932;
840.9000;0.1514;-0.0980;
841.2000;0.1473;-0.1099;
841.5000;0.1498;-0.1028;
841.8000;0.1506;-0.0980;
842.1000;0.1498;-0.0956;
842.4000;0.1530;-0.0908;
842.7000;0.1481;-0.0980;
843.0000;0.1506;-0.0932;
843.3000;0.1498;-0.0980;
843.6000;0.1481;-0.1028;
843.9000;0.1547;-0.0860;
844.2000;0.1457;-0.1171;
844.5000;0.1498;-0.1051;
844.8000;0.1490;-0.1028;
845.1000;0.1481;-0.1051;
845.4000;0.1498;-0.1075;
845.7000;0.1506;-0.1075;
846.0000;0.1514;-0.1075;
846.3000;0.1490;-0.1075;
846.6000;0.1490;-0.1123;
846.9000;0.1490;-0.1075;
847.2000;0.1628;-0.0693;
847.5000;0.1555;-0.0908;
847.8000;0.1441;-0.1266;
848.1000;0.1490;-0.1075;
848.4000;0.1498;-0.1123;
848.7000;0.1490;-0.1219;
849.0000;0.1465;-0.1243;
849.3000;0.1481;-0.1243;
849.6000;0.1490;-0.1243;
849.9000;0.1498;-0.1195;
850.2000;0.1490;-0.1195;
850.5000;0.1490;-0.1123;
850.8000;0.1498;-0.1147;
851.1000;0.1506;-0.1099;
851.4000;0.1490;-0.1075;
851.7000;0.1563;-0.0932;
852.0000;0.1490;-0.1147;
852.3000;0.1571;-0.0956;
852.6000;0.1481;-0.1099;
852.9000;0.1498;-0.1028;
853.2000;0.1514;-0.0980;
853.5000;0.1490;-0.1123;
853.8000;0.1571;-0.0860;
854.1000;0.1506;-0.1028;
854.4000;0.1555;-0.0932;
854.7000;0.1498;-0.1147;
855.0000;0.1473;-0.1195;
855.3000;0.1465;-0.1171;
855.6000;0.1481;-0.1147;
855.9000;0.1514;-0.1051;
856.2000;0.1481;-0.1147;
856.5000;0.1481;-0.1266;
856.8000;0.1538;-0.1147;
857.1000;0.1425;-0.1458;
857.4000;0.1490;-0.1243;
857.7000;0.1514;-0.1219;
858.0000;0.1514;-0.1147;
858.3000;0.1587;-0.0908;
858.6000;0.1555;-0.1028;
858.9000;0.1490;-0.1147;
859.2000;0.1481;-0.1195;
859.5000;0.1498;-0.1147;
859.8000;0.1506;-0.1219;
860.1000;0.1498;-0.1290;
860.4000;0.1473;-0.1338;
860.7000;0.1498;-0.1219;
861.0000;0.1498;-0.1171;
861.3000;0.1571;-0.0980;
861.6000;0.1498;-0.1171;
861.9000;0.1506;-0.1075;
862.2000;0.1490;-0.1028;
862.5000;0.1538;-0.0980;
862.8000;0.1506;-0.1028;
863.1000;0.1498;-0.1028;
863.4000;0.1506;-0.1028;
863.7000;0.1498;-0.1004;
864.0000;0.1506;-0.0932;
864.3000;0.1481;-0.1028;
864.6000;0.1473;-0.1028;
864.9000;0.1587;-0.0717;
865.2000;0.1473;-0.1004;
865.5000;0.1473;-0.0980;
865.8000;0.1538;-0.0789;
866.1000;0.1506;-0.0836;
866.4000;0.1490;-0.0860;
866.7000;0.1490;-0.0860;
867.0000;0.1481;-0.0956;
867.3000;0.1490;-0.0860;
867.6000;0.1522;-0.0836;
867.9000;0.1490;-0.0932;
868.2000;0.1506;-0.0860;
868.5000;0.1506;-0.0836;
868.8000;0.1506;-0.0884;
869.1000;0.1522;-0.0860;
869.4000;0.1481;-0.0980;
869.7000;0.1514;-0.0932;
870.0000;0.1498;-0.0980;
870.3000;0.1595;-0.0741;
870.6000;0.1408;-0.1195;
870.9000;0.1514;-0.0932;
871.2000;0.1490;-0.1004;
871.5000;0.1506;-0.1004;
871.8000;0.1473;-0.1075;
872.1000;0.1457;-0.1147;
872.4000;0.1490;-0.1004;
872.7000;0.1514;-0.1028;
873.0000;0.1481;-0.1028;
873.3000;0.1473;-0.0956;
873.6000;0.1473;-0.0836;
873.9000;0.1514;-0.0812;
874.2000;0.1490;-0.0765;
874.5000;0.1506;-0.0693;
874.8000;0.1490;-0.0741;
875.1000;0.1506;-0.0741;
875.4000;0.1481;-0.0860;
875.7000;0.1563;-0.0621;
876.0000;0.1490;-0.0765;
876.3000;0.1490;-0.0741;
876.6000;0.1490;-0.0717;
876.9000;0.1522;-0.0645;
877.2000;0.1498;-0.0741;
877.5000;0.1490;-0.0765;
877.8000;0.1498;-0.0717;
878.1000;0.1498;-0.0693;
878.4000;0.1473;-0.0860;
878.7000;0.1498;-0.0884;
879.0000;0.1498;-0.0908;
879.3000;0.1506;-0.0884;
879.6000;0.1514;-0.0789;
879.9000;0.1449;-0.0956;
880.2000;0.1514;-0.0836;
880.5000;0.1498;-0.0932;
880.8000;0.1498;-0.0908;
881.1000;0.1514;-0.0884;
881.4000;0.1473;-0.1075;
881.7000;0.1490;-0.1004;
882.0000;0.1498;-0.0956;
882.3000;0.1465;-0.1004;
882.6000;0.1481;-0.0932;
882.9000;0.1473;-0.0956;
883.2000;0.1441;-0.1028;
883.5000;0.1498;-0.0836;
883.8000;0.1441;-0.1004;
884.1000;0.1498;-0.0884;
884.4000;0.1522;-0.0812;
884.7000;0.1506;-0.0789;
885.0000;0.1490;-0.0836;
885.3000;0.1506;-0.0789;
885.6000;0.1506;-0.0812;
885.9000;0.1498;-0.0812;
886.2000;0.1473;-0.0860;
886.5000;0.1522;-0.0765;
886.8000;0.1481;-0.0860;
887.1000;0.1473;-0.0812;
887.4000;0.1498;-0.0812;
887.7000;0.1481;-0.0884;
888.0000;0.1522;-0.0789;
888.3000;0.1506;-0.0812;
888.6000;0.1490;-0.0741;
888.9000;0.1465;-0.0741;
889.2000;0.1547;-0.0597;
889.5000;0.1481;-0.0765;
889.8000;0.1498;-0.0812;
890.1000;0.1473;-0.0908;
890.4000;0.1490;-0.0789;
890.7000;0.1506;-0.0812;
891.0000;0.1514;-0.0884;
891.3000;0.1514;-0.0836;
891.6000;0.1498;-0.0860;
891.9000;0.1498;-0.0812;
892.2000;0.1457;-0.1028;
892.5000;0.1498;-0.1004;
892.8000;0.1514;-0.0956;
893.1000;0.1368;-0.1362;
893.4000;0.1498;-0.0956;
893.7000;0.1490;-0.1075;
894.0000;0.1473;-0.1099;
894.3000;0.1514;-0.1004;
894.6000;0.1506;-0.1028;
894.9000;0.1490;-0.1004;
895.2000;0.1522;-0.0932;
895.5000;0.1490;-0.1051;
895.8000;0.1481;-0.1099;
896.1000;0.1506;-0.1028;
896.4000;0.1547;-0.0956;
896.7000;0.1522;-0.1028;
897.0000;0.1481;-0.1099;
897.3000;0.1384;-0.1290;
897.6000;0.1547;-0.0836;
897.9000;0.1490;-0.1099;
898.2000;0.1473;-0.1123;
898.5000;0.1555;-0.0908;
898.8000;0.1490;-0.1075;
899.1000;0.1473;-0.1147;
899.4000;0.1498;-0.0956;
899.7000;0.1506;-0.0932;
900.0000;0.1481;-0.1028;
900.3000;0.1579;-0.0789;
900.6000;0.1481;-0.0956;
900.9000;0.1490;-0.0908;
901.2000;0.1498;-0.0884;
901.5000;0.1555;-0.0717;
901.8000;0.1498;-0.0908;
902.1000;0.1506;-0.0956;
902.4000;0.1481;-0.0980;
902.7000;0.1465;-0.1051;
903.0000;0.1416;-0.1195;
903.3000;0.1490;-0.1004;
903.6000;0.1506;-0.0956;
903.9000;0.1490;-0.0980;
904.2000;0.1481;-0.1004;
904.5000;0.1514;-0.0908;
904.8000;0.1498;-0.1004;
905.1000;0.1506;-0.1004;
905.4000;0.1425;-0.1195;
905.7000;0.1498;-0.0956;
906.0000;0.1514;-0.0932;
906.3000;0.1498;-0.1051;
906.6000;0.1498;-0.1028;
906.9000;0.1514;-0.0980;
907.2000;0.1490;-0.1051;
907.5000;0.1571;-0.0884;
907.8000;0.1473;-0.1028;
908.1000;0.1473;-0.1075;
908.4000;0.1481;-0.1123;
908.7000;0.1498;-0.1051;
909.0000;0.1514;-0.0860;
909.3000;0.1490;-0.0932;
909.6000;0.1506;-0.0980;
909.9000;0.1506;-0.0980;
910.2000;0.1498;-0.1004;
910.5000;0.1457;-0.1028;
910.8000;0.1490;-0.0908;
911.1000;0.1490;-0.0836;
911.4000;0.1506;-0.0789;
911.7000;0.1384;-0.1171;
912.0000;0.1481;-0.0908;
912.3000;0.1473;-0.0884;
912.6000;0.1498;-0.0812;
912.9000;0.1498;-0.0836;
913.2000;0.1514;-0.0741;
913.5000;0.1465;-0.0812;
913.8000;0.1498;-0.0741;
914.1000;0.1449;-0.0932;
914.4000;0.1490;-0.0836;
914.7000;0.1490;-0.0884;
915.0000;0.1490;-0.0836;
915.3000;0.1506;-0.0860;
915.6000;0.1498;-0.1051;
915.9000;0.1498;-0.1099;
916.2000;0.1636;-0.0717;
916.5000;0.1498;-0.1123;
916.8000;0.1498;-0.1147;
917.1000;0.1555;-0.1028;
917.4000;0.1481;-0.1266;
917.7000;0.1514;-0.1195;
918.0000;0.1506;-0.1147;
918.3000;0.1481;-0.1195;
918.6000;0.1481;-0.1123;
918.9000;0.1481;-0.1147;
919.2000;0.1530;-0.1028;
919.5000;0.1498;-0.1195;
919.8000;0.1481;-0.1195;
920.1000;0.1514;-0.1099;
920.4000;0.1490;-0.1171;
920.7000;0.1579;-0.0908;
921.0000;0.1473;-0.1099;
921.3000;0.1530;-0.0932;
921.6000;0.1490;-0.1028;
921.9000;0.1514;-0.0932;
922.2000;0.1506;-0.0884;
922.5000;0.1465;-0.1028;
922.8000;0.1506;-0.0980;
923.1000;0.1498;-0.0932;
923.4000;0.1490;-0.0980;
923.7000;0.1433;-0.1075;
924.0000;0.1514;-0.0956;
924.3000;0.1498;-0.0932;
924.6000;0.1490;-0.0956;
924.9000;0.1498;-0.0956;
925.2000;0.1506;-0.0956;
925.5000;0.1498;-0.0956;
925.8000;0.1490;-0.0956;
926.1000;0.1465;-0.1051;
926.4000;0.1506;-0.0932;
926.7000;0.1498;-0.0980;
927.0000;0.1498;-0.1004;
927.3000;0.1465;-0.0980;
927.6000;0.1473;-0.1004;
927.9000;0.1522;-0.0932;
928.2000;0.1498;-0.0908;
928.5000;0.1555;-0.0765;
928.8000;0.1498;-0.0884;
929.1000;0.1498;-0.0789;
929.4000;0.1498;-0.0717;
929.7000;0.1506;-0.0741;
930.0000;0.1481;-0.0812;
930.3000;0.1490;-0.0789;
930.6000;0.1433;-0.0956;
930.9000;0.1506;-0.0765;
931.2000;0.1522;-0.0717;
931.5000;0.1571;-0.0597;
931.8000;0.1481;-0.0884;
932.1000;0.1506;-0.0908;
932.4000;0.1514;-0.0932;
932.7000;0.1490;-0.0956;
933.0000;0.1530;-0.0884;
933.3000;0.1425;-0.1171;
933.6000;0.1498;-0.1051;
933.9000;0.1490;-0.1004;
934.2000;0.1530;-0.0908;
934.5000;0.1481;-0.0980;
934.8000;0.1498;-0.0932;
935.1000;0.1563;-0.0741;
935.4000;0.1490;-0.0860;
935.7000;0.1498;-0.0812;
936.0000;0.1481;-0.0812;
936.3000;0.1481;-0.0765;
936.6000;0.1481;-0.0741;
936.9000;0.1490;-0.0717;
937.2000;0.1506;-0.0741;
937.5000;0.1465;-0.0884;
937.8000;0.1490;-0.0836;
938.1000;0.1490;-0.0836;
938.4000;0.1506;-0.0741;
938.7000;0.1506;-0.0741;
939.0000;0.1481;-0.0884;
939.3000;0.1473;-0.1028;
939.6000;0.1522;-0.0860;
939.9000;0.1498;-0.0932;
940.2000;0.1408;-0.1123;
940.5000;0.1514;-0.0812;
940.8000;0.1506;-0.0789;
941.1000;0.1490;-0.0789;
941.4000;0.1506;-0.0765;
941.7000;0.1490;-0.0860;
942.0000;0.1465;-0.0884;
942.3000;0.1506;-0.0836;
942.6000;0.1514;-0.0741;
942.9000;0.1498;-0.0717;
943.2000;0.1506;-0.0645;
943.5000;0.1481;-0.0717;
943.8000;0.1490;-0.0717;
944.1000;0.1506;-0.0669;
944.4000;0.1473;-0.0741;
944.7000;0.1465;-0.0765;
945.0000;0.1498;-0.0621;
945.3000;0.1481;-0.0621;
945.6000;0.1506;-0.0550;
945.9000;0.1506;-0.0550;
946.2000;0.1490;-0.0526;
946.5000;0.1465;-0.0597;
946.8000;0.1473;-0.0597;
947.1000;0.1522;-0.0454;
947.4000;0.1506;-0.0406;
947.7000;0.1490;-0.0502;
948.0000;0.1498;-0.0478;
948.3000;0.1481;-0.0621;
948.6000;0.1490;-0.0574;
948.9000;0.1473;-0.0550;
949.2000;0.1465;-0.0478;
949.5000;0.1408;-0.0597;
949.8000;0.1522;-0.0335;
950.1000;0.1522;-0.0454;
950.4000;0.1473;-0.0478;
950.7000;0.1530;-0.0406;
951.0000;0.1514;-0.0574;
951.3000;0.1490;-0.0669;
951.6000;0.1490;-0.0717;
951.9000;0.1425;-0.0884;
952.2000;0.1457;-0.0812;
952.5000;0.1473;-0.0836;
952.8000;0.1465;-0.0765;
953.1000;0.1506;-0.0717;
953.4000;0.1490;-0.0789;
953.7000;0.1481;-0.0789;
954.0000;0.1555;-0.0621;
954.3000;0.1506;-0.0860;
954.6000;0.1465;-0.0980;
954.9000;0.1490;-0.0884;
955.2000;0.1522;-0.0765;
955.5000;0.1587;-0.0526;
955.8000;0.1514;-0.0669;
956.1000;0.1465;-0.0812;
956.4000;0.1490;-0.0717;
956.7000;0.1473;-0.0812;
957.0000;0.1473;-0.0765;
957.3000;0.1498;-0.0621;
957.6000;0.1490;-0.0621;
957.9000;0.1457;-0.0741;
958.2000;0.1514;-0.0717;
958.5000;0.1498;-0.0812;
958.8000;0.1514;-0.0836;
959.1000;0.1490;-0.0860;
959.4000;0.1563;-0.0669;
959.7000;0.1498;-0.0812;
960.0000;0.1506;-0.0765;
960.3000;0.1449;-0.0908;
960.6000;0.1506;-0.0860;
960.9000;0.1522;-0.0765;
961.2000;0.1490;-0.0812;
961.5000;0.1481;-0.0860;
961.8000;0.1498;-0.0741;
962.1000;0.1506;-0.0789;
962.4000;0.1465;-0.0932;
962.7000;0.1425;-0.1075;
963.0000;0.1498;-0.0765;
963.3000;0.1604;-0.0550;
963.6000;0.1473;-0.0884;
963.9000;0.1473;-0.0836;
964.2000;0.1506;-0.0693;
964.5000;0.1481;-0.0860;
964.8000;0.1498;-0.0836;
965.1000;0.1490;-0.0884;
965.4000;0.1490;-0.0908;
965.7000;0.1530;-0.0812;
966.0000;0.1473;-0.0860;
966.3000;0.1498;-0.0884;
966.6000;0.1498;-0.0932;
966.9000;0.1481;-0.0980;
967.2000;0.1506;-0.1004;
967.5000;0.1506;-0.0980;
967.8000;0.1481;-0.0956;
968.1000;0.1473;-0.0980;
968.4000;0.1481;-0.1004;
968.7000;0.1473;-0.0980;
969.0000;0.1490;-0.0980;
969.3000;0.1506;-0.0932;
969.6000;0.1498;-0.0956;
969.9000;0.1514;-0.0884;
970.2000;0.1490;-0.0956;
970.5000;0.1490;-0.0932;
970.8000;0.1522;-0.0860;
971.1000;0.1473;-0.0932;
971.4000;0.1514;-0.0884;
971.7000;0.1481;-0.0956;
972.0000;0.1490;-0.0884;
972.3000;0.1498;-0.0789;
972.6000;0.1498;-0.0717;
972.9000;0.1636;-0.0358;
973.2000;0.1481;-0.0860;
973.5000;0.1490;-0.0836;
973.8000;0.1498;-0.0836;
974.1000;0.1490;-0.0789;
974.4000;0.1514;-0.0645;
974.7000;0.1498;-0.0597;
975.0000;0.1506;-0.0621;
975.3000;0.1481;-0.0741;
975.6000;0.1498;-0.0765;
975.9000;0.1555;-0.0669;
976.2000;0.1498;-0.0932;
976.5000;0.1506;-0.0908;
976.8000;0.1490;-0.1028;
977.1000;0.1473;-0.1099;
977.4000;0.1481;-0.1123;
977.7000;0.1506;-0.1051;
978.0000;0.1473;-0.1099;
978.3000;0.1376;-0.1314;
978.6000;0.1506;-0.1004;
978.9000;0.1481;-0.1028;
979.2000;0.1490;-0.1028;
979.5000;0.1506;-0.1075;
979.8000;0.1522;-0.1004;
980.1000;0.1490;-0.1051;
980.4000;0.1465;-0.0980;
980.7000;0.1506;-0.0860;
981.0000;0.1498;-0.0884;
981.3000;0.1490;-0.0860;
981.6000;0.1498;-0.0908;
981.9000;0.1522;-0.0884;
982.2000;0.1506;-0.0980;
982.5000;0.1506;-0.0956;
982.8000;0.1522;-0.0741;
983.1000;0.1498;-0.0836;
983.4000;0.1506;-0.0765;
983.7000;0.1498;-0.0836;
984.0000;0.1498;-0.0932;
984.3000;0.1449;-0.1099;
984.6000;0.1506;-0.1051;
984.9000;0.1473;-0.1075;
985.2000;0.1644;-0.0574;
985.5000;0.1490;-0.0956;
985.8000;0.1506;-0.0932;
986.1000;0.1441;-0.1075;
986.4000;0.1563;-0.0765;
986.7000;0.1490;-0.0860;
987.0000;0.1441;-0.0932;
987.3000;0.1433;-0.0956;
987.6000;0.1506;-0.0812;
987.9000;0.1522;-0.0860;
988.2000;0.1563;-0.0717;
988.5000;0.1465;-0.0956;
988.8000;0.1506;-0.0836;
989.1000;0.1490;-0.0884;
989.4000;0.1514;-0.0812;
989.7000;0.1498;-0.0884;
990.0000;0.1481;-0.0980;
990.3000;0.1514;-0.0932;
990.6000;0.1481;-0.1004;
990.9000;0.1506;-0.0980;
991.2000;0.1514;-0.0932;
991.5000;0.1498;-0.1028;
991.8000;0.1498;-0.1004;
992.1000;0.1498;-0.0932;
992.4000;0.1547;-0.0693;
992.7000;0.1506;-0.0765;
993.0000;0.1506;-0.0836;
993.3000;0.1514;-0.0860;
993.6000;0.1506;-0.0812;
993.9000;0.1490;-0.0812;
994.2000;0.1498;-0.0908;
994.5000;0.1449;-0.1004;
994.8000;0.1522;-0.0860;
995.1000;0.1522;-0.0860;
995.4000;0.1473;-0.1028;
995.7000;0.1490;-0.1051;
996.0000;0.1481;-0.1075;
996.3000;0.1506;-0.1099;
996.6000;0.1490;-0.1028;
996.9000;0.1490;-0.0980;
997.2000;0.1506;-0.0932;
997.5000;0.1481;-0.0932;
997.8000;0.1514;-0.0789;
998.1000;0.1498;-0.0884;
998.4000;0.1490;-0.0812;
998.7000;0.1473;-0.0812;
999.0000;0.1481;-0.0717;
999.3000;0.1514;-0.0621;
999.6000;0.1490;-0.0765;
999.9000;0.1498;-0.0836;
1000.2000;0.1538;-0.0669;
1000.5000;0.1620;-0.0358;
1000.8000;0.1579;-0.0526;
1001.1000;0.1400;-0.1075;
1001.4000;0.1530;-0.0621;
1001.7000;0.1514;-0.0693;
1002.0000;0.1612;-0.0382;
1002.3000;0.1506;-0.0574;
1002.6000;0.1449;-0.0693;
1002.9000;0.1563;-0.0478;
1003.2000;0.1465;-0.0717;
1003.5000;0.1547;-0.0597;
1003.8000;0.1490;-0.0717;
1004.1000;0.1506;-0.0645;
1004.4000;0.1498;-0.0669;
1004.7000;0.1498;-0.0669;
1005.0000;0.1481;-0.0765;
1005.3000;0.1481;-0.0765;
1005.6000;0.1506;-0.0741;
1005.9000;0.1473;-0.0812;
1006.2000;0.1425;-0.0908;
1006.5000;0.1481;-0.0765;
1006.8000;0.1522;-0.0621;
1007.1000;0.1571;-0.0382;
1007.4000;0.1498;-0.0550;
1007.7000;0.1498;-0.0669;
1008.0000;0.1555;-0.0454;
1008.3000;0.1514;-0.0645;
1008.6000;0.1506;-0.0693;
1008.9000;0.1490;-0.0812;
1009.2000;0.1530;-0.0717;
1009.5000;0.1506;-0.0741;
1009.8000;0.1490;-0.0717;
1010.1000;0.1457;-0.0836;
1010.4000;0.1547;-0.0574;
1010.7000;0.1514;-0.0717;
1011.0000;0.1498;-0.0741;
1011.3000;0.1538;-0.0621;
1011.6000;0.1490;-0.0669;
1011.9000;0.1490;-0.0717;
1012.2000;0.1473;-0.0836;
1012.5000;0.1481;-0.0908;
1012.8000;0.1465;-0.0932;
1013.1000;0.1506;-0.0836;
1013.4000;0.1490;-0.0812;
1013.7000;0.1490;-0.0836;
1014.0000;0.1490;-0.0717;
1014.3000;0.1490;-0.0717;
1014.6000;0.1498;-0.0693;
1014.9000;0.1490;-0.0693;
1015.2000;0.1457;-0.0789;
1015.5000;0.1490;-0.0812;
1015.8000;0.1481;-0.0765;
1016.1000;0.1514;-0.0645;
1016.4000;0.1506;-0.0669;
1016.7000;0.1498;-0.0693;
1017.0000;0.1506;-0.0669;
1017.3000;0.1481;-0.0765;
1017.6000;0.1506;-0.0741;
1017.9000;0.1498;-0.0717;
1018.2000;0.1506;-0.0717;
1018.5000;0.1481;-0.0645;
1018.8000;0.1400;-0.0908;
1019.1000;0.1473;-0.0669;
1019.4000;0.1498;-0.0621;
1019.7000;0.1506;-0.0645;
1020.0000;0.1498;-0.0645;
1020.3000;0.1506;-0.0621;
1020.6000;0.1481;-0.0669;
1020.9000;0.1490;-0.0741;
1021.2000;0.1490;-0.0765;
1021.5000;0.1368;-0.1099;
1021.8000;0.1408;-0.0836;
1022.1000;0.1473;-0.0693;
1022.4000;0.1498;-0.0550;
1022.7000;0.1481;-0.0669;
1023.0000;0.1473;-0.0765;
1023.3000;0.1498;-0.0717;
1023.6000;0.1506;-0.0669;
1023.9000;0.1473;-0.0765;
1024.2000;0.1481;-0.0789;
1024.5000;0.1514;-0.0597;
1024.8000;0.1506;-0.0621;
1025.1000;0.1587;-0.0358;
1025.4000;0.1498;-0.0597;
1025.7000;0.1481;-0.0669;
1026.0000;0.1563;-0.0502;
1026.3000;0.1522;-0.0574;
1026.6000;0.1555;-0.0502;
1026.9000;0.1473;-0.0669;
1027.2000;0.1530;-0.0526;
1027.5000;0.1351;-0.1051;
1027.8000;0.1538;-0.0574;
1028.1000;0.1498;-0.0741;
1028.4000;0.1514;-0.0717;
1028.7000;0.1498;-0.0717;
1029.0000;0.1481;-0.0741;
1029.3000;0.1547;-0.0693;
1029.6000;0.1555;-0.0645;
1029.9000;0.1490;-0.0884;
1030.2000;0.1473;-0.0812;
1030.5000;0.1490;-0.0765;
1030.8000;0.1506;-0.0741;
1031.1000;0.1481;-0.0741;
1031.4000;0.1498;-0.0621;
1031.7000;0.1498;-0.0645;
1032.0000;0.1449;-0.0789;
1032.3000;0.1490;-0.0621;
1032.6000;0.1481;-0.0717;
1032.9000;0.1498;-0.0789;
1033.2000;0.1555;-0.0597;
1033.5000;0.1530;-0.0597;
1033.8000;0.1514;-0.0717;
1034.1000;0.1490;-0.0789;
1034.4000;0.1595;-0.0574;
1034.7000;0.1481;-0.0693;
1035.0000;0.1514;-0.0574;
1035.3000;0.1433;-0.0717;
1035.6000;0.1522;-0.0502;
1035.9000;0.1481;-0.0597;
1036.2000;0.1490;-0.0621;
1036.5000;0.1522;-0.0574;
1036.8000;0.1498;-0.0645;
1037.1000;0.1506;-0.0645;
1037.4000;0.1481;-0.0669;
1037.7000;0.1514;-0.0645;
1038.0000;0.1506;-0.0717;
1038.3000;0.1449;-0.0860;
1038.6000;0.1498;-0.0765;
1038.9000;0.1481;-0.0789;
1039.2000;0.1498;-0.0741;
1039.5000;0.1498;-0.0836;
1039.8000;0.1498;-0.0836;
1040.1000;0.1506;-0.0812;
1040.4000;0.1490;-0.0860;
1040.7000;0.1490;-0.0908;
1041.0000;0.1498;-0.0956;
1041.3000;0.1481;-0.0980;
1041.6000;0.1514;-0.0860;
1041.9000;0.1514;-0.0956;
1042.2000;0.1490;-0.1004;
1042.5000;0.1498;-0.0884;
1042.8000;0.1490;-0.0836;
1043.1000;0.1498;-0.0812;
1043.4000;0.1522;-0.0789;
1043.7000;0.1514;-0.0836;
1044.0000;0.1473;-0.0884;
1044.3000;0.1473;-0.0812;
1044.6000;0.1506;-0.0693;
1044.9000;0.1498;-0.0741;
1045.2000;0.1481;-0.0836;
1045.5000;0.1465;-0.0860;
1045.8000;0.1595;-0.0550;
1046.1000;0.1481;-0.0765;
1046.4000;0.1490;-0.0717;
1046.7000;0.1490;-0.0669;
1047.0000;0.1514;-0.0645;
1047.3000;0.1441;-0.0932;
1047.6000;0.1481;-0.0789;
1047.9000;0.1530;-0.0597;
1048.2000;0.1506;-0.0741;
1048.5000;0.1465;-0.0836;
1048.8000;0.1457;-0.0812;
1049.1000;0.1506;-0.0597;
1049.4000;0.1514;-0.0597;
1049.7000;0.1498;-0.0645;
1050.0000;0.1547;-0.0550;
1050.3000;0.1490;-0.0717;
1050.6000;0.1514;-0.0789;
1050.9000;0.1481;-0.0860;
1051.2000;0.1506;-0.0765;
1051.5000;0.1522;-0.0789;
1051.8000;0.1506;-0.0812;
1052.1000;0.1457;-0.0908;
1052.4000;0.1498;-0.0860;
1052.7000;0.1473;-0.0884;
1053.0000;0.1506;-0.0765;
1053.3000;0.1506;-0.0741;
1053.6000;0.1481;-0.0717;
1053.9000;0.1473;-0.0765;
1054.2000;0.1481;-0.0789;
1054.5000;0.1481;-0.0717;
1054.8000;0.1490;-0.0741;
1055.1000;0.1506;-0.0645;
1055.4000;0.1481;-0.0741;
1055.7000;0.1514;-0.0693;
1056.0000;0.1490;-0.0789;
1056.3000;0.1457;-0.0860;
1056.6000;0.1490;-0.0765;
1056.9000;0.1522;-0.0717;
1057.2000;0.1514;-0.0693;
1057.5000;0.1490;-0.0717;
1057.8000;0.1481;-0.0669;
1058.1000;0.1514;-0.0597;
1058.4000;0.1506;-0.0550;
1058.7000;0.1490;-0.0645;
1059.0000;0.1514;-0.0597;
1059.3000;0.1490;-0.0645;
1059.6000;0.1506;-0.0693;
1059.9000;0.1506;-0.0717;
1060.2000;0.1481;-0.0860;
1060.5000;0.1490;-0.0836;
1060.8000;0.1514;-0.0693;
1061.1000;0.1506;-0.0717;
1061.4000;0.1416;-0.1004;
1061.7000;0.1498;-0.0693;
1062.0000;0.1514;-0.0812;
1062.3000;0.1465;-0.0956;
1062.6000;0.1498;-0.0860;
1062.9000;0.1522;-0.0812;
1063.2000;0.1490;-0.0860;
1063.5000;0.1522;-0.0860;
1063.8000;0.1498;-0.0908;
1064.1000;0.1498;-0.0932;
1064.4000;0.1481;-0.0932;
1064.7000;0.1490;-0.0884;
1065.0000;0.1514;-0.0836;
1065.3000;0.1514;-0.0860;
1065.6000;0.1473;-0.0884;
1065.9000;0.1514;-0.0836;
1066.2000;0.1522;-0.0812;
1066.5000;0.1481;-0.0860;
1066.8000;0.1604;-0.0574;
1067.1000;0.1522;-0.0860;
1067.4000;0.1571;-0.0741;
1067.7000;0.1498;-0.0932;
1068.0000;0.1522;-0.0884;
1068.3000;0.1490;-0.0956;
1068.6000;0.1514;-0.0860;
1068.9000;0.1587;-0.0669;
1069.2000;0.1425;-0.1123;
1069.5000;0.1490;-0.0884;
1069.8000;0.1498;-0.0860;
1070.1000;0.1547;-0.0741;
1070.4000;0.1571;-0.0741;
1070.7000;0.1473;-0.0932;
1071.0000;0.1490;-0.0836;
1071.3000;0.1425;-0.0956;
1071.6000;0.1473;-0.0956;
1071.9000;0.1457;-0.1028;
1072.2000;0.1498;-0.0956;
1072.5000;0.1514;-0.0908;
1072.8000;0.1490;-0.0980;
1073.1000;0.1490;-0.0956;
1073.4000;0.1498;-0.0956;
1073.7000;0.1506;-0.0980;
1074.0000;0.1506;-0.0884;
1074.3000;0.1522;-0.0812;
1074.6000;0.1498;-0.0860;
1074.9000;0.1514;-0.0693;
1075.2000;0.1506;-0.0765;
1075.5000;0.1522;-0.0693;
1075.8000;0.1498;-0.0693;
1076.1000;0.1490;-0.0717;
1076.4000;0.1506;-0.0717;
1076.7000;0.1506;-0.0741;
1077.0000;0.1498;-0.0789;
1077.3000;0.1506;-0.0789;
1077.6000;0.1498;-0.0789;
1077.9000;0.1481;-0.0812;
1078.2000;0.1506;-0.0741;
1078.5000;0.1473;-0.0765;
1078.8000;0.1490;-0.0812;
1079.1000;0.1506;-0.0789;
1079.4000;0.1449;-0.0908;
1079.7000;0.1498;-0.0860;
1080.0000;0.1514;-0.0765;
1080.3000;0.1555;-0.0693;
1080.6000;0.1514;-0.0860;
1080.9000;0.1490;-0.0860;
1081.2000;0.1481;-0.0836;
1081.5000;0.1481;-0.0860;
1081.8000;0.1490;-0.0908;
1082.1000;0.1506;-0.0860;
1082.4000;0.1506;-0.0860;
1082.7000;0.1490;-0.0884;
1083.0000;0.1473;-0.0860;
1083.3000;0.1368;-0.1099;
1083.6000;0.1449;-0.0956;
1083.9000;0.1490;-0.0980;
1084.2000;0.1530;-0.0884;
1084.5000;0.1522;-0.0860;
1084.8000;0.1473;-0.1051;
1085.1000;0.1530;-0.0908;
1085.4000;0.1481;-0.1147;
1085.7000;0.1481;-0.1123;
1086.0000;0.1481;-0.1147;
1086.3000;0.1522;-0.1075;
1086.6000;0.1506;-0.1051;
1086.9000;0.1498;-0.1123;
1087.2000;0.1506;-0.1123;
1087.5000;0.1506;-0.0980;
1087.8000;0.1490;-0.1004;
1088.1000;0.1490;-0.1004;
1088.4000;0.1522;-0.1028;
1088.7000;0.1498;-0.1099;
1089.0000;0.1490;-0.1051;
1089.3000;0.1490;-0.1051;
1089.6000;0.1498;-0.1004;
1089.9000;0.1506;-0.0884;
1090.2000;0.1473;-0.1004;
1090.5000;0.1506;-0.1004;
1090.8000;0.1571;-0.0860;
1091.1000;0.1490;-0.1123;
1091.4000;0.1522;-0.1075;
1091.7000;0.1490;-0.1195;
1092.0000;0.1506;-0.1195;
1092.3000;0.1433;-0.1386;
1092.6000;0.1449;-0.1338;
1092.9000;0.1530;-0.1099;
1093.2000;0.1498;-0.1243;
1093.5000;0.1571;-0.0980;
1093.8000;0.1498;-0.1099;
1094.1000;0.1441;-0.1219;
1094.4000;0.1481;-0.1195;
1094.7000;0.1498;-0.1219;
1095.0000;0.1490;-0.1243;
1095.3000;0.1506;-0.1171;
1095.6000;0.1441;-0.1219;
1095.9000;0.1522;-0.0932;
1096.2000;0.1498;-0.0884;
1096.5000;0.1498;-0.0884;
1096.8000;0.1490;-0.0932;
1097.1000;0.1514;-0.0765;
1097.4000;0.1514;-0.0812;
1097.7000;0.1481;-0.0932;
1098.0000;0.1498;-0.0884;
1098.3000;0.1490;-0.1028;
1098.6000;0.1473;-0.1147;
1098.9000;0.1506;-0.1195;
1099.2000;0.1376;-0.1553;
1099.5000;0.1490;-0.1171;
1099.8000;0.1514;-0.1147;
1100.1000;0.1522;-0.1171;
1100.4000;0.1555;-0.1123;
1100.7000;0.1490;-0.1243;
1101.0000;0.1709;-0.0574;
1101.3000;0.1644;-0.0669;
1101.6000;0.1506;-0.1028;
1101.9000;0.1522;-0.1051;
1102.2000;0.1327;-0.1601;
1102.5000;0.1490;-0.1099;
1102.8000;0.1547;-0.0956;
1103.1000;0.1473;-0.1075;
1103.4000;0.1490;-0.1075;
1103.7000;0.1490;-0.1051;
1104.0000;0.1359;-0.1314;
1104.3000;0.1498;-0.0860;
1104.6000;0.1481;-0.0908;
1104.9000;0.1481;-0.0956;
1105.2000;0.1498;-0.0980;
1105.5000;0.1490;-0.1028;
1105.8000;0.1490;-0.1004;
1106.1000;0.1506;-0.1004;
1106.4000;0.1490;-0.1099;
1106.7000;0.1498;-0.1099;
1107.0000;0.1481;-0.1123;
1107.3000;0.1628;-0.0669;
1107.6000;0.1514;-0.0956;
1107.9000;0.1498;-0.1028;
1108.2000;0.1498;-0.1004;
1108.5000;0.1481;-0.1051;
1108.8000;0.1506;-0.1075;
1109.1000;0.1481;-0.1147;
1109.4000;0.1490;-0.1147;
1109.7000;0.1473;-0.1171;
1110.0000;0.1506;-0.1195;
1110.3000;0.1506;-0.1219;
1110.6000;0.1498;-0.1171;
1110.9000;0.1498;-0.1290;
1111.2000;0.1481;-0.1386;
1111.5000;0.1514;-0.1219;
1111.8000;0.1498;-0.1243;
1112.1000;0.1506;-0.1266;
1112.4000;0.1506;-0.1147;
1112.7000;0.1490;-0.1171;
1113.0000;0.1498;-0.1195;
1113.3000;0.1498;-0.1147;
1113.6000;0.1490;-0.1099;
1113.9000;0.1506;-0.1075;
1114.2000;0.1490;-0.1075;
1114.5000;0.1490;-0.1075;
1114.8000;0.1498;-0.1099;
1115.1000;0.1481;-0.1123;
1115.4000;0.1490;-0.1099;
1115.7000;0.1481;-0.1195;
1116.0000;0.1530;-0.1099;
1116.3000;0.1490;-0.1147;
1116.6000;0.1498;-0.1028;
1116.9000;0.1498;-0.1099;
1117.2000;0.1490;-0.1123;
1117.5000;0.1465;-0.1171;
1117.8000;0.1481;-0.1051;
1118.1000;0.1449;-0.1195;
1118.4000;0.1490;-0.1028;
1118.7000;0.1506;-0.0980;
1119.0000;0.1473;-0.1028;
1119.3000;0.1522;-0.0860;
1119.6000;0.1376;-0.1290;
1119.9000;0.1498;-0.0980;
1120.2000;0.1530;-0.0908;
1120.5000;0.1498;-0.0980;
1120.8000;0.1498;-0.0956;
1121.1000;0.1481;-0.0980;
1121.4000;0.1514;-0.0884;
1121.7000;0.1514;-0.0884;
1122.0000;0.1481;-0.0980;
1122.3000;0.1465;-0.1051;
1122.6000;0.1506;-0.0980;
1122.9000;0.1490;-0.1051;
1123.2000;0.1498;-0.1075;
1123.5000;0.1530;-0.0980;
1123.8000;0.1465;-0.1195;
1124.1000;0.1506;-0.1123;
1124.4000;0.1449;-0.1243;
1124.7000;0.1498;-0.1147;
1125.0000;0.1547;-0.1051;
1125.3000;0.1490;-0.1243;
1125.6000;0.1490;-0.1171;
1125.9000;0.1490;-0.1123;
1126.2000;0.1465;-0.1195;
1126.5000;0.1490;-0.1171;
1126.8000;0.1490;-0.1171;
1127.1000;0.1506;-0.1147;
1127.4000;0.1555;-0.0980;
1127.7000;0.1481;-0.1123;
1128.0000;0.1441;-0.1195;
1128.3000;0.1514;-0.0956;
1128.6000;0.1498;-0.1028;
1128.9000;0.1498;-0.1004;
1129.2000;0.1481;-0.1028;
1129.5000;0.1498;-0.1051;
1129.8000;0.1506;-0.1147;
1130.1000;0.1473;-0.1195;
1130.4000;0.1506;-0.1171;
1130.7000;0.1490;-0.1171;
1131.0000;0.1433;-0.1243;
1131.3000;0.1514;-0.0932;
1131.6000;0.1473;-0.1028;
1131.9000;0.1498;-0.0932;
1132.2000;0.1498;-0.0956;
1132.5000;0.1498;-0.0932;
1132.8000;0.1506;-0.0908;
1133.1000;0.1498;-0.0956;
1133.4000;0.1490;-0.0956;
1133.7000;0.1514;-0.0956;
1134.0000;0.1498;-0.1051;
1134.3000;0.1498;-0.1075;
1134.6000;0.1506;-0.1099;
1134.9000;0.1514;-0.1051;
1135.2000;0.1490;-0.1099;
1135.5000;0.1506;-0.0956;
1135.8000;0.1490;-0.0956;
1136.1000;0.1498;-0.0956;
1136.4000;0.1473;-0.1051;
1136.7000;0.1425;-0.1219;
1137.0000;0.1498;-0.0956;
1137.3000;0.1490;-0.1004;
1137.6000;0.1506;-0.1004;
1137.9000;0.1441;-0.1362;
1138.2000;0.1522;-0.1123;
1138.5000;0.1514;-0.1147;
1138.8000;0.1457;-0.1290;
1139.1000;0.1514;-0.1171;
1139.4000;0.1514;-0.1219;
1139.7000;0.1514;-0.1075;
1140.0000;0.1498;-0.1123;
1140.3000;0.1498;-0.1051;
1140.6000;0.1441;-0.1314;
1140.9000;0.1490;-0.1075;
1141.2000;0.1498;-0.1147;
1141.5000;0.1555;-0.0932;
1141.8000;0.1506;-0.1099;
1142.1000;0.1538;-0.0980;
1142.4000;0.1571;-0.0908;
1142.7000;0.1490;-0.1147;
1143.0000;0.1465;-0.1266;
1143.3000;0.1384;-0.1529;
1143.6000;0.1449;-0.1314;
1143.9000;0.1514;-0.1147;
1144.2000;0.1506;-0.1099;
1144.5000;0.1490;-0.1075;
1144.8000;0.1449;-0.1123;
1145.1000;0.1498;-0.0980;
1145.4000;0.1498;-0.1051;
1145.7000;0.1490;-0.1075;
1146.0000;0.1490;-0.0884;
1146.3000;0.1530;-0.0836;
1146.6000;0.1506;-0.0836;
1146.9000;0.1465;-0.0932;
1147.2000;0.1506;-0.0789;
1147.5000;0.1514;-0.0932;
1147.8000;0.1538;-0.0908;
1148.1000;0.1465;-0.1075;
1148.4000;0.1498;-0.0980;
1148.7000;0.1490;-0.0980;
1149.0000;0.1498;-0.0956;
1149.3000;0.1587;-0.0741;
1149.6000;0.1490;-0.0956;
1149.9000;0.1481;-0.1075;
1150.2000;0.1473;-0.1123;
1150.5000;0.1506;-0.1051;
1150.8000;0.1465;-0.1099;
1151.1000;0.1490;-0.0932;
1151.4000;0.1587;-0.0717;
1151.7000;0.1490;-0.0956;
1152.0000;0.1481;-0.1051;
1152.3000;0.1490;-0.0884;
1152.6000;0.1498;-0.0932;
1152.9000;0.1473;-0.1028;
1153.2000;0.1481;-0.0932;
1153.5000;0.1481;-0.0908;
1153.8000;0.1490;-0.0932;
1154.1000;0.1514;-0.0836;
1154.4000;0.1473;-0.0884;
1154.7000;0.1506;-0.0812;
1155.0000;0.1538;-0.0789;
1155.3000;0.1465;-0.0980;
1155.6000;0.1506;-0.0884;
1155.9000;0.1498;-0.0884;
1156.2000;0.1506;-0.0908;
1156.5000;0.1481;-0.0956;
1156.8000;0.1376;-0.1338;
1157.1000;0.1490;-0.1051;
1157.4000;0.1490;-0.1051;
1157.7000;0.1481;-0.1051;
1158.0000;0.1506;-0.0980;
1158.3000;0.1490;-0.1123;
1158.6000;0.1465;-0.1099;
1158.9000;0.1481;-0.1099;
1159.2000;0.1490;-0.1028;
1159.5000;0.1506;-0.1075;
1159.8000;0.1498;-0.1123;
1160.1000;0.1506;-0.1099;
1160.4000;0.1498;-0.1171;
1160.7000;0.1514;-0.1099;
1161.0000;0.1547;-0.0932;
1161.3000;0.1473;-0.1075;
1161.6000;0.1473;-0.1099;
1161.9000;0.1506;-0.0956;
1162.2000;0.1473;-0.0980;
1162.5000;0.1416;-0.1004;
1162.8000;0.1481;-0.0884;
1163.1000;0.1490;-0.0860;
1163.4000;0.1522;-0.0717;
1163.7000;0.1490;-0.0789;
1164.0000;0.1514;-0.0645;
1164.3000;0.1490;-0.0621;
1164.6000;0.1441;-0.0908;
1164.9000;0.1498;-0.0789;
1165.2000;0.1490;-0.0741;
1165.5000;0.1506;-0.0645;
1165.8000;0.1530;-0.0597;
1166.1000;0.1538;-0.0645;
1166.4000;0.1490;-0.0669;
1166.7000;0.1490;-0.0693;
1167.0000;0.1506;-0.0741;
1167.3000;0.1547;-0.0621;
1167.6000;0.1490;-0.0860;
1167.9000;0.1506;-0.0860;
1168.2000;0.1514;-0.0860;
1168.5000;0.1481;-0.0932;
1168.8000;0.1473;-0.0884;
1169.1000;0.1481;-0.0884;
1169.4000;0.1514;-0.0789;
1169.7000;0.1498;-0.0932;
1170.0000;0.1473;-0.1004;
1170.3000;0.1481;-0.1004;
1170.6000;0.1498;-0.0932;
1170.9000;0.1481;-0.0932;
1171.2000;0.1481;-0.0932;
1171.5000;0.1506;-0.0789;
1171.8000;0.1506;-0.0812;
1172.1000;0.1498;-0.0812;
1172.4000;0.1465;-0.0884;
1172.7000;0.1490;-0.0836;
1173.0000;0.1490;-0.0812;
1173.3000;0.1481;-0.0860;
1173.6000;0.1498;-0.0884;
1173.9000;0.1514;-0.0980;
1174.2000;0.1481;-0.1099;
1174.5000;0.1465;-0.1099;
1174.8000;0.1498;-0.1075;
1175.1000;0.1481;-0.1171;
1175.4000;0.1669;-0.0645;
1175.7000;0.1465;-0.1147;
1176.0000;0.1481;-0.1099;
1176.3000;0.1498;-0.1051;
1176.6000;0.1490;-0.1028;
1176.9000;0.1530;-0.0908;
1177.2000;0.1490;-0.0956;
1177.5000;0.1490;-0.0980;
1177.8000;0.1490;-0.0980;
1178.1000;0.1490;-0.0956;
1178.4000;0.1538;-0.0884;
1178.7000;0.1498;-0.0932;
1179.0000;0.1506;-0.0956;
1179.3000;0.1481;-0.0980;
1179.6000;0.1490;-0.0956;
1179.9000;0.1473;-0.0956;
1180.2000;0.1473;-0.0884;
1180.5000;0.1530;-0.0812;
1180.8000;0.1498;-0.0908;
1181.1000;0.1473;-0.0980;
1181.4000;0.1514;-0.0836;
1181.7000;0.1506;-0.0789;
1182.0000;0.1498;-0.0765;
1182.3000;0.1587;-0.0502;
1182.6000;0.1490;-0.0812;
1182.9000;0.1481;-0.0836;
1183.2000;0.1498;-0.0741;
1183.5000;0.1473;-0.0812;
1183.8000;0.1441;-0.0932;
1184.1000;0.1490;-0.0932;
1184.4000;0.1473;-0.0908;
1184.7000;0.1522;-0.0836;
1185.0000;0.1538;-0.0765;
1185.3000;0.1595;-0.0621;
1185.6000;0.1506;-0.0812;
1185.9000;0.1595;-0.0502;
1186.2000;0.1522;-0.0621;
1186.5000;0.1514;-0.0789;
1186.8000;0.1490;-0.0908;
1187.1000;0.1506;-0.0789;
1187.4000;0.1530;-0.0765;
1187.7000;0.1514;-0.0884;
1188.0000;0.1490;-0.0956;
1188.3000;0.1506;-0.0932;
1188.6000;0.1538;-0.0812;
1188.9000;0.1506;-0.1028;
1189.2000;0.1490;-0.1028;
1189.5000;0.1473;-0.1099;
1189.8000;0.1522;-0.0884;
1190.1000;0.1555;-0.0812;
1190.4000;0.1449;-0.1028;
1190.7000;0.1457;-0.0956;
1191.0000;0.1490;-0.0908;
1191.3000;0.1425;-0.1099;
1191.6000;0.1490;-0.0908;
1191.9000;0.1490;-0.0836;
1192.2000;0.1481;-0.0836;
1192.5000;0.1506;-0.0765;
1192.8000;0.1514;-0.0836;
1193.1000;0.1498;-0.0860;
1193.4000;0.1514;-0.0860;
1193.7000;0.1490;-0.0860;
1194.0000;0.1506;-0.0812;
1194.3000;0.1506;-0.0836;
1194.6000;0.1490;-0.0932;
1194.9000;0.1506;-0.0908;
1195.2000;0.1490;-0.1004;
1195.5000;0.1490;-0.1075;
1195.8000;0.1498;-0.1099;
1196.1000;0.1481;-0.1123;
1196.4000;0.1433;-0.1171;
1196.7000;0.1433;-0.1195;
1197.0000;0.1490;-0.1028;
1197.3000;0.1473;-0.1051;
1197.6000;0.1514;-0.0932;
1197.9000;0.1498;-0.0956;
1198.2000;0.1498;-0.0884;
1198.5000;0.1498;-0.0956;
1198.8000;0.1449;-0.1171;
1199.1000;0.1506;-0.0980;
1199.4000;0.1530;-0.0908;
1199.7000;0.1498;-0.0908;
1200.0000;0.1514;-0.0908;
1200.3000;0.1506;-0.0956;
1200.6000;0.1506;-0.0908;
1200.9000;0.1563;-0.0765;
1201.2000;0.1465;-0.0980;
1201.5000;0.1506;-0.0836;
1201.8000;0.1490;-0.0908;
1202.1000;0.1498;-0.1028;
1202.4000;0.1465;-0.1099;
1202.7000;0.1530;-0.0980;
1203.0000;0.1506;-0.1004;
1203.3000;0.1506;-0.1075;
1203.6000;0.1490;-0.1147;
1203.9000;0.1481;-0.1123;
1204.2000;0.1490;-0.1051;
1204.5000;0.1514;-0.0980;
1204.8000;0.1457;-0.1099;
1205.1000;0.1498;-0.1075;
1205.4000;0.1498;-0.1075;
1205.7000;0.1481;-0.1004;
1206.0000;0.1506;-0.0884;
1206.3000;0.1514;-0.0860;
1206.6000;0.1490;-0.0908;
1206.9000;0.1498;-0.0908;
1207.2000;0.1473;-0.1004;
1207.5000;0.1481;-0.1051;
1207.8000;0.1490;-0.1028;
1208.1000;0.1498;-0.1004;
1208.4000;0.1514;-0.0980;
1208.7000;0.1498;-0.1051;
1209.0000;0.1506;-0.1075;
1209.3000;0.1538;-0.0932;
1209.6000;0.1498;-0.1195;
1209.9000;0.1498;-0.1219;
1210.2000;0.1490;-0.1195;
1210.5000;0.1498;-0.1243;
1210.8000;0.1498;-0.1195;
1211.1000;0.1514;-0.1171;
1211.4000;0.1457;-0.1290;
1211.7000;0.1522;-0.1099;
1212.0000;0.1506;-0.1171;
1212.3000;0.1465;-0.1290;
1212.6000;0.1498;-0.1195;
1212.9000;0.1481;-0.1195;
1213.2000;0.1490;-0.1147;
1213.5000;0.1514;-0.1028;
1213.8000;0.1490;-0.1051;
1214.1000;0.1490;-0.1004;
1214.4000;0.1498;-0.0932;
1214.7000;0.1490;-0.0980;
1215.0000;0.1441;-0.1171;
1215.3000;0.1490;-0.1051;
1215.6000;0.1490;-0.1004;
1215.9000;0.1506;-0.1028;
1216.2000;0.1498;-0.1028;
1216.5000;0.1506;-0.0956;
1216.8000;0.1498;-0.0956;
1217.1000;0.1490;-0.0932;
1217.4000;0.1481;-0.0956;
1217.7000;0.1490;-0.0908;
1218.0000;0.1498;-0.0860;
1218.3000;0.1490;-0.0908;
1218.6000;0.1555;-0.0789;
1218.9000;0.1481;-0.0956;
1219.2000;0.1490;-0.0956;
1219.5000;0.1490;-0.1004;
1219.8000;0.1498;-0.1004;
1220.1000;0.1481;-0.1004;
1220.4000;0.1498;-0.1051;
1220.7000;0.1563;-0.0932;
1221.0000;0.1506;-0.1075;
1221.3000;0.1506;-0.1004;
1221.6000;0.1498;-0.0980;
1221.9000;0.1465;-0.1028;
1222.2000;0.1481;-0.1004;
1222.5000;0.1498;-0.1028;
1222.8000;0.1498;-0.0980;
1223.1000;0.1473;-0.0956;
1223.4000;0.1498;-0.0836;
1223.7000;0.1481;-0.0908;
1224.0000;0.1498;-0.0908;
1224.3000;0.1506;-0.0884;
1224.6000;0.1490;-0.0884;
1224.9000;0.1514;-0.0860;
1225.2000;0.1538;-0.0812;
1225.5000;0.1490;-0.1075;
1225.8000;0.1555;-0.0884;
1226.1000;0.1514;-0.0956;
1226.4000;0.1514;-0.0860;
1226.7000;0.1514;-0.0789;
1227.0000;0.1449;-0.0908;
1227.3000;0.1547;-0.0717;
1227.6000;0.1498;-0.0765;
1227.9000;0.1506;-0.0693;
1228.2000;0.1457;-0.0789;
1228.5000;0.1481;-0.0741;
1228.8000;0.1498;-0.0621;
1229.1000;0.1498;-0.0717;
1229.4000;0.1514;-0.0693;
1229.7000;0.1473;-0.0836;
1230.0000;0.1563;-0.0645;
1230.3000;0.1506;-0.0789;
1230.6000;0.1481;-0.0860;
1230.9000;0.1433;-0.1147;
1231.2000;0.1481;-0.0956;
1231.5000;0.1522;-0.0860;
1231.8000;0.1522;-0.0884;
1232.1000;0.1498;-0.0932;
1232.4000;0.1490;-0.0908;
1232.7000;0.1514;-0.0789;
1233.0000;0.1514;-0.0860;
1233.3000;0.1416;-0.1123;
1233.6000;0.1425;-0.1099;
1233.9000;0.1498;-0.1004;
1234.2000;0.1563;-0.0812;
1234.5000;0.1384;-0.1243;
1234.8000;0.1473;-0.1051;
1235.1000;0.1547;-0.0908;
1235.4000;0.1473;-0.1028;
1235.7000;0.1498;-0.0908;
1236.0000;0.1490;-0.0932;
1236.3000;0.1490;-0.0956;
1236.6000;0.1392;-0.1290;
1236.9000;0.1595;-0.0741;
1237.2000;0.1490;-0.1004;
1237.5000;0.1473;-0.1075;
1237.8000;0.1490;-0.1075;
1238.1000;0.1506;-0.1099;
1238.4000;0.1481;-0.1123;
1238.7000;0.1481;-0.1123;
1239.0000;0.1465;-0.1219;
1239.3000;0.1498;-0.1195;
1239.6000;0.1490;-0.1075;
1239.9000;0.1473;-0.1051;
1240.2000;0.1522;-0.0812;
1240.5000;0.1514;-0.0789;
1240.8000;0.1481;-0.0884;
1241.1000;0.1514;-0.0836;
1241.4000;0.1506;-0.0836;
1241.7000;0.1522;-0.0765;
1242.0000;0.1506;-0.0908;
1242.3000;0.1538;-0.0860;
1242.6000;0.1506;-0.0980;
1242.9000;0.1506;-0.0908;
1243.2000;0.1595;-0.0621;
1243.5000;0.1490;-0.0908;
1243.8000;0.1498;-0.0956;
1244.1000;0.1481;-0.1004;
1244.4000;0.1425;-0.1195;
1244.7000;0.1498;-0.1051;
1245.0000;0.1506;-0.1075;
1245.3000;0.1498;-0.1147;
1245.6000;0.1490;-0.1099;
1245.9000;0.1498;-0.1099;
1246.2000;0.1465;-0.1195;
1246.5000;0.1481;-0.1099;
1246.8000;0.1498;-0.1004;
1247.1000;0.1481;-0.1051;
1247.4000;0.1490;-0.1004;
1247.7000;0.1490;-0.1028;
1248.0000;0.1506;-0.0956;
1248.3000;0.1490;-0.1004;
1248.6000;0.1481;-0.0956;
1248.9000;0.1498;-0.0932;
1249.2000;0.1481;-0.0884;
1249.5000;0.1498;-0.0836;
1249.8000;0.1490;-0.0908;
1250.1000;0.1498;-0.0932;
1250.4000;0.1433;-0.1147;
1250.7000;0.1498;-0.1099;
1251.0000;0.1433;-0.1195;
1251.3000;0.1473;-0.1028;
1251.6000;0.1490;-0.0956;
1251.9000;0.1498;-0.0932;
1252.2000;0.1425;-0.1051;
1252.5000;0.1473;-0.1028;
1252.8000;0.1538;-0.0884;
1253.1000;0.1506;-0.0980;
1253.4000;0.1506;-0.1004;
1253.7000;0.1514;-0.1004;
1254.0000;0.1481;-0.1028;
1254.3000;0.1506;-0.0980;
1254.6000;0.1514;-0.0932;
1254.9000;0.1514;-0.0860;
1255.2000;0.1481;-0.1051;
1255.5000;0.1490;-0.1028;
1255.8000;0.1595;-0.0765;
1256.1000;0.1490;-0.0956;
1256.4000;0.1473;-0.0932;
1256.7000;0.1481;-0.0980;
1257.0000;0.1498;-0.1004;
1257.3000;0.1514;-0.0932;
1257.6000;0.1481;-0.1028;
1257.9000;0.1571;-0.0860;
1258.2000;0.1530;-0.0860;
1258.5000;0.1441;-0.1123;
1258.8000;0.1498;-0.0956;
1259.1000;0.1465;-0.1051;
1259.4000;0.1490;-0.1028;
1259.7000;0.1498;-0.1051;
1260.0000;0.1441;-0.1195;
1260.3000;0.1571;-0.0932;
1260.6000;0.1490;-0.1099;
1260.9000;0.1522;-0.0932;
1261.2000;0.1425;-0.1171;
1261.5000;0.1449;-0.1099;
1261.8000;0.1498;-0.0789;
1262.1000;0.1498;-0.0693;
1262.4000;0.1465;-0.0812;
1262.7000;0.1498;-0.0717;
1263.0000;0.1481;-0.0741;
1263.3000;0.1481;-0.0836;
1263.6000;0.1514;-0.0693;
1263.9000;0.1481;-0.0789;
1264.2000;0.1490;-0.0860;
1264.5000;0.1490;-0.0836;
1264.8000;0.1457;-0.0908;
1265.1000;0.1506;-0.0812;
1265.4000;0.1481;-0.0884;
1265.7000;0.1481;-0.0812;
1266.0000;0.1481;-0.0812;
1266.3000;0.1579;-0.0550;
1266.6000;0.1433;-0.0980;
1266.9000;0.1490;-0.0812;
1267.2000;0.1481;-0.0908;
1267.5000;0.1522;-0.0836;
1267.8000;0.1473;-0.0956;
1268.1000;0.1522;-0.0860;
1268.4000;0.1490;-0.0884;
1268.7000;0.1473;-0.0908;
1269.0000;0.1514;-0.0836;
1269.3000;0.1498;-0.0860;
1269.6000;0.1457;-0.0932;
1269.9000;0.1498;-0.0884;
1270.2000;0.1506;-0.0789;
1270.5000;0.1514;-0.0789;
1270.8000;0.1449;-0.0908;
1271.1000;0.1490;-0.0884;
1271.4000;0.1498;-0.0860;
1271.7000;0.1628;-0.0478;
1272.0000;0.1400;-0.1099;
1272.3000;0.1498;-0.0884;
1272.6000;0.1490;-0.0956;
1272.9000;0.1490;-0.0956;
1273.2000;0.1498;-0.0836;
1273.5000;0.1563;-0.0645;
1273.8000;0.1506;-0.0789;
1274.1000;0.1490;-0.0741;
1274.4000;0.1604;-0.0430;
1274.7000;0.1514;-0.0741;
1275.0000;0.1473;-0.0789;
1275.3000;0.1490;-0.0669;
1275.6000;0.1498;-0.0645;
1275.9000;0.1514;-0.0669;
1276.2000;0.1498;-0.0669;
1276.5000;0.1490;-0.0693;
1276.8000;0.1547;-0.0597;
1277.1000;0.1490;-0.0765;
1277.4000;0.1506;-0.0645;
1277.7000;0.1490;-0.0693;
1278.0000;0.1506;-0.0765;
1278.3000;0.1506;-0.0741;
1278.6000;0.1498;-0.0741;
1278.9000;0.1563;-0.0621;
1279.2000;0.1563;-0.0597;
1279.5000;0.1506;-0.0717;
1279.8000;0.1506;-0.0669;
1280.1000;0.1481;-0.0717;
1280.4000;0.1506;-0.0645;
1280.7000;0.1498;-0.0717;
1281.0000;0.1457;-0.0812;
1281.3000;0.1457;-0.0812;
1281.6000;0.1514;-0.0741;
1281.9000;0.1530;-0.0621;
1282.2000;0.1595;-0.0597;
1282.5000;0.1595;-0.0550;
1282.8000;0.1465;-0.0836;
1283.1000;0.1490;-0.0789;
1283.4000;0.1481;-0.0789;
1283.7000;0.1506;-0.0812;
1284.0000;0.1481;-0.0836;
1284.3000;0.1530;-0.0621;
1284.6000;0.1514;-0.0669;
1284.9000;0.1465;-0.0836;
1285.2000;0.1514;-0.0669;
1285.5000;0.1506;-0.0741;
1285.8000;0.1498;-0.0812;
1286.1000;0.1506;-0.0765;
1286.4000;0.1514;-0.0789;
1286.7000;0.1587;-0.0526;
1287.0000;0.1522;-0.0765;
1287.3000;0.1514;-0.0765;
1287.6000;0.1498;-0.0765;
1287.9000;0.1498;-0.0717;
1288.2000;0.1457;-0.0836;
1288.5000;0.1498;-0.0765;
1288.8000;0.1481;-0.0812;
1289.1000;0.1490;-0.0789;
1289.4000;0.1538;-0.0597;
1289.7000;0.1498;-0.0741;
1290.0000;0.1490;-0.0693;
1290.3000;0.1481;-0.0669;
1290.6000;0.1490;-0.0789;
1290.9000;0.1530;-0.0669;
1291.2000;0.1644;-0.0335;
1291.5000;0.1490;-0.0741;
1291.8000;0.1490;-0.0789;
1292.1000;0.1481;-0.0836;
1292.4000;0.1547;-0.0741;
1292.7000;0.1498;-0.0884;
1293.0000;0.1481;-0.0789;
1293.3000;0.1514;-0.0741;
1293.6000;0.1473;-0.0836;
1293.9000;0.1498;-0.0717;
1294.2000;0.1498;-0.0741;
1294.5000;0.1506;-0.0669;
1294.8000;0.1490;-0.0717;
1295.1000;0.1490;-0.0789;
1295.4000;0.1490;-0.0860;
1295.7000;0.1514;-0.0812;
1296.0000;0.1473;-0.0980;
1296.3000;0.1416;-0.1123;
1296.6000;0.1481;-0.0932;
1296.9000;0.1490;-0.0908;
1297.2000;0.1441;-0.1075;
1297.5000;0.1498;-0.0932;
1297.8000;0.1490;-0.0908;
1298.1000;0.1433;-0.1004;
1298.4000;0.1449;-0.0956;
1298.7000;0.1514;-0.0812;
1299.0000;0.1522;-0.0789;
1299.3000;0.1449;-0.1028;
1299.6000;0.1498;-0.1075;
1299.9000;0.1514;-0.1099;
1300.2000;0.1433;-0.1314;
1300.5000;0.1506;-0.1099;
1300.8000;0.1490;-0.1123;
1301.1000;0.1506;-0.1099;
1301.4000;0.1522;-0.1123;
1301.7000;0.1490;-0.1123;
1302.0000;0.1465;-0.1123;
1302.3000;0.1498;-0.0980;
1302.6000;0.1547;-0.0836;
1302.9000;0.1498;-0.1028;
1303.2000;0.1506;-0.0956;
1303.5000;0.1473;-0.1123;
1303.8000;0.1498;-0.1051;
1304.1000;0.1490;-0.1028;
1304.4000;0.1506;-0.0932;
1304.7000;0.1636;-0.0502;
1305.0000;0.1490;-0.0741;
1305.3000;0.1416;-0.0860;
1305.6000;0.1506;-0.0645;
1305.9000;0.1498;-0.0717;
1306.2000;0.1408;-0.1004;
1306.5000;0.1506;-0.0812;
1306.8000;0.1490;-0.0836;
1307.1000;0.1368;-0.1171;
1307.4000;0.1530;-0.0693;
1307.7000;0.1514;-0.0860;
1308.0000;0.1498;-0.0932;
1308.3000;0.1490;-0.1028;
1308.6000;0.1506;-0.1028;
1308.9000;0.1498;-0.1123;
1309.2000;0.1473;-0.1314;
1309.5000;0.1498;-0.1219;
1309.8000;0.1481;-0.1171;
1310.1000;0.1498;-0.1099;
1310.4000;0.1498;-0.1123;
1310.7000;0.1473;-0.1171;
1311.0000;0.1522;-0.0980;
1311.3000;0.1530;-0.0932;
1311.6000;0.1506;-0.0908;
1311.9000;0.1506;-0.0860;
1312.2000;0.1441;-0.1004;
1312.5000;0.1522;-0.0789;
1312.8000;0.1522;-0.0812;
1313.1000;0.1498;-0.0884;
1313.4000;0.1473;-0.0932;
1313.7000;0.1498;-0.0980;
1314.0000;0.1498;-0.0980;
1314.3000;0.1506;-0.0908;
1314.6000;0.1498;-0.0836;
1314.9000;0.1498;-0.0812;
1315.2000;0.1514;-0.0645;
1315.5000;0.1490;-0.0574;
1315.8000;0.1481;-0.0621;
1316.1000;0.1490;-0.0669;
1316.4000;0.1457;-0.0860;
1316.7000;0.1490;-0.0789;
1317.0000;0.1481;-0.0765;
1317.3000;0.1481;-0.0789;
1317.6000;0.1506;-0.0812;
1317.9000;0.1498;-0.0812;
1318.2000;0.1457;-0.0908;
1318.5000;0.1498;-0.0884;
1318.8000;0.1498;-0.0908;
1319.1000;0.1498;-0.0884;
1319.4000;0.1425;-0.1004;
1319.7000;0.1481;-0.0908;
1320.0000;0.1538;-0.0741;
1320.3000;0.1514;-0.0908;
1320.6000;0.1473;-0.0884;
1320.9000;0.1498;-0.0789;
1321.2000;0.1481;-0.0812;
1321.5000;0.1498;-0.0765;
1321.8000;0.1506;-0.0812;
1322.1000;0.1490;-0.0789;
1322.4000;0.1481;-0.0765;
1322.7000;0.1490;-0.0741;
1323.0000;0.1490;-0.0765;
1323.3000;0.1506;-0.0836;
1323.6000;0.1522;-0.0765;
1323.9000;0.1481;-0.0717;
1324.2000;0.1481;-0.0669;
1324.5000;0.1522;-0.0597;
1324.8000;0.1555;-0.0550;
1325.1000;0.1490;-0.0693;
1325.4000;0.1490;-0.0669;
1325.7000;0.1538;-0.0550;
1326.0000;0.1506;-0.0645;
1326.3000;0.1481;-0.0717;
1326.6000;0.1498;-0.0645;
1326.9000;0.1498;-0.0669;
1327.2000;0.1555;-0.0574;
1327.5000;0.1506;-0.0741;
1327.8000;0.1514;-0.0645;
1328.1000;0.1571;-0.0478;
1328.4000;0.1506;-0.0765;
1328.7000;0.1498;-0.0717;
1329.0000;0.1465;-0.0717;
1329.3000;0.1506;-0.0597;
1329.6000;0.1506;-0.0645;
1329.9000;0.1506;-0.0621;
1330.2000;0.1514;-0.0597;
1330.5000;0.1522;-0.0550;
1330.8000;0.1514;-0.0645;
1331.1000;0.1457;-0.0765;
1331.4000;0.1490;-0.0765;
1331.7000;0.1490;-0.0836;
1332.0000;0.1498;-0.0836;
1332.3000;0.1481;-0.0908;
1332.6000;0.1490;-0.0765;
1332.9000;0.1498;-0.0741;
1333.2000;0.1481;-0.0765;
1333.5000;0.1490;-0.0741;
1333.8000;0.1498;-0.0812;
1334.1000;0.1490;-0.0860;
1334.4000;0.1498;-0.0860;
1334.7000;0.1506;-0.0860;
1335.0000;0.1490;-0.0884;
1335.3000;0.1481;-0.0812;
1335.6000;0.1506;-0.0741;
1335.9000;0.1506;-0.0789;
1336.2000;0.1555;-0.0621;
1336.5000;0.1506;-0.0741;
1336.8000;0.1498;-0.0741;
1337.1000;0.1490;-0.0812;
1337.4000;0.1481;-0.0836;
1337.7000;0.1457;-0.0884;
1338.0000;0.1490;-0.0860;
1338.3000;0.1490;-0.0884;
1338.6000;0.1490;-0.0884;
1338.9000;0.1506;-0.0812;
1339.2000;0.1490;-0.0860;
1339.5000;0.1514;-0.0836;
1339.8000;0.1498;-0.0860;
1340.1000;0.1498;-0.0789;
1340.4000;0.1490;-0.0812;
1340.7000;0.1481;-0.0884;
1341.0000;0.1522;-0.0669;
1341.3000;0.1490;-0.0765;
1341.6000;0.1498;-0.0669;
1341.9000;0.1481;-0.0741;
1342.2000;0.1481;-0.0741;
1342.5000;0.1425;-0.0860;
1342.8000;0.1473;-0.0693;
1343.1000;0.1481;-0.0669;
1343.4000;0.1498;-0.0693;
1343.7000;0.1514;-0.0717;
1344.0000;0.1441;-0.0884;
1344.3000;0.1498;-0.0693;
1344.6000;0.1441;-0.0932;
1344.9000;0.1506;-0.0741;
1345.2000;0.1530;-0.0645;
1345.5000;0.1481;-0.0789;
1345.8000;0.1514;-0.0693;
1346.1000;0.1506;-0.0717;
1346.4000;0.1612;-0.0406;
1346.7000;0.1490;-0.0717;
1347.0000;0.1490;-0.0645;
1347.3000;0.1498;-0.0693;
1347.6000;0.1522;-0.0717;
1347.9000;0.1400;-0.1028;
1348.2000;0.1506;-0.0812;
1348.5000;0.1506;-0.0812;
1348.8000;0.1506;-0.0812;
1349.1000;0.1449;-0.0836;
1349.4000;0.1506;-0.0669;
1349.7000;0.1457;-0.0789;
1350.0000;0.1302;-0.1195;
1350.3000;0.1506;-0.0741;
1350.6000;0.1506;-0.0645;
1350.9000;0.1490;-0.0693;
1351.2000;0.1522;-0.0550;
1351.5000;0.1522;-0.0574;
1351.8000;0.1514;-0.0597;
1352.1000;0.1595;-0.0358;
1352.4000;0.1498;-0.0669;
1352.7000;0.1490;-0.0645;
1353.0000;0.1538;-0.0550;
1353.3000;0.1359;-0.1147;
1353.6000;0.1457;-0.0908;
1353.9000;0.1571;-0.0741;
1354.2000;0.1506;-0.0908;
1354.5000;0.1506;-0.0884;
1354.8000;0.1490;-0.0908;
1355.1000;0.1522;-0.0741;
1355.4000;0.1490;-0.0741;
1355.7000;0.1522;-0.0645;
1356.0000;0.1498;-0.0621;
1356.3000;0.1514;-0.0597;
1356.6000;0.1498;-0.0574;
1356.9000;0.1465;-0.0717;
1357.2000;0.1490;-0.0741;
1357.5000;0.1465;-0.0765;
1357.8000;0.1498;-0.0597;
1358.1000;0.1490;-0.0550;
1358.4000;0.1547;-0.0382;
1358.7000;0.1490;-0.0502;
1359.0000;0.1490;-0.0597;
1359.3000;0.1498;-0.0574;
1359.6000;0.1490;-0.0502;
1359.9000;0.1481;-0.0526;
1360.2000;0.1506;-0.0454;
1360.5000;0.1506;-0.0526;
1360.8000;0.1514;-0.0382;
1361.1000;0.1506;-0.0430;
1361.4000;0.1498;-0.0502;
1361.7000;0.1522;-0.0478;
1362.0000;0.1498;-0.0597;
1362.3000;0.1498;-0.0669;
1362.6000;0.1498;-0.0526;
1362.9000;0.1547;-0.0382;
1363.2000;0.1506;-0.0430;
1363.5000;0.1490;-0.0454;
1363.8000;0.1490;-0.0382;
1364.1000;0.1490;-0.0430;
1364.4000;0.1530;-0.0406;
1364.7000;0.1490;-0.0574;
1365.0000;0.1490;-0.0597;
1365.3000;0.1498;-0.0645;
1365.6000;0.1498;-0.0621;
1365.9000;0.1530;-0.0550;
1366.2000;0.1506;-0.0717;
1366.5000;0.1506;-0.0693;
1366.8000;0.1481;-0.0693;
1367.1000;0.1490;-0.0741;
1367.4000;0.1514;-0.0669;
1367.7000;0.1481;-0.0741;
1368.0000;0.1498;-0.0765;
1368.3000;0.1465;-0.0884;
1368.6000;0.1498;-0.0741;
1368.9000;0.1498;-0.0669;
1369.2000;0.1490;-0.0693;
1369.5000;0.1359;-0.1123;
1369.8000;0.1481;-0.0717;
1370.1000;0.1571;-0.0526;
1370.4000;0.1506;-0.0693;
1370.7000;0.1498;-0.0693;
1371.0000;0.1514;-0.0621;
1371.3000;0.1506;-0.0693;
1371.6000;0.1498;-0.0741;
1371.9000;0.1506;-0.0741;
1372.2000;0.1481;-0.0812;
1372.5000;0.1490;-0.0717;
1372.8000;0.1490;-0.0693;
1373.1000;0.1506;-0.0693;
1373.4000;0.1506;-0.0836;
1373.7000;0.1506;-0.0860;
1374.0000;0.1473;-0.0908;
1374.3000;0.1490;-0.0956;
1374.6000;0.1506;-0.0932;
1374.9000;0.1481;-0.0956;
1375.2000;0.1490;-0.0884;
1375.5000;0.1498;-0.0860;
1375.8000;0.1498;-0.0860;
1376.1000;0.1481;-0.0836;
1376.4000;0.1506;-0.0812;
1376.7000;0.1506;-0.0741;
1377.0000;0.1498;-0.0812;
1377.3000;0.1506;-0.0789;
1377.6000;0.1506;-0.0812;
1377.9000;0.1506;-0.0765;
1378.2000;0.1490;-0.0836;
1378.5000;0.1490;-0.0860;
1378.8000;0.1481;-0.0812;
1379.1000;0.1449;-0.0884;
1379.4000;0.1481;-0.0765;
1379.7000;0.1481;-0.0836;
1380.0000;0.1498;-0.0693;
1380.3000;0.1481;-0.0669;
1380.6000;0.1498;-0.0669;
1380.9000;0.1498;-0.0669;
1381.2000;0.1498;-0.0669;
1381.5000;0.1506;-0.0717;
1381.8000;0.1490;-0.0812;
1382.1000;0.1465;-0.0860;
1382.4000;0.1506;-0.0765;
1382.7000;0.1384;-0.1099;
1383.0000;0.1506;-0.0812;
1383.3000;0.1498;-0.0789;
1383.6000;0.1481;-0.0836;
1383.9000;0.1481;-0.0860;
1384.2000;0.1490;-0.0836;
1384.5000;0.1490;-0.0789;
1384.8000;0.1473;-0.0836;
1385.1000;0.1498;-0.0765;
1385.4000;0.1481;-0.0812;
1385.7000;0.1498;-0.0717;
1386.0000;0.1490;-0.0836;
1386.3000;0.1490;-0.0765;
1386.6000;0.1498;-0.0669;
1386.9000;0.1587;-0.0406;
1387.2000;0.1490;-0.0717;
1387.5000;0.1514;-0.0669;
1387.8000;0.1530;-0.0645;
1388.1000;0.1506;-0.0717;
1388.4000;0.1506;-0.0717;
1388.7000;0.1506;-0.0693;
1389.0000;0.1514;-0.0645;
1389.3000;0.1514;-0.0621;
1389.6000;0.1498;-0.0693;
1389.9000;0.1498;-0.0597;
1390.2000;0.1498;-0.0645;
1390.5000;0.1490;-0.0621;
1390.8000;0.1595;-0.0311;
1391.1000;0.1498;-0.0574;
1391.4000;0.1498;-0.0550;
1391.7000;0.1473;-0.0621;
1392.0000;0.1506;-0.0621;
1392.3000;0.1498;-0.0597;
1392.6000;0.1498;-0.0597;
1392.9000;0.1522;-0.0502;
1393.2000;0.1498;-0.0502;
1393.5000;0.1514;-0.0502;
1393.8000;0.1506;-0.0574;
1394.1000;0.1441;-0.0717;
1394.4000;0.1506;-0.0597;
1394.7000;0.1498;-0.0597;
1395.0000;0.1514;-0.0597;
1395.3000;0.1465;-0.0669;
1395.6000;0.1498;-0.0526;
1395.9000;0.1498;-0.0669;
1396.2000;0.1481;-0.0741;
1396.5000;0.1498;-0.0717;
1396.8000;0.1498;-0.0741;
1397.1000;0.1490;-0.0812;
1397.4000;0.1498;-0.0765;
1397.7000;0.1490;-0.0717;
1398.0000;0.1481;-0.0765;
1398.3000;0.1498;-0.0717;
1398.6000;0.1571;-0.0502;
1398.9000;0.1514;-0.0693;
1399.2000;0.1506;-0.0669;
1399.5000;0.1506;-0.0765;
1399.8000;0.1498;-0.0836;
