time/ms;Fluo/V;P700 deltaI/I x10³;
-199.8000;0.1465;-0.0789;
-199.5000;0.1481;-0.0717;
-199.2000;0.1473;-0.0765;
-198.9000;0.1465;-0.0789;
-198.6000;0.1498;-0.0812;
-198.3000;0.1490;-0.0860;
-198.0000;0.1481;-0.0884;
-197.7000;0.1481;-0.0836;
-197.4000;0.1490;-0.0789;
-197.1000;0.1473;-0.0932;
-196.8000;0.1465;-0.0956;
-196.5000;0.1481;-0.0932;
-196.2000;0.1490;-0.0932;
-195.9000;0.1481;-0.0908;
-195.6000;0.1481;-0.0812;
-195.3000;0.1457;-0.0812;
-195.0000;0.1481;-0.0741;
-194.7000;0.1457;-0.0765;
-194.4000;0.1457;-0.0789;
-194.1000;0.1490;-0.0717;
-193.8000;0.1465;-0.0860;
-193.5000;0.1571;-0.0621;
-193.2000;0.1473;-0.0884;
-192.9000;0.1400;-0.1123;
-192.6000;0.1473;-0.0860;
-192.3000;0.1465;-0.0812;
-192.0000;0.1457;-0.0884;
-191.7000;0.1481;-0.0765;
-191.4000;0.1473;-0.0717;
-191.1000;0.1465;-0.0669;
-190.8000;0.1490;-0.0621;
-190.5000;0.1490;-0.0645;
-190.2000;0.1473;-0.0574;
-189.9000;0.1473;-0.0669;
-189.6000;0.1465;-0.0741;
-189.3000;0.1376;-0.1075;
-189.0000;0.1465;-0.0884;
-188.7000;0.1465;-0.0836;
-188.4000;0.1465;-0.0860;
-188.1000;0.1441;-0.0956;
-187.8000;0.1481;-0.0860;
-187.5000;0.1465;-0.0908;
-187.2000;0.1473;-0.0884;
-186.9000;0.1473;-0.0789;
-186.6000;0.1481;-0.0741;
-186.3000;0.1457;-0.0789;
-186.0000;0.1465;-0.0812;
-185.7000;0.1465;-0.0765;
-185.4000;0.1481;-0.0789;
-185.1000;0.1490;-0.0789;
-184.8000;0.1441;-0.0932;
-184.5000;0.1465;-0.0932;
-184.2000;0.1465;-0.1004;
-183.9000;0.1376;-0.1314;
-183.6000;0.1457;-0.1004;
-183.3000;0.1457;-0.1075;
-183.0000;0.1457;-0.1028;
-182.7000;0.1457;-0.1004;
-182.4000;0.1457;-0.0980;
-182.1000;0.1498;-0.0860;
-181.8000;0.1490;-0.0860;
-181.5000;0.1481;-0.0836;
-181.2000;0.1481;-0.0932;
-180.9000;0.1555;-0.0836;
-180.6000;0.1465;-0.0956;
-180.3000;0.1490;-0.0956;
-180.0000;0.1465;-0.1004;
-179.7000;0.1473;-0.1028;
-179.4000;0.1457;-0.0932;
-179.1000;0.1449;-0.1099;
-178.8000;0.1441;-0.1123;
-178.5000;0.1465;-0.0980;
-178.2000;0.1433;-0.0956;
-177.9000;0.1481;-0.0884;
-177.6000;0.1473;-0.0860;
-177.3000;0.1473;-0.0884;
-177.0000;0.1457;-0.0860;
-176.7000;0.1473;-0.0836;
-176.4000;0.1481;-0.0836;
-176.1000;0.1441;-0.0980;
-175.8000;0.1490;-0.0932;
-175.5000;0.1490;-0.0884;
-175.2000;0.1400;-0.1290;
-174.9000;0.1481;-0.1028;
-174.6000;0.1473;-0.1123;
-174.3000;0.1498;-0.0956;
-174.0000;0.1465;-0.1075;
-173.7000;0.1457;-0.1123;
-173.4000;0.1473;-0.1171;
-173.1000;0.1490;-0.1099;
-172.8000;0.1449;-0.1171;
-172.5000;0.1465;-0.1123;
-172.2000;0.1563;-0.0860;
-171.9000;0.1441;-0.1147;
-171.6000;0.1473;-0.1075;
-171.3000;0.1384;-0.1219;
-171.0000;0.1490;-0.0932;
-170.7000;0.1473;-0.0932;
-170.4000;0.1457;-0.1004;
-170.1000;0.1457;-0.1004;
-169.8000;0.1473;-0.1051;
-169.5000;0.1506;-0.0980;
-169.2000;0.1433;-0.1147;
-168.9000;0.1530;-0.0932;
-168.6000;0.1473;-0.1004;
-168.3000;0.1473;-0.0980;
-168.0000;0.1441;-0.1195;
-167.7000;0.1457;-0.1099;
-167.4000;0.1522;-0.0908;
-167.1000;0.1457;-0.1147;
-166.8000;0.1473;-0.1147;
-166.5000;0.1481;-0.1099;
-166.2000;0.1506;-0.1028;
-165.9000;0.1473;-0.1099;
-165.6000;0.1457;-0.1051;
-165.3000;0.1408;-0.1171;
-165.0000;0.1473;-0.1099;
-164.7000;0.1490;-0.1147;
-164.4000;0.1506;-0.1099;
-164.1000;0.1481;-0.1195;
-163.8000;0.1465;-0.1243;
-163.5000;0.1490;-0.1243;
-163.2000;0.1465;-0.1266;
-162.9000;0.1441;-0.1314;
-162.6000;0.1473;-0.1290;
-162.3000;0.1433;-0.1386;
-162.0000;0.1481;-0.1243;
-161.7000;0.1408;-0.1338;
-161.4000;0.1481;-0.1171;
-161.1000;0.1490;-0.1171;
-160.8000;0.1473;-0.1147;
-160.5000;0.1473;-0.1171;
-160.2000;0.1481;-0.1219;
-159.9000;0.1490;-0.1147;
-159.6000;0.1465;-0.1171;
-159.3000;0.1481;-0.1099;
-159.0000;0.1481;-0.1147;
-158.7000;0.1481;-0.1147;
-158.4000;0.1481;-0.1123;
-158.1000;0.1473;-0.1099;
-157.8000;0.1465;-0.1004;
-157.5000;0.1473;-0.0956;
-157.2000;0.1490;-0.0884;
-156.9000;0.1473;-0.1051;
-156.6000;0.1465;-0.1099;
-156.3000;0.1449;-0.1123;
-156.0000;0.1465;-0.0980;
-155.7000;0.1433;-0.1004;
-155.4000;0.1457;-0.0908;
-155.1000;0.1490;-0.0860;
-154.8000;0.1498;-0.0884;
-154.5000;0.1506;-0.0860;
-154.2000;0.1473;-0.1028;
-153.9000;0.1473;-0.1004;
-153.6000;0.1473;-0.1051;
-153.3000;0.1490;-0.0980;
-153.0000;0.1433;-0.1075;
-152.7000;0.1473;-0.1004;
-152.4000;0.1465;-0.0980;
-152.1000;0.1465;-0.0836;
-151.8000;0.1457;-0.0932;
-151.5000;0.1481;-0.0956;
-151.2000;0.1481;-0.0956;
-150.9000;0.1473;-0.0932;
-150.6000;0.1465;-0.0908;
-150.3000;0.1465;-0.0908;
-150.0000;0.1473;-0.0908;
-149.7000;0.1473;-0.0908;
-149.4000;0.1498;-0.0908;
-149.1000;0.1465;-0.1099;
-148.8000;0.1473;-0.1099;
-148.5000;0.1481;-0.1051;
-148.2000;0.1457;-0.1099;
-147.9000;0.1473;-0.1051;
-147.6000;0.1465;-0.1075;
-147.3000;0.1408;-0.1147;
-147.0000;0.1481;-0.0956;
-146.7000;0.1481;-0.0956;
-146.4000;0.1376;-0.1219;
-146.1000;0.1473;-0.0980;
-145.8000;0.1449;-0.1028;
-145.5000;0.1473;-0.0932;
-145.2000;0.1425;-0.1075;
-144.9000;0.1498;-0.0908;
-144.6000;0.1457;-0.1004;
-144.3000;0.1457;-0.0980;
-144.0000;0.1481;-0.0884;
-143.7000;0.1449;-0.0980;
-143.4000;0.1490;-0.0860;
-143.1000;0.1563;-0.0693;
-142.8000;0.1490;-0.0860;
-142.5000;0.1555;-0.0597;
-142.2000;0.1538;-0.0550;
-141.9000;0.1457;-0.0765;
-141.6000;0.1547;-0.0478;
-141.3000;0.1465;-0.0741;
-141.0000;0.1465;-0.0884;
-140.7000;0.1490;-0.0836;
-140.4000;0.1449;-0.0908;
-140.1000;0.1530;-0.0741;
-139.8000;0.1457;-0.0956;
-139.5000;0.1457;-0.0884;
-139.2000;0.1473;-0.0765;
-138.9000;0.1481;-0.0717;
-138.6000;0.1465;-0.0789;
-138.3000;0.1473;-0.0812;
-138.0000;0.1481;-0.0765;
-137.7000;0.1473;-0.0645;
-137.4000;0.1425;-0.0836;
-137.1000;0.1481;-0.0741;
-136.8000;0.1473;-0.0789;
-136.5000;0.1481;-0.0789;
-136.2000;0.1473;-0.0765;
-135.9000;0.1457;-0.0812;
-135.6000;0.1441;-0.0908;
-135.3000;0.1490;-0.0860;
-135.0000;0.1547;-0.0765;
-134.7000;0.1465;-0.0860;
-134.4000;0.1408;-0.0980;
-134.1000;0.1473;-0.0836;
-133.8000;0.1465;-0.0884;
-133.5000;0.1473;-0.0836;
-133.2000;0.1498;-0.0812;
-132.9000;0.1473;-0.0812;
-132.6000;0.1490;-0.0789;
-132.3000;0.1473;-0.0860;
-132.0000;0.1457;-0.0860;
-131.7000;0.1481;-0.0884;
-131.4000;0.1481;-0.0836;
-131.1000;0.1481;-0.0836;
-130.8000;0.1473;-0.0717;
-130.5000;0.1490;-0.0717;
-130.2000;0.1457;-0.0765;
-129.9000;0.1481;-0.0597;
-129.6000;0.1457;-0.0741;
-129.3000;0.1473;-0.0741;
-129.0000;0.1449;-0.0860;
-128.7000;0.1457;-0.0884;
-128.4000;0.1473;-0.0860;
-128.1000;0.1465;-0.0860;
-127.8000;0.1392;-0.1051;
-127.5000;0.1473;-0.0812;
-127.2000;0.1481;-0.0812;
-126.9000;0.1473;-0.0836;
-126.6000;0.1465;-0.0884;
-126.3000;0.1506;-0.0812;
-126.0000;0.1481;-0.0884;
-125.7000;0.1481;-0.0932;
-125.4000;0.1465;-0.1004;
-125.1000;0.1555;-0.0741;
-124.8000;0.1457;-0.0956;
-124.5000;0.1473;-0.0836;
-124.2000;0.1425;-0.0932;
-123.9000;0.1473;-0.0836;
-123.6000;0.1449;-0.0956;
-123.3000;0.1473;-0.0836;
-123.0000;0.1481;-0.0789;
-122.7000;0.1473;-0.0884;
-122.4000;0.1481;-0.0884;
-122.1000;0.1473;-0.0884;
-121.8000;0.1416;-0.1123;
-121.5000;0.1473;-0.1028;
-121.2000;0.1490;-0.0932;
-120.9000;0.1490;-0.1028;
-120.6000;0.1473;-0.1051;
-120.3000;0.1490;-0.1028;
-120.0000;0.1473;-0.1051;
-119.7000;0.1473;-0.1004;
-119.4000;0.1481;-0.0980;
-119.1000;0.1473;-0.1004;
-118.8000;0.1473;-0.0956;
-118.5000;0.1465;-0.1051;
-118.2000;0.1465;-0.0956;
-117.9000;0.1465;-0.0956;
-117.6000;0.1473;-0.1075;
-117.3000;0.1481;-0.1051;
-117.0000;0.1498;-0.0932;
-116.7000;0.1490;-0.0956;
-116.4000;0.1457;-0.1028;
-116.1000;0.1416;-0.1171;
-115.8000;0.1473;-0.1051;
-115.5000;0.1473;-0.1075;
-115.2000;0.1490;-0.0956;
-114.9000;0.1481;-0.1028;
-114.6000;0.1490;-0.0980;
-114.3000;0.1490;-0.1004;
-114.0000;0.1490;-0.0932;
-113.7000;0.1481;-0.0980;
-113.4000;0.1538;-0.0884;
-113.1000;0.1457;-0.1004;
-112.8000;0.1425;-0.1028;
-112.5000;0.1498;-0.0717;
-112.2000;0.1449;-0.0908;
-111.9000;0.1490;-0.0812;
-111.6000;0.1473;-0.0860;
-111.3000;0.1416;-0.1028;
-111.0000;0.1538;-0.0765;
-110.7000;0.1481;-0.0908;
-110.4000;0.1457;-0.1004;
-110.1000;0.1490;-0.0884;
-109.8000;0.1433;-0.0908;
-109.5000;0.1465;-0.0836;
-109.2000;0.1473;-0.0812;
-108.9000;0.1473;-0.0836;
-108.6000;0.1481;-0.0908;
-108.3000;0.1498;-0.0812;
-108.0000;0.1490;-0.0836;
-107.7000;0.1473;-0.0908;
-107.4000;0.1449;-0.0980;
-107.1000;0.1465;-0.1028;
-106.8000;0.1490;-0.1075;
-106.5000;0.1481;-0.1099;
-106.2000;0.1473;-0.1123;
-105.9000;0.1473;-0.1051;
-105.6000;0.1457;-0.1004;
-105.3000;0.1465;-0.1051;
-105.0000;0.1490;-0.1004;
-104.7000;0.1368;-0.1314;
-104.4000;0.1473;-0.0980;
-104.1000;0.1473;-0.0980;
-103.8000;0.1465;-0.1028;
-103.5000;0.1457;-0.1028;
-103.2000;0.1506;-0.1028;
-102.9000;0.1514;-0.1028;
-102.6000;0.1481;-0.1219;
-102.3000;0.1498;-0.1314;
-102.0000;0.1481;-0.1386;
-101.7000;0.1579;-0.1171;
-101.4000;0.1530;-0.1266;
-101.1000;0.1481;-0.1386;
-100.8000;0.1514;-0.1243;
-100.5000;0.1473;-0.1290;
-100.2000;0.1538;-0.0980;
-99.9000;0.1481;-0.1171;
-99.6000;0.1490;-0.1147;
-99.3000;0.1481;-0.1123;
-99.0000;0.1481;-0.1028;
-98.7000;0.1498;-0.0980;
-98.4000;0.1490;-0.1004;
-98.1000;0.1481;-0.1051;
-97.8000;0.1465;-0.1051;
-97.5000;0.1465;-0.1028;
-97.2000;0.1441;-0.1051;
-96.9000;0.1425;-0.1028;
-96.6000;0.1490;-0.0884;
-96.3000;0.1481;-0.0836;
-96.0000;0.1490;-0.0836;
-95.7000;0.1506;-0.0765;
-95.4000;0.1481;-0.0812;
-95.1000;0.1457;-0.0836;
-94.8000;0.1490;-0.0693;
-94.5000;0.1465;-0.0693;
-94.2000;0.1481;-0.0669;
-93.9000;0.1530;-0.0597;
-93.6000;0.1490;-0.0669;
-93.3000;0.1481;-0.0717;
-93.0000;0.1490;-0.0765;
-92.7000;0.1473;-0.0932;
-92.4000;0.1473;-0.0908;
-92.1000;0.1579;-0.0693;
-91.8000;0.1481;-0.0932;
-91.5000;0.1490;-0.0956;
-91.2000;0.1481;-0.0956;
-90.9000;0.1473;-0.0956;
-90.6000;0.1433;-0.0956;
-90.3000;0.1457;-0.0836;
-90.0000;0.1481;-0.0836;
-89.7000;0.1481;-0.0884;
-89.4000;0.1490;-0.0717;
-89.1000;0.1473;-0.0765;
-88.8000;0.1628;-0.0406;
-88.5000;0.1498;-0.0836;
-88.2000;0.1498;-0.0741;
-87.9000;0.1481;-0.0789;
-87.6000;0.1490;-0.0932;
-87.3000;0.1473;-0.0980;
-87.0000;0.1481;-0.1004;
-86.7000;0.1498;-0.0932;
-86.4000;0.1481;-0.0860;
-86.1000;0.1490;-0.0932;
-85.8000;0.1425;-0.1099;
-85.5000;0.1457;-0.1028;
-85.2000;0.1490;-0.1004;
-84.9000;0.1490;-0.1075;
-84.6000;0.1490;-0.1051;
-84.3000;0.1498;-0.1004;
-84.0000;0.1481;-0.1051;
-83.7000;0.1490;-0.1004;
-83.4000;0.1481;-0.1099;
-83.1000;0.1473;-0.1123;
-82.8000;0.1481;-0.1099;
-82.5000;0.1498;-0.1028;
-82.2000;0.1473;-0.1051;
-81.9000;0.1490;-0.1051;
-81.6000;0.1473;-0.1075;
-81.3000;0.1481;-0.1028;
-81.0000;0.1416;-0.1171;
-80.7000;0.1457;-0.1004;
-80.4000;0.1473;-0.0956;
-80.1000;0.1449;-0.1028;
-79.8000;0.1465;-0.0956;
-79.5000;0.1465;-0.0932;
-79.2000;0.1457;-0.0980;
-78.9000;0.1473;-0.0908;
-78.6000;0.1538;-0.0645;
-78.3000;0.1555;-0.0669;
-78.0000;0.1473;-0.0908;
-77.7000;0.1457;-0.0956;
-77.4000;0.1465;-0.1004;
-77.1000;0.1514;-0.0860;
-76.8000;0.1498;-0.0884;
-76.5000;0.1465;-0.1075;
-76.2000;0.1530;-0.0884;
-75.9000;0.1490;-0.0980;
-75.6000;0.1498;-0.1004;
-75.3000;0.1514;-0.0884;
-75.0000;0.1449;-0.1099;
-74.7000;0.1465;-0.1004;
-74.4000;0.1368;-0.1243;
-74.1000;0.1433;-0.1147;
-73.8000;0.1457;-0.1028;
-73.5000;0.1465;-0.1004;
-73.2000;0.1636;-0.0597;
-72.9000;0.1441;-0.1099;
-72.6000;0.1506;-0.0908;
-72.3000;0.1547;-0.0717;
-72.0000;0.1506;-0.0789;
-71.7000;0.1392;-0.1147;
-71.4000;0.1481;-0.0908;
-71.1000;0.1457;-0.1004;
-70.8000;0.1473;-0.0932;
-70.5000;0.1514;-0.0908;
-70.2000;0.1465;-0.0932;
-69.9000;0.1481;-0.0884;
-69.6000;0.1473;-0.0956;
-69.3000;0.1490;-0.0980;
-69.0000;0.1473;-0.1028;
-68.7000;0.1449;-0.1075;
-68.4000;0.1457;-0.1051;
-68.1000;0.1490;-0.1051;
-67.8000;0.1498;-0.1171;
-67.5000;0.1522;-0.1099;
-67.2000;0.1490;-0.1123;
-66.9000;0.1498;-0.1099;
-66.6000;0.1498;-0.1051;
-66.3000;0.1465;-0.1099;
-66.0000;0.1490;-0.1099;
-65.7000;0.1490;-0.1075;
-65.4000;0.1457;-0.1195;
-65.1000;0.1490;-0.1195;
-64.8000;0.1481;-0.1147;
-64.5000;0.1481;-0.1147;
-64.2000;0.1514;-0.1028;
-63.9000;0.1481;-0.1123;
-63.6000;0.1506;-0.1147;
-63.3000;0.1473;-0.1195;
-63.0000;0.1490;-0.1123;
-62.7000;0.1490;-0.1171;
-62.4000;0.1490;-0.1147;
-62.1000;0.1481;-0.1147;
-61.8000;0.1473;-0.1195;
-61.5000;0.1579;-0.0932;
-61.2000;0.1490;-0.1195;
-60.9000;0.1473;-0.1195;
-60.6000;0.1481;-0.1171;
-60.3000;0.1490;-0.1243;
-60.0000;0.1481;-0.1171;
-59.7000;0.1490;-0.1051;
-59.4000;0.1481;-0.1123;
-59.1000;0.1522;-0.1028;
-58.8000;0.1490;-0.1123;
-58.5000;0.1473;-0.1219;
-58.2000;0.1481;-0.1195;
-57.9000;0.1506;-0.1195;
-57.6000;0.1490;-0.1266;
-57.3000;0.1473;-0.1338;
-57.0000;0.1490;-0.1362;
-56.7000;0.1490;-0.1266;
-56.4000;0.1465;-0.1266;
-56.1000;0.1498;-0.1051;
-55.8000;0.1587;-0.0789;
-55.5000;0.1506;-0.1028;
-55.2000;0.1506;-0.1075;
-54.9000;0.1481;-0.1123;
-54.6000;0.1473;-0.1147;
-54.3000;0.1465;-0.1147;
-54.0000;0.1514;-0.0956;
-53.7000;0.1481;-0.1028;
-53.4000;0.1498;-0.0980;
-53.1000;0.1457;-0.1028;
-52.8000;0.1481;-0.0980;
-52.5000;0.1490;-0.1028;
-52.2000;0.1473;-0.1004;
-51.9000;0.1465;-0.1028;
-51.6000;0.1473;-0.0908;
-51.3000;0.1481;-0.0956;
-51.0000;0.1498;-0.0932;
-50.7000;0.1457;-0.1028;
-50.4000;0.1473;-0.0932;
-50.1000;0.1384;-0.1171;
-49.8000;0.1481;-0.0932;
-49.5000;0.1481;-0.0932;
-49.2000;0.1490;-0.0908;
-48.9000;0.1514;-0.0812;
-48.6000;0.1490;-0.0908;
-48.3000;0.1473;-0.0956;
-48.0000;0.1441;-0.1075;
-47.7000;0.1473;-0.0980;
-47.4000;0.1490;-0.0908;
-47.1000;0.1465;-0.0980;
-46.8000;0.1498;-0.0956;
-46.5000;0.1490;-0.0956;
-46.2000;0.1490;-0.1051;
-45.9000;0.1506;-0.1051;
-45.6000;0.1481;-0.1051;
-45.3000;0.1522;-0.0884;
-45.0000;0.1490;-0.0932;
-44.7000;0.1473;-0.1075;
-44.4000;0.1490;-0.0956;
-44.1000;0.1490;-0.1028;
-43.8000;0.1490;-0.1123;
-43.5000;0.1481;-0.1147;
-43.2000;0.1481;-0.1123;
-42.9000;0.1441;-0.1219;
-42.6000;0.1457;-0.1123;
-42.3000;0.1457;-0.1123;
-42.0000;0.1457;-0.1195;
-41.7000;0.1400;-0.1338;
-41.4000;0.1490;-0.1099;
-41.1000;0.1490;-0.1123;
-40.8000;0.1514;-0.1028;
-40.5000;0.1465;-0.1219;
-40.2000;0.1473;-0.1219;
-39.9000;0.1490;-0.1123;
-39.6000;0.1514;-0.0980;
-39.3000;0.1571;-0.0884;
-39.0000;0.1506;-0.1004;
-38.7000;0.1481;-0.1004;
-38.4000;0.1498;-0.0884;
-38.1000;0.1506;-0.0884;
-37.8000;0.1481;-0.1004;
-37.5000;0.1465;-0.1004;
-37.2000;0.1465;-0.1075;
-36.9000;0.1457;-0.1195;
-36.6000;0.1457;-0.1171;
-36.3000;0.1465;-0.1123;
-36.0000;0.1473;-0.1147;
-35.7000;0.1481;-0.1099;
-35.4000;0.1490;-0.1075;
-35.1000;0.1416;-0.1314;
-34.8000;0.1481;-0.1075;
-34.5000;0.1490;-0.1171;
-34.2000;0.1498;-0.1219;
-33.9000;0.1473;-0.1147;
-33.6000;0.1481;-0.1099;
-33.3000;0.1490;-0.1075;
-33.0000;0.1425;-0.1219;
-32.7000;0.1490;-0.1123;
-32.4000;0.1473;-0.1147;
-32.1000;0.1481;-0.1195;
-31.8000;0.1490;-0.1290;
-31.5000;0.1490;-0.1338;
-31.2000;0.1449;-0.1410;
-30.9000;0.1465;-0.1362;
-30.6000;0.1490;-0.1195;
-30.3000;0.1465;-0.1123;
-30.0000;0.1506;-0.1075;
-29.7000;0.1481;-0.1099;
-29.4000;0.1490;-0.1147;
-29.1000;0.1481;-0.1147;
-28.8000;0.1457;-0.1147;
-28.5000;0.1481;-0.1075;
-28.2000;0.1473;-0.1075;
-27.9000;0.1498;-0.0956;
-27.6000;0.1473;-0.1004;
-27.3000;0.1481;-0.1004;
-27.0000;0.1473;-0.0956;
-26.7000;0.1473;-0.0980;
-26.4000;0.1481;-0.0956;
-26.1000;0.1465;-0.1051;
-25.8000;0.1506;-0.0908;
-25.5000;0.1490;-0.1004;
-25.2000;0.1465;-0.0980;
-24.9000;0.1571;-0.0717;
-24.6000;0.1481;-0.1028;
-24.3000;0.1498;-0.0932;
-24.0000;0.1506;-0.0956;
-23.7000;0.1481;-0.1028;
-23.4000;0.1473;-0.0932;
-23.1000;0.1490;-0.0860;
-22.8000;0.1498;-0.0884;
-22.5000;0.1522;-0.0884;
-22.2000;0.1481;-0.0956;
-21.9000;0.1498;-0.0980;
-21.6000;0.1490;-0.1099;
-21.3000;0.1457;-0.1171;
-21.0000;0.1530;-0.1028;
-20.7000;0.1490;-0.1171;
-20.4000;0.1481;-0.1243;
-20.1000;0.1473;-0.1219;
-19.8000;0.1481;-0.1147;
-19.5000;0.1416;-0.1243;
-19.2000;0.1498;-0.1028;
-18.9000;0.1481;-0.1004;
-18.6000;0.1490;-0.1028;
-18.3000;0.1441;-0.1219;
-18.0000;0.1408;-0.1314;
-17.7000;0.1490;-0.1099;
-17.4000;0.1490;-0.1147;
-17.1000;0.1465;-0.1243;
-16.8000;0.1514;-0.1147;
-16.5000;0.1498;-0.1123;
-16.2000;0.1490;-0.1051;
-15.9000;0.1530;-0.0980;
-15.6000;0.1490;-0.1099;
-15.3000;0.1425;-0.1266;
-15.0000;0.1481;-0.1147;
-14.7000;0.1481;-0.1147;
-14.4000;0.1465;-0.1123;
-14.1000;0.1465;-0.1171;
-13.8000;0.1473;-0.1147;
-13.5000;0.1481;-0.1075;
-13.2000;0.1465;-0.1028;
-12.9000;0.1481;-0.0908;
-12.6000;0.1498;-0.0836;
-12.3000;0.1498;-0.0908;
-12.0000;0.1498;-0.1028;
-11.7000;0.1490;-0.1075;
-11.4000;0.1506;-0.1051;
-11.1000;0.1481;-0.1075;
-10.8000;0.1465;-0.1123;
-10.5000;0.1490;-0.1099;
-10.2000;0.1449;-0.1171;
-9.9000;0.1595;-0.0717;
-9.6000;0.1490;-0.1028;
-9.3000;0.1473;-0.1099;
-9.0000;0.1498;-0.1051;
-8.7000;0.1498;-0.1028;
-8.4000;0.1547;-0.0860;
-8.1000;0.1473;-0.0956;
-7.8000;0.1481;-0.0980;
-7.5000;0.1490;-0.1004;
-7.2000;0.1490;-0.1004;
-6.9000;0.1457;-0.1195;
-6.6000;0.1481;-0.1171;
-6.3000;0.1481;-0.1290;
-6.0000;0.1490;-0.1147;
-5.7000;0.1473;-0.1171;
-5.4000;0.1506;-0.1051;
-5.1000;0.1490;-0.1075;
-4.8000;0.1481;-0.1051;
-4.5000;0.1473;-0.1099;
-4.2000;0.1473;-0.1171;
-3.9000;0.1400;-0.1386;
-3.6000;0.1490;-0.1123;
-3.3000;0.1498;-0.1028;
-3.0000;0.1490;-0.1099;
-2.7000;0.1465;-0.1171;
-2.4000;0.1473;-0.1099;
-2.1000;0.1473;-0.1075;
-1.8000;0.1473;-0.1075;
-1.5000;0.1473;-0.1099;
-1.2000;0.1498;-0.1028;
-0.9000;0.1481;-0.1004;
-0.6000;0.1498;-0.1075;
-0.3000;0.1465;-0.1147;
0.0000;0.1465;-0.1147;
0.3000;0.1498;-0.1458;
0.6000;0.1481;-0.1362;
0.9000;0.1490;-0.1266;
1.2000;0.1498;-0.1195;
1.5000;0.1498;-0.1004;
1.8000;0.1514;-0.0932;
2.1000;0.1636;-0.0574;
2.4000;0.1538;-0.0741;
2.7000;0.1547;-0.0597;
3.0000;0.1547;-0.0550;
3.3000;0.1433;-0.0717;
3.6000;0.1530;-0.0358;
3.9000;0.1538;-0.0191;
4.2000;0.1661;0.0167;
4.5000;0.1538;-0.0143;
4.8000;0.1538;-0.0096;
5.1000;0.1498;-0.0191;
5.4000;0.1547;-0.0096;
5.7000;0.1457;-0.0358;
6.0000;0.1457;-0.0263;
6.3000;0.1530;0.0024;
6.6000;0.1538;0.0024;
6.9000;0.1547;-0.0024;
7.2000;0.1530;-0.0048;
7.5000;0.1522;-0.0048;
7.8000;0.1538;0.0048;
8.1000;0.1547;0.0000;
8.4000;0.1644;0.0263;
8.7000;0.1563;0.0024;
9.0000;0.1555;0.0000;
9.3000;0.1571;0.0024;
9.6000;0.1555;0.0096;
9.9000;0.1498;0.0072;
10.2000;0.1530;0.0096;
10.5000;0.1604;0.0263;
10.8000;0.1530;0.0167;
11.1000;0.1612;0.0263;
11.4000;0.1538;0.0024;
11.7000;0.1530;-0.0072;
12.0000;0.1555;-0.0072;
12.3000;0.1530;-0.0143;
12.6000;0.1538;-0.0191;
12.9000;0.1538;-0.0143;
13.2000;0.1530;-0.0239;
13.5000;0.1530;-0.0096;
13.8000;0.1563;-0.0024;
14.1000;0.1538;-0.0072;
14.4000;0.1636;0.0072;
14.7000;0.1571;-0.0048;
15.0000;0.1555;-0.0048;
15.3000;0.1498;-0.0167;
15.6000;0.1490;-0.0263;
15.9000;0.1636;0.0191;
16.2000;0.1547;0.0072;
16.5000;0.1547;0.0096;
16.8000;0.1579;0.0191;
17.1000;0.1538;0.0096;
17.4000;0.1538;0.0096;
17.7000;0.1612;0.0358;
18.0000;0.1555;0.0024;
18.3000;0.1563;0.0096;
18.6000;0.1563;0.0048;
18.9000;0.1636;0.0287;
19.2000;0.1522;0.0072;
19.5000;0.1538;0.0072;
19.8000;0.1563;0.0096;
20.1000;0.1579;0.0119;
20.4000;0.1571;-0.0024;
20.7000;0.1547;-0.0048;
21.0000;0.1563;-0.0024;
21.3000;0.1571;0.0024;
21.6000;0.1547;-0.0048;
21.9000;0.1547;-0.0072;
22.2000;0.1547;-0.0072;
22.5000;0.1571;0.0096;
22.8000;0.1587;0.0167;
23.1000;0.1514;-0.0072;
23.4000;0.1571;0.0119;
23.7000;0.1498;-0.0072;
24.0000;0.1563;0.0072;
24.3000;0.1595;0.0215;
24.6000;0.1571;0.0096;
24.9000;0.1555;0.0119;
25.2000;0.1571;0.0096;
25.5000;0.1571;0.0119;
25.8000;0.1555;0.0096;
26.1000;0.1579;0.0215;
26.4000;0.1563;0.0191;
26.7000;0.1555;0.0239;
27.0000;0.1547;0.0119;
27.3000;0.1555;0.0119;
27.6000;0.1563;0.0119;
27.9000;0.1522;0.0048;
28.2000;0.1530;0.0024;
28.5000;0.1490;-0.0072;
28.8000;0.1522;0.0072;
29.1000;0.1530;0.0167;
29.4000;0.1538;0.0239;
29.7000;0.1547;0.0215;
30.0000;0.1547;0.0119;
30.3000;0.1587;0.0167;
30.6000;0.1547;0.0072;
30.9000;0.1547;0.0000;
31.2000;0.1547;0.0119;
31.5000;0.1514;0.0048;
31.8000;0.1547;0.0143;
32.1000;0.1490;0.0000;
32.4000;0.1530;0.0191;
32.7000;0.1555;0.0215;
33.0000;0.1604;0.0311;
33.3000;0.1555;0.0167;
33.6000;0.1530;0.0096;
33.9000;0.1571;0.0167;
34.2000;0.1563;0.0215;
34.5000;0.1538;0.0048;
34.8000;0.1547;-0.0072;
35.1000;0.1563;-0.0048;
35.4000;0.1669;0.0311;
35.7000;0.1669;0.0287;
36.0000;0.1522;-0.0143;
36.3000;0.1563;-0.0024;
36.6000;0.1547;0.0000;
36.9000;0.1555;-0.0024;
37.2000;0.1636;0.0215;
37.5000;0.1571;0.0072;
37.8000;0.1587;0.0024;
38.1000;0.1538;-0.0096;
38.4000;0.1595;0.0096;
38.7000;0.1571;0.0048;
39.0000;0.1555;-0.0048;
39.3000;0.1538;0.0024;
39.6000;0.1514;0.0048;
39.9000;0.1563;0.0191;
40.2000;0.1522;0.0167;
40.5000;0.1595;0.0335;
40.8000;0.1530;0.0167;
41.1000;0.1538;0.0167;
41.4000;0.1555;0.0167;
41.7000;0.1579;0.0191;
42.0000;0.1563;0.0119;
42.3000;0.1571;0.0191;
42.6000;0.1571;0.0119;
42.9000;0.1652;0.0335;
43.2000;0.1522;0.0000;
43.5000;0.1563;0.0119;
43.8000;0.1457;-0.0167;
44.1000;0.1579;0.0143;
44.4000;0.1563;0.0096;
44.7000;0.1506;-0.0096;
45.0000;0.1563;0.0048;
45.3000;0.1547;0.0072;
45.6000;0.1563;0.0143;
45.9000;0.1506;-0.0048;
46.2000;0.1538;0.0000;
46.5000;0.1563;0.0096;
46.8000;0.1563;0.0072;
47.1000;0.1587;0.0167;
47.4000;0.1571;0.0072;
47.7000;0.1579;0.0143;
48.0000;0.1547;0.0143;
48.3000;0.1571;0.0287;
48.6000;0.1547;0.0167;
48.9000;0.1555;0.0215;
49.2000;0.1547;0.0191;
49.5000;0.1555;0.0239;
49.8000;0.1530;0.0215;
50.1000;0.1530;0.0191;
50.4000;0.1547;0.0167;
50.7000;0.1579;0.0263;
51.0000;0.1538;0.0215;
51.3000;0.1628;0.0406;
51.6000;0.1547;0.0191;
51.9000;0.1538;0.0143;
52.2000;0.1547;0.0215;
52.5000;0.1587;0.0382;
52.8000;0.1547;0.0287;
53.1000;0.1555;0.0239;
53.4000;0.1587;0.0311;
53.7000;0.1547;0.0239;
54.0000;0.1538;0.0191;
54.3000;0.1498;0.0096;
54.6000;0.1547;0.0263;
54.9000;0.1538;0.0263;
55.2000;0.1530;0.0215;
55.5000;0.1587;0.0382;
55.8000;0.1563;0.0191;
56.1000;0.1498;-0.0048;
56.4000;0.1506;0.0024;
56.7000;0.1547;0.0167;
57.0000;0.1579;0.0287;
57.3000;0.1563;0.0215;
57.6000;0.1547;0.0072;
57.9000;0.1473;-0.0096;
58.2000;0.1530;0.0024;
58.5000;0.1555;-0.0024;
58.8000;0.1465;-0.0239;
59.1000;0.1538;-0.0024;
59.4000;0.1538;0.0000;
59.7000;0.1530;0.0072;
60.0000;0.1538;0.0096;
60.3000;0.1522;-0.0024;
60.6000;0.1547;0.0096;
60.9000;0.1571;0.0215;
61.2000;0.1530;0.0287;
61.5000;0.1530;0.0406;
61.8000;0.1538;0.0478;
62.1000;0.1547;0.0478;
62.4000;0.1595;0.0478;
62.7000;0.1555;0.0382;
63.0000;0.1555;0.0406;
63.3000;0.1538;0.0311;
63.6000;0.1547;0.0239;
63.9000;0.1563;0.0215;
64.2000;0.1547;0.0239;
64.5000;0.1538;0.0239;
64.8000;0.1522;0.0191;
65.1000;0.1563;0.0335;
65.4000;0.1555;0.0263;
65.7000;0.1522;0.0119;
66.0000;0.1555;0.0143;
66.3000;0.1563;0.0143;
66.6000;0.1530;0.0096;
66.9000;0.1547;0.0096;
67.2000;0.1547;0.0000;
67.5000;0.1555;0.0024;
67.8000;0.1579;0.0191;
68.1000;0.1538;0.0191;
68.4000;0.1563;0.0239;
68.7000;0.1538;0.0191;
69.0000;0.1514;0.0096;
69.3000;0.1530;0.0263;
69.6000;0.1555;0.0287;
69.9000;0.1579;0.0335;
70.2000;0.1538;0.0263;
70.5000;0.1547;0.0239;
70.8000;0.1522;0.0215;
71.1000;0.1547;0.0263;
71.4000;0.1538;0.0239;
71.7000;0.1547;0.0239;
72.0000;0.1400;-0.0215;
72.3000;0.1547;0.0167;
72.6000;0.1555;0.0215;
72.9000;0.1547;0.0143;
73.2000;0.1538;0.0143;
73.5000;0.1587;0.0287;
73.8000;0.1555;0.0072;
74.1000;0.1571;0.0096;
74.4000;0.1555;0.0167;
74.7000;0.1587;0.0335;
75.0000;0.1563;0.0191;
75.3000;0.1563;0.0215;
75.6000;0.1571;0.0239;
75.9000;0.1555;0.0263;
76.2000;0.1555;0.0430;
76.5000;0.1530;0.0358;
76.8000;0.1563;0.0430;
77.1000;0.1522;0.0239;
77.4000;0.1490;0.0096;
77.7000;0.1392;-0.0215;
78.0000;0.1530;0.0096;
78.3000;0.1538;0.0000;
78.6000;0.1555;0.0000;
78.9000;0.1563;-0.0072;
79.2000;0.1555;-0.0072;
79.5000;0.1490;-0.0263;
79.8000;0.1563;-0.0024;
80.1000;0.1563;0.0024;
80.4000;0.1538;-0.0048;
80.7000;0.1530;-0.0072;
81.0000;0.1433;-0.0263;
81.3000;0.1547;0.0024;
81.6000;0.1555;0.0143;
81.9000;0.1457;-0.0119;
82.2000;0.1538;0.0191;
82.5000;0.1555;0.0239;
82.8000;0.1530;0.0167;
83.1000;0.1555;0.0263;
83.4000;0.1555;0.0239;
83.7000;0.1449;-0.0096;
84.0000;0.1555;0.0119;
84.3000;0.1579;0.0096;
84.6000;0.1555;0.0024;
84.9000;0.1547;0.0000;
85.2000;0.1555;0.0143;
85.5000;0.1579;0.0287;
85.8000;0.1595;0.0382;
86.1000;0.1538;0.0215;
86.4000;0.1530;0.0239;
86.7000;0.1547;0.0358;
87.0000;0.1538;0.0287;
87.3000;0.1547;0.0311;
87.6000;0.1571;0.0406;
87.9000;0.1547;0.0358;
88.2000;0.1555;0.0406;
88.5000;0.1563;0.0454;
88.8000;0.1595;0.0502;
89.1000;0.1555;0.0430;
89.4000;0.1555;0.0358;
89.7000;0.1538;0.0287;
90.0000;0.1571;0.0215;
90.3000;0.1571;0.0215;
90.6000;0.1563;0.0263;
90.9000;0.1563;0.0287;
91.2000;0.1555;0.0215;
91.5000;0.1563;0.0263;
91.8000;0.1547;0.0311;
92.1000;0.1555;0.0406;
92.4000;0.1538;0.0239;
92.7000;0.1530;0.0167;
93.0000;0.1555;0.0287;
93.3000;0.1563;0.0167;
93.6000;0.1555;0.0191;
93.9000;0.1547;0.0143;
94.2000;0.1563;0.0096;
94.5000;0.1547;0.0000;
94.8000;0.1571;0.0024;
95.1000;0.1538;-0.0024;
95.4000;0.1563;0.0048;
95.7000;0.1555;0.0072;
96.0000;0.1571;0.0143;
96.3000;0.1538;0.0000;
96.6000;0.1538;-0.0072;
96.9000;0.1547;0.0000;
97.2000;0.1555;0.0072;
97.5000;0.1563;0.0191;
97.8000;0.1555;0.0119;
98.1000;0.1563;0.0191;
98.4000;0.1547;0.0167;
98.7000;0.1506;0.0096;
99.0000;0.1473;0.0048;
99.3000;0.1547;0.0287;
99.6000;0.1538;0.0335;
99.9000;0.1563;0.0335;
100.2000;0.1555;0.0382;
100.5000;0.1416;0.0000;
100.8000;0.1547;0.0287;
101.1000;0.1571;0.0358;
101.4000;0.1555;0.0215;
101.7000;0.1571;0.0239;
102.0000;0.1652;0.0597;
102.3000;0.1547;0.0358;
102.6000;0.1563;0.0430;
102.9000;0.1579;0.0502;
103.2000;0.1547;0.0382;
103.5000;0.1571;0.0358;
103.8000;0.1571;0.0358;
104.1000;0.1612;0.0430;
104.4000;0.1563;0.0382;
104.7000;0.1587;0.0358;
105.0000;0.1571;0.0263;
105.3000;0.1555;0.0263;
105.6000;0.1547;0.0191;
105.9000;0.1555;0.0215;
106.2000;0.1571;0.0311;
106.5000;0.1547;0.0287;
106.8000;0.1547;0.0287;
107.1000;0.1547;0.0263;
107.4000;0.1449;0.0072;
107.7000;0.1644;0.0574;
108.0000;0.1547;0.0287;
108.3000;0.1555;0.0287;
108.6000;0.1563;0.0263;
108.9000;0.1547;0.0167;
109.2000;0.1571;0.0239;
109.5000;0.1563;0.0239;
109.8000;0.1555;0.0215;
110.1000;0.1530;0.0191;
110.4000;0.1555;0.0239;
110.7000;0.1563;0.0311;
111.0000;0.1530;0.0263;
111.3000;0.1571;0.0263;
111.6000;0.1538;0.0215;
111.9000;0.1563;0.0167;
112.2000;0.1530;0.0072;
112.5000;0.1563;0.0239;
112.8000;0.1563;0.0215;
113.1000;0.1555;0.0191;
113.4000;0.1547;0.0143;
113.7000;0.1563;0.0215;
114.0000;0.1604;0.0335;
114.3000;0.1547;0.0096;
114.6000;0.1530;0.0143;
114.9000;0.1563;0.0191;
115.2000;0.1604;0.0430;
115.5000;0.1555;0.0263;
115.8000;0.1522;0.0167;
116.1000;0.1661;0.0526;
116.4000;0.1473;0.0072;
116.7000;0.1547;0.0287;
117.0000;0.1530;0.0215;
117.3000;0.1571;0.0239;
117.6000;0.1563;0.0263;
117.9000;0.1571;0.0406;
118.2000;0.1530;0.0382;
118.5000;0.1555;0.0382;
118.8000;0.1563;0.0358;
119.1000;0.1522;0.0239;
119.4000;0.1481;0.0191;
119.7000;0.1538;0.0358;
120.0000;0.1579;0.0454;
120.3000;0.1547;0.0335;
120.6000;0.1579;0.0382;
120.9000;0.1547;0.0287;
121.2000;0.1579;0.0358;
121.5000;0.1538;0.0191;
121.8000;0.1555;0.0096;
122.1000;0.1555;0.0119;
122.4000;0.1547;0.0215;
122.7000;0.1498;0.0167;
123.0000;0.1538;0.0239;
123.3000;0.1547;0.0287;
123.6000;0.1547;0.0239;
123.9000;0.1547;0.0335;
124.2000;0.1571;0.0430;
124.5000;0.1530;0.0358;
124.8000;0.1538;0.0382;
125.1000;0.1514;0.0406;
125.4000;0.1636;0.0693;
125.7000;0.1465;0.0215;
126.0000;0.1547;0.0502;
126.3000;0.1571;0.0669;
126.6000;0.1530;0.0502;
126.9000;0.1547;0.0597;
127.2000;0.1538;0.0526;
127.5000;0.1563;0.0574;
127.8000;0.1547;0.0406;
128.1000;0.1538;0.0382;
128.4000;0.1563;0.0406;
128.7000;0.1563;0.0358;
129.0000;0.1563;0.0358;
129.3000;0.1547;0.0239;
129.6000;0.1571;0.0287;
129.9000;0.1555;0.0215;
130.2000;0.1547;0.0239;
130.5000;0.1547;0.0287;
130.8000;0.1652;0.0645;
131.1000;0.1530;0.0382;
131.4000;0.1530;0.0382;
131.7000;0.1555;0.0335;
132.0000;0.1669;0.0645;
132.3000;0.1530;0.0239;
132.6000;0.1538;0.0263;
132.9000;0.1595;0.0454;
133.2000;0.1555;0.0454;
133.5000;0.1555;0.0335;
133.8000;0.1538;0.0311;
134.1000;0.1563;0.0311;
134.4000;0.1555;0.0263;
134.7000;0.1457;0.0048;
135.0000;0.1530;0.0335;
135.3000;0.1547;0.0335;
135.6000;0.1579;0.0430;
135.9000;0.1547;0.0382;
136.2000;0.1563;0.0382;
136.5000;0.1538;0.0287;
136.8000;0.1620;0.0550;
137.1000;0.1555;0.0382;
137.4000;0.1538;0.0382;
137.7000;0.1555;0.0406;
138.0000;0.1612;0.0502;
138.3000;0.1563;0.0382;
138.6000;0.1538;0.0454;
138.9000;0.1587;0.0621;
139.2000;0.1547;0.0382;
139.5000;0.1547;0.0287;
139.8000;0.1538;0.0358;
140.1000;0.1620;0.0574;
140.4000;0.1538;0.0335;
140.7000;0.1571;0.0311;
141.0000;0.1571;0.0406;
141.3000;0.1563;0.0287;
141.6000;0.1547;0.0382;
141.9000;0.1522;0.0406;
142.2000;0.1563;0.0358;
142.5000;0.1538;0.0263;
142.8000;0.1555;0.0263;
143.1000;0.1555;0.0287;
143.4000;0.1587;0.0430;
143.7000;0.1530;0.0167;
144.0000;0.1555;0.0239;
144.3000;0.1547;0.0167;
144.6000;0.1563;0.0167;
144.9000;0.1563;0.0287;
145.2000;0.1563;0.0239;
145.5000;0.1579;0.0263;
145.8000;0.1563;0.0239;
146.1000;0.1628;0.0382;
146.4000;0.1563;0.0287;
146.7000;0.1547;0.0167;
147.0000;0.1538;0.0072;
147.3000;0.1595;0.0167;
147.6000;0.1563;0.0048;
147.9000;0.1433;-0.0239;
148.2000;0.1538;-0.0024;
148.5000;0.1587;0.0024;
148.8000;0.1628;0.0143;
149.1000;0.1571;-0.0024;
149.4000;0.1547;0.0024;
149.7000;0.1514;-0.0072;
150.0000;0.1563;0.0096;
150.3000;0.1538;0.0119;
150.6000;0.1547;0.0096;
150.9000;0.1595;0.0311;
151.2000;0.1538;0.0215;
151.5000;0.1579;0.0287;
151.8000;0.1530;0.0167;
152.1000;0.1538;0.0119;
152.4000;0.1506;0.0000;
152.7000;0.1538;0.0072;
153.0000;0.1514;-0.0024;
153.3000;0.1522;0.0000;
153.6000;0.1563;0.0096;
153.9000;0.1563;0.0072;
154.2000;0.1547;0.0024;
154.5000;0.1547;0.0024;
154.8000;0.1538;0.0096;
155.1000;0.1555;0.0191;
155.4000;0.1571;0.0287;
155.7000;0.1506;0.0119;
156.0000;0.1530;0.0239;
156.3000;0.1563;0.0335;
156.6000;0.1620;0.0597;
156.9000;0.1555;0.0358;
157.2000;0.1555;0.0382;
157.5000;0.1563;0.0358;
157.8000;0.1481;0.0167;
158.1000;0.1555;0.0430;
158.4000;0.1538;0.0502;
158.7000;0.1579;0.0597;
159.0000;0.1547;0.0430;
159.3000;0.1563;0.0382;
159.6000;0.1555;0.0287;
159.9000;0.1530;0.0119;
160.2000;0.1579;0.0167;
160.5000;0.1547;0.0215;
160.8000;0.1555;0.0239;
161.1000;0.1555;0.0311;
161.4000;0.1547;0.0406;
161.7000;0.1563;0.0406;
162.0000;0.1506;0.0191;
162.3000;0.1563;0.0311;
162.6000;0.1547;0.0215;
162.9000;0.1620;0.0287;
163.2000;0.1555;0.0072;
163.5000;0.1547;0.0048;
163.8000;0.1481;-0.0024;
164.1000;0.1555;0.0191;
164.4000;0.1416;-0.0215;
164.7000;0.1555;0.0191;
165.0000;0.1555;0.0167;
165.3000;0.1563;0.0239;
165.6000;0.1555;0.0215;
165.9000;0.1555;0.0239;
166.2000;0.1555;0.0239;
166.5000;0.1579;0.0287;
166.8000;0.1563;0.0287;
167.1000;0.1571;0.0311;
167.4000;0.1563;0.0287;
167.7000;0.1579;0.0287;
168.0000;0.1563;0.0311;
168.3000;0.1538;0.0287;
168.6000;0.1661;0.0693;
168.9000;0.1538;0.0382;
169.2000;0.1538;0.0382;
169.5000;0.1571;0.0335;
169.8000;0.1555;0.0263;
170.1000;0.1530;0.0191;
170.4000;0.1547;0.0215;
170.7000;0.1563;0.0287;
171.0000;0.1579;0.0358;
171.3000;0.1538;0.0335;
171.6000;0.1530;0.0191;
171.9000;0.1538;0.0239;
172.2000;0.1563;0.0287;
172.5000;0.1547;0.0287;
172.8000;0.1555;0.0335;
173.1000;0.1555;0.0287;
173.4000;0.1579;0.0191;
173.7000;0.1555;0.0191;
174.0000;0.1595;0.0263;
174.3000;0.1604;0.0287;
174.6000;0.1555;0.0072;
174.9000;0.1555;0.0048;
175.2000;0.1498;-0.0048;
175.5000;0.1538;0.0000;
175.8000;0.1522;-0.0048;
176.1000;0.1571;0.0096;
176.4000;0.1538;0.0167;
176.7000;0.1547;0.0167;
177.0000;0.1579;0.0311;
177.3000;0.1563;0.0287;
177.6000;0.1538;0.0215;
177.9000;0.1514;0.0143;
178.2000;0.1563;0.0287;
178.5000;0.1555;0.0263;
178.8000;0.1538;0.0215;
179.1000;0.1547;0.0215;
179.4000;0.1547;0.0215;
179.7000;0.1547;0.0167;
180.0000;0.1587;0.0239;
180.3000;0.1555;0.0143;
180.6000;0.1538;0.0072;
180.9000;0.1579;0.0191;
181.2000;0.1555;0.0191;
181.5000;0.1612;0.0287;
181.8000;0.1579;0.0239;
182.1000;0.1579;0.0191;
182.4000;0.1547;0.0287;
182.7000;0.1538;0.0215;
183.0000;0.1547;0.0311;
183.3000;0.1555;0.0239;
183.6000;0.1547;0.0215;
183.9000;0.1571;0.0263;
184.2000;0.1563;0.0239;
184.5000;0.1547;0.0287;
184.8000;0.1571;0.0430;
185.1000;0.1587;0.0502;
185.4000;0.1571;0.0478;
185.7000;0.1555;0.0454;
186.0000;0.1571;0.0454;
186.3000;0.1530;0.0215;
186.6000;0.1547;0.0215;
186.9000;0.1538;0.0263;
187.2000;0.1547;0.0311;
187.5000;0.1563;0.0311;
187.8000;0.1547;0.0287;
188.1000;0.1530;0.0143;
188.4000;0.1555;0.0215;
188.7000;0.1547;0.0287;
189.0000;0.1555;0.0263;
189.3000;0.1571;0.0382;
189.6000;0.1538;0.0358;
189.9000;0.1514;0.0311;
190.2000;0.1555;0.0335;
190.5000;0.1555;0.0263;
190.8000;0.1530;0.0239;
191.1000;0.1563;0.0215;
191.4000;0.1604;0.0311;
191.7000;0.1563;0.0287;
192.0000;0.1563;0.0287;
192.3000;0.1538;0.0096;
192.6000;0.1506;-0.0048;
192.9000;0.1571;0.0143;
193.2000;0.1538;0.0119;
193.5000;0.1433;-0.0119;
193.8000;0.1555;0.0191;
194.1000;0.1563;0.0215;
194.4000;0.1595;0.0191;
194.7000;0.1473;-0.0119;
195.0000;0.1579;0.0191;
195.3000;0.1506;-0.0024;
195.6000;0.1547;0.0072;
195.9000;0.1538;0.0167;
196.2000;0.1555;0.0072;
196.5000;0.1563;0.0096;
196.8000;0.1514;0.0024;
197.1000;0.1547;0.0143;
197.4000;0.1563;0.0096;
197.7000;0.1571;0.0239;
198.0000;0.1595;0.0311;
198.3000;0.1555;0.0287;
198.6000;0.1571;0.0311;
198.9000;0.1612;0.0335;
199.2000;0.1547;0.0191;
199.5000;0.1481;0.0024;
199.8000;0.1530;0.0215;
200.1000;0.1530;0.0287;
200.4000;0.1587;0.0335;
200.7000;0.1547;0.0287;
201.0000;0.1547;0.0335;
201.3000;0.1636;0.0550;
201.6000;0.1555;0.0263;
201.9000;0.1522;0.0287;
202.2000;0.1604;0.0454;
202.5000;0.1522;0.0335;
202.8000;0.1547;0.0406;
203.1000;0.1547;0.0430;
203.4000;0.1555;0.0478;
203.7000;0.1571;0.0406;
204.0000;0.1661;0.0645;
204.3000;0.1563;0.0335;
204.6000;0.1571;0.0287;
204.9000;0.1555;0.0287;
205.2000;0.1571;0.0358;
205.5000;0.1563;0.0311;
205.8000;0.1563;0.0215;
206.1000;0.1620;0.0406;
206.4000;0.1538;0.0263;
206.7000;0.1555;0.0311;
207.0000;0.1563;0.0406;
207.3000;0.1571;0.0430;
207.6000;0.1555;0.0406;
207.9000;0.1530;0.0335;
208.2000;0.1555;0.0335;
208.5000;0.1538;0.0335;
208.8000;0.1530;0.0335;
209.1000;0.1669;0.0741;
209.4000;0.1530;0.0406;
209.7000;0.1555;0.0406;
210.0000;0.1587;0.0454;
210.3000;0.1547;0.0335;
210.6000;0.1579;0.0358;
210.9000;0.1547;0.0263;
211.2000;0.1563;0.0263;
211.5000;0.1538;0.0215;
211.8000;0.1571;0.0287;
212.1000;0.1563;0.0263;
212.4000;0.1538;0.0263;
212.7000;0.1547;0.0263;
213.0000;0.1530;0.0239;
213.3000;0.1530;0.0167;
213.6000;0.1563;0.0239;
213.9000;0.1563;0.0239;
214.2000;0.1547;0.0215;
214.5000;0.1506;-0.0048;
214.8000;0.1555;0.0096;
215.1000;0.1538;0.0096;
215.4000;0.1530;0.0096;
215.7000;0.1636;0.0406;
216.0000;0.1571;0.0239;
216.3000;0.1571;0.0239;
216.6000;0.1563;0.0072;
216.9000;0.1563;0.0072;
217.2000;0.1547;0.0024;
217.5000;0.1514;-0.0048;
217.8000;0.1563;0.0048;
218.1000;0.1555;0.0048;
218.4000;0.1563;0.0167;
218.7000;0.1514;0.0072;
219.0000;0.1490;-0.0048;
219.3000;0.1563;0.0215;
219.6000;0.1563;0.0215;
219.9000;0.1571;0.0335;
220.2000;0.1604;0.0478;
220.5000;0.1522;0.0239;
220.8000;0.1555;0.0263;
221.1000;0.1457;-0.0072;
221.4000;0.1595;0.0311;
221.7000;0.1563;0.0215;
222.0000;0.1547;0.0263;
222.3000;0.1538;0.0287;
222.6000;0.1563;0.0382;
222.9000;0.1595;0.0478;
223.2000;0.1522;0.0215;
223.5000;0.1555;0.0335;
223.8000;0.1571;0.0358;
224.1000;0.1522;0.0263;
224.4000;0.1563;0.0358;
224.7000;0.1547;0.0311;
225.0000;0.1522;0.0191;
225.3000;0.1547;0.0263;
225.6000;0.1530;0.0215;
225.9000;0.1579;0.0311;
226.2000;0.1547;0.0167;
226.5000;0.1571;0.0143;
226.8000;0.1595;0.0287;
227.1000;0.1579;0.0191;
227.4000;0.1571;0.0191;
227.7000;0.1571;0.0215;
228.0000;0.1547;0.0143;
228.3000;0.1538;0.0191;
228.6000;0.1612;0.0311;
228.9000;0.1522;0.0119;
229.2000;0.1547;0.0215;
229.5000;0.1530;0.0024;
229.8000;0.1595;0.0119;
230.1000;0.1522;-0.0024;
230.4000;0.1547;0.0167;
230.7000;0.1547;0.0239;
231.0000;0.1555;0.0311;
231.3000;0.1547;0.0215;
231.6000;0.1563;0.0191;
231.9000;0.1571;0.0215;
232.2000;0.1441;-0.0143;
232.5000;0.1563;0.0119;
232.8000;0.1547;0.0143;
233.1000;0.1530;0.0072;
233.4000;0.1530;0.0072;
233.7000;0.1563;0.0119;
234.0000;0.1538;0.0072;
234.3000;0.1563;0.0143;
234.6000;0.1538;0.0096;
234.9000;0.1555;0.0119;
235.2000;0.1563;0.0096;
235.5000;0.1538;0.0024;
235.8000;0.1563;0.0191;
236.1000;0.1522;0.0143;
236.4000;0.1587;0.0263;
236.7000;0.1571;0.0287;
237.0000;0.1579;0.0358;
237.3000;0.1547;0.0263;
237.6000;0.1522;0.0239;
237.9000;0.1579;0.0239;
238.2000;0.1449;-0.0119;
238.5000;0.1555;0.0119;
238.8000;0.1547;0.0167;
239.1000;0.1555;0.0096;
239.4000;0.1555;0.0167;
239.7000;0.1587;0.0287;
240.0000;0.1563;0.0263;
240.3000;0.1587;0.0358;
240.6000;0.1547;0.0215;
240.9000;0.1538;0.0167;
241.2000;0.1563;0.0143;
241.5000;0.1563;0.0096;
241.8000;0.1563;0.0072;
242.1000;0.1530;-0.0024;
242.4000;0.1555;-0.0024;
242.7000;0.1555;0.0024;
243.0000;0.1563;0.0119;
243.3000;0.1547;0.0072;
243.6000;0.1555;0.0119;
243.9000;0.1579;0.0191;
244.2000;0.1563;0.0167;
244.5000;0.1587;0.0119;
244.8000;0.1604;0.0143;
245.1000;0.1555;0.0024;
245.4000;0.1555;0.0024;
245.7000;0.1563;0.0119;
246.0000;0.1555;0.0072;
246.3000;0.1595;0.0287;
246.6000;0.1555;0.0215;
246.9000;0.1555;0.0311;
247.2000;0.1555;0.0215;
247.5000;0.1530;0.0143;
247.8000;0.1392;-0.0239;
248.1000;0.1555;0.0191;
248.4000;0.1555;0.0096;
248.7000;0.1547;0.0048;
249.0000;0.1547;0.0048;
249.3000;0.1563;0.0096;
249.6000;0.1604;0.0167;
249.9000;0.1530;0.0096;
250.2000;0.1514;0.0048;
250.5000;0.1555;0.0119;
250.8000;0.1636;0.0311;
251.1000;0.1538;0.0024;
251.4000;0.1530;0.0000;
251.7000;0.1555;0.0048;
252.0000;0.1522;-0.0048;
252.3000;0.1571;0.0048;
252.6000;0.1563;0.0024;
252.9000;0.1547;0.0024;
253.2000;0.1555;0.0000;
253.5000;0.1563;0.0000;
253.8000;0.1563;0.0000;
254.1000;0.1538;-0.0024;
254.4000;0.1547;0.0024;
254.7000;0.1571;0.0048;
255.0000;0.1547;-0.0024;
255.3000;0.1579;0.0024;
255.6000;0.1555;0.0072;
255.9000;0.1555;0.0096;
256.2000;0.1555;0.0048;
256.5000;0.1563;0.0048;
256.8000;0.1538;0.0024;
257.1000;0.1538;0.0096;
257.4000;0.1547;0.0191;
257.7000;0.1555;0.0239;
258.0000;0.1522;0.0191;
258.3000;0.1571;0.0263;
258.6000;0.1571;0.0239;
258.9000;0.1563;0.0263;
259.2000;0.1530;0.0263;
259.5000;0.1555;0.0287;
259.8000;0.1555;0.0287;
260.1000;0.1547;0.0335;
260.4000;0.1433;-0.0072;
260.7000;0.1522;0.0119;
261.0000;0.1547;0.0239;
261.3000;0.1538;0.0239;
261.6000;0.1555;0.0191;
261.9000;0.1604;0.0335;
262.2000;0.1538;0.0143;
262.5000;0.1547;0.0096;
262.8000;0.1547;0.0072;
263.1000;0.1514;0.0048;
263.4000;0.1530;0.0119;
263.7000;0.1547;0.0191;
264.0000;0.1538;0.0143;
264.3000;0.1563;0.0215;
264.6000;0.1669;0.0502;
264.9000;0.1555;0.0215;
265.2000;0.1563;0.0263;
265.5000;0.1563;0.0382;
265.8000;0.1709;0.0741;
266.1000;0.1522;0.0215;
266.4000;0.1547;0.0239;
266.7000;0.1530;0.0191;
267.0000;0.1555;0.0287;
267.3000;0.1571;0.0311;
267.6000;0.1547;0.0263;
267.9000;0.1555;0.0287;
268.2000;0.1538;0.0167;
268.5000;0.1547;0.0191;
268.8000;0.1547;0.0167;
269.1000;0.1563;0.0191;
269.4000;0.1538;0.0096;
269.7000;0.1538;0.0096;
270.0000;0.1538;0.0119;
270.3000;0.1547;0.0167;
270.6000;0.1555;0.0143;
270.9000;0.1555;0.0143;
271.2000;0.1530;0.0167;
271.5000;0.1563;0.0239;
271.8000;0.1595;0.0382;
272.1000;0.1555;0.0287;
272.4000;0.1538;0.0311;
272.7000;0.1514;0.0287;
273.0000;0.1506;0.0239;
273.3000;0.1522;0.0335;
273.6000;0.1571;0.0526;
273.9000;0.1571;0.0550;
274.2000;0.1530;0.0454;
274.5000;0.1547;0.0502;
274.8000;0.1538;0.0526;
275.1000;0.1555;0.0526;
275.4000;0.1563;0.0430;
275.7000;0.1530;0.0287;
276.0000;0.1587;0.0335;
276.3000;0.1563;0.0287;
276.6000;0.1620;0.0454;
276.9000;0.1547;0.0287;
277.2000;0.1555;0.0287;
277.5000;0.1530;0.0191;
277.8000;0.1506;0.0167;
278.1000;0.1555;0.0263;
278.4000;0.1538;0.0191;
278.7000;0.1530;0.0263;
279.0000;0.1547;0.0287;
279.3000;0.1530;0.0239;
279.6000;0.1538;0.0215;
279.9000;0.1555;0.0239;
280.2000;0.1522;0.0191;
280.5000;0.1538;0.0263;
280.8000;0.1563;0.0311;
281.1000;0.1538;0.0263;
281.4000;0.1595;0.0454;
281.7000;0.1563;0.0406;
282.0000;0.1563;0.0478;
282.3000;0.1563;0.0526;
282.6000;0.1555;0.0574;
282.9000;0.1555;0.0550;
283.2000;0.1579;0.0597;
283.5000;0.1547;0.0502;
283.8000;0.1522;0.0406;
284.1000;0.1563;0.0526;
284.4000;0.1530;0.0454;
284.7000;0.1481;0.0239;
285.0000;0.1579;0.0406;
285.3000;0.1530;0.0311;
285.6000;0.1612;0.0526;
285.9000;0.1555;0.0406;
286.2000;0.1538;0.0311;
286.5000;0.1547;0.0335;
286.8000;0.1547;0.0358;
287.1000;0.1555;0.0454;
287.4000;0.1530;0.0358;
287.7000;0.1538;0.0430;
288.0000;0.1579;0.0478;
288.3000;0.1555;0.0454;
288.6000;0.1514;0.0430;
288.9000;0.1538;0.0526;
289.2000;0.1555;0.0502;
289.5000;0.1555;0.0478;
289.8000;0.1571;0.0574;
290.1000;0.1563;0.0502;
290.4000;0.1530;0.0358;
290.7000;0.1530;0.0311;
291.0000;0.1538;0.0167;
291.3000;0.1547;0.0263;
291.6000;0.1555;0.0263;
291.9000;0.1555;0.0143;
292.2000;0.1522;0.0096;
292.5000;0.1547;0.0191;
292.8000;0.1547;0.0215;
293.1000;0.1547;0.0215;
293.4000;0.1555;0.0311;
293.7000;0.1563;0.0311;
294.0000;0.1433;-0.0072;
294.3000;0.1652;0.0621;
294.6000;0.1538;0.0358;
294.9000;0.1530;0.0335;
295.2000;0.1555;0.0358;
295.5000;0.1555;0.0263;
295.8000;0.1620;0.0454;
296.1000;0.1547;0.0239;
296.4000;0.1555;0.0263;
296.7000;0.1547;0.0358;
297.0000;0.1547;0.0406;
297.3000;0.1547;0.0406;
297.6000;0.1555;0.0454;
297.9000;0.1506;0.0311;
298.2000;0.1555;0.0430;
298.5000;0.1555;0.0430;
298.8000;0.1538;0.0406;
299.1000;0.1490;0.0263;
299.4000;0.1555;0.0406;
299.7000;0.1547;0.0311;
300.0000;0.1514;0.0287;
300.3000;0.1547;0.0239;
300.6000;0.1530;0.0167;
300.9000;0.1579;0.0215;
301.2000;0.1547;0.0072;
301.5000;0.1547;0.0072;
301.8000;0.1571;0.0119;
302.1000;0.1571;0.0096;
302.4000;0.1579;0.0167;
302.7000;0.1547;0.0096;
303.0000;0.1555;0.0072;
303.3000;0.1538;0.0191;
303.6000;0.1547;0.0287;
303.9000;0.1587;0.0382;
304.2000;0.1547;0.0215;
304.5000;0.1538;0.0263;
304.8000;0.1538;0.0263;
305.1000;0.1563;0.0311;
305.4000;0.1547;0.0311;
305.7000;0.1547;0.0311;
306.0000;0.1498;0.0167;
306.3000;0.1563;0.0358;
306.6000;0.1547;0.0358;
306.9000;0.1547;0.0311;
307.2000;0.1530;0.0311;
307.5000;0.1547;0.0335;
307.8000;0.1530;0.0311;
308.1000;0.1555;0.0263;
308.4000;0.1563;0.0287;
308.7000;0.1555;0.0311;
309.0000;0.1547;0.0358;
309.3000;0.1538;0.0215;
309.6000;0.1481;0.0096;
309.9000;0.1547;0.0191;
310.2000;0.1538;0.0167;
310.5000;0.1465;-0.0072;
310.8000;0.1563;0.0167;
311.1000;0.1571;0.0167;
311.4000;0.1449;-0.0072;
311.7000;0.1563;0.0215;
312.0000;0.1547;0.0191;
312.3000;0.1555;0.0191;
312.6000;0.1514;0.0024;
312.9000;0.1563;0.0167;
313.2000;0.1547;0.0191;
313.5000;0.1425;-0.0096;
313.8000;0.1579;0.0311;
314.1000;0.1555;0.0263;
314.4000;0.1669;0.0526;
314.7000;0.1555;0.0215;
315.0000;0.1547;0.0191;
315.3000;0.1563;0.0263;
315.6000;0.1563;0.0311;
315.9000;0.1555;0.0263;
316.2000;0.1538;0.0335;
316.5000;0.1563;0.0382;
316.8000;0.1563;0.0430;
317.1000;0.1522;0.0358;
317.4000;0.1538;0.0406;
317.7000;0.1555;0.0382;
318.0000;0.1555;0.0358;
318.3000;0.1547;0.0287;
318.6000;0.1547;0.0263;
318.9000;0.1563;0.0263;
319.2000;0.1547;0.0191;
319.5000;0.1538;0.0167;
319.8000;0.1547;0.0119;
320.1000;0.1563;0.0143;
320.4000;0.1555;0.0119;
320.7000;0.1547;0.0096;
321.0000;0.1563;0.0167;
321.3000;0.1571;0.0167;
321.6000;0.1547;0.0143;
321.9000;0.1547;0.0119;
322.2000;0.1547;0.0143;
322.5000;0.1555;0.0072;
322.8000;0.1563;0.0096;
323.1000;0.1514;-0.0024;
323.4000;0.1538;-0.0024;
323.7000;0.1555;-0.0024;
324.0000;0.1425;-0.0311;
324.3000;0.1555;0.0048;
324.6000;0.1547;0.0000;
324.9000;0.1441;-0.0191;
325.2000;0.1563;0.0096;
325.5000;0.1555;0.0048;
325.8000;0.1547;0.0024;
326.1000;0.1555;0.0000;
326.4000;0.1555;0.0096;
326.7000;0.1547;0.0167;
327.0000;0.1547;0.0191;
327.3000;0.1530;0.0167;
327.6000;0.1530;0.0143;
327.9000;0.1547;0.0167;
328.2000;0.1604;0.0335;
328.5000;0.1579;0.0263;
328.8000;0.1538;0.0167;
329.1000;0.1547;0.0239;
329.4000;0.1555;0.0167;
329.7000;0.1555;0.0239;
330.0000;0.1538;0.0167;
330.3000;0.1538;0.0191;
330.6000;0.1555;0.0239;
330.9000;0.1579;0.0287;
331.2000;0.1555;0.0167;
331.5000;0.1547;0.0263;
331.8000;0.1571;0.0382;
332.1000;0.1563;0.0263;
332.4000;0.1547;0.0215;
332.7000;0.1506;0.0048;
333.0000;0.1555;0.0215;
333.3000;0.1522;0.0167;
333.6000;0.1530;0.0191;
333.9000;0.1563;0.0239;
334.2000;0.1530;0.0239;
334.5000;0.1530;0.0263;
334.8000;0.1555;0.0287;
335.1000;0.1538;0.0191;
335.4000;0.1530;0.0311;
335.7000;0.1514;0.0287;
336.0000;0.1563;0.0358;
336.3000;0.1555;0.0239;
336.6000;0.1538;0.0263;
336.9000;0.1538;0.0143;
337.2000;0.1555;0.0215;
337.5000;0.1514;0.0024;
337.8000;0.1425;-0.0191;
338.1000;0.1547;0.0024;
338.4000;0.1368;-0.0382;
338.7000;0.1555;0.0143;
339.0000;0.1506;0.0024;
339.3000;0.1547;0.0287;
339.6000;0.1547;0.0215;
339.9000;0.1677;0.0454;
340.2000;0.1563;0.0096;
340.5000;0.1506;-0.0048;
340.8000;0.1612;0.0239;
341.1000;0.1555;0.0215;
341.4000;0.1538;0.0263;
341.7000;0.1547;0.0215;
342.0000;0.1620;0.0406;
342.3000;0.1498;0.0096;
342.6000;0.1571;0.0167;
342.9000;0.1547;0.0239;
343.2000;0.1530;0.0215;
343.5000;0.1571;0.0287;
343.8000;0.1587;0.0311;
344.1000;0.1555;0.0263;
344.4000;0.1530;0.0287;
344.7000;0.1481;0.0143;
345.0000;0.1563;0.0335;
345.3000;0.1563;0.0382;
345.6000;0.1473;0.0096;
345.9000;0.1514;0.0167;
346.2000;0.1449;-0.0119;
346.5000;0.1555;0.0191;
346.8000;0.1449;-0.0024;
347.1000;0.1538;0.0287;
347.4000;0.1547;0.0311;
347.7000;0.1555;0.0358;
348.0000;0.1465;0.0215;
348.3000;0.1547;0.0358;
348.6000;0.1563;0.0335;
348.9000;0.1563;0.0358;
349.2000;0.1498;0.0143;
349.5000;0.1547;0.0191;
349.8000;0.1563;0.0119;
350.1000;0.1563;0.0096;
350.4000;0.1579;0.0096;
350.7000;0.1547;0.0072;
351.0000;0.1555;0.0143;
351.3000;0.1555;0.0143;
351.6000;0.1571;0.0191;
351.9000;0.1620;0.0335;
352.2000;0.1555;0.0096;
352.5000;0.1547;0.0096;
352.8000;0.1547;0.0143;
353.1000;0.1547;0.0143;
353.4000;0.1538;0.0191;
353.7000;0.1522;0.0167;
354.0000;0.1571;0.0239;
354.3000;0.1563;0.0311;
354.6000;0.1547;0.0287;
354.9000;0.1538;0.0311;
355.2000;0.1514;0.0263;
355.5000;0.1555;0.0358;
355.8000;0.1587;0.0454;
356.1000;0.1579;0.0454;
356.4000;0.1555;0.0311;
356.7000;0.1595;0.0335;
357.0000;0.1547;0.0239;
357.3000;0.1563;0.0311;
357.6000;0.1555;0.0335;
357.9000;0.1441;0.0048;
358.2000;0.1547;0.0191;
358.5000;0.1530;0.0119;
358.8000;0.1506;0.0119;
359.1000;0.1514;0.0191;
359.4000;0.1473;0.0119;
359.7000;0.1490;0.0167;
360.0000;0.1538;0.0287;
360.3000;0.1514;0.0287;
360.6000;0.1612;0.0574;
360.9000;0.1604;0.0574;
361.2000;0.1538;0.0454;
361.5000;0.1604;0.0502;
361.8000;0.1514;0.0382;
362.1000;0.1547;0.0478;
362.4000;0.1530;0.0335;
362.7000;0.1538;0.0263;
363.0000;0.1587;0.0406;
363.3000;0.1571;0.0335;
363.6000;0.1563;0.0311;
363.9000;0.1587;0.0358;
364.2000;0.1563;0.0335;
364.5000;0.1547;0.0263;
364.8000;0.1538;0.0191;
365.1000;0.1563;0.0311;
365.4000;0.1571;0.0239;
365.7000;0.1563;0.0215;
366.0000;0.1547;0.0143;
366.3000;0.1530;0.0215;
366.6000;0.1563;0.0382;
366.9000;0.1538;0.0335;
367.2000;0.1530;0.0191;
367.5000;0.1547;0.0287;
367.8000;0.1571;0.0382;
368.1000;0.1538;0.0335;
368.4000;0.1555;0.0430;
368.7000;0.1538;0.0382;
369.0000;0.1604;0.0526;
369.3000;0.1571;0.0311;
369.6000;0.1490;0.0143;
369.9000;0.1555;0.0287;
370.2000;0.1530;0.0239;
370.5000;0.1538;0.0311;
370.8000;0.1620;0.0550;
371.1000;0.1563;0.0454;
371.4000;0.1555;0.0454;
371.7000;0.1547;0.0430;
372.0000;0.1538;0.0454;
372.3000;0.1538;0.0430;
372.6000;0.1563;0.0478;
372.9000;0.1579;0.0502;
373.2000;0.1563;0.0406;
373.5000;0.1571;0.0430;
373.8000;0.1579;0.0430;
374.1000;0.1555;0.0358;
374.4000;0.1563;0.0382;
374.7000;0.1547;0.0311;
375.0000;0.1555;0.0287;
375.3000;0.1547;0.0311;
375.6000;0.1547;0.0239;
375.9000;0.1498;0.0191;
376.2000;0.1547;0.0358;
376.5000;0.1563;0.0406;
376.8000;0.1555;0.0311;
377.1000;0.1571;0.0406;
377.4000;0.1530;0.0239;
377.7000;0.1547;0.0239;
378.0000;0.1547;0.0335;
378.3000;0.1604;0.0597;
378.6000;0.1522;0.0263;
378.9000;0.1555;0.0358;
379.2000;0.1522;0.0191;
379.5000;0.1555;0.0311;
379.8000;0.1538;0.0406;
380.1000;0.1604;0.0574;
380.4000;0.1636;0.0645;
380.7000;0.1449;0.0167;
381.0000;0.1538;0.0263;
381.3000;0.1547;0.0239;
381.6000;0.1628;0.0430;
381.9000;0.1547;0.0239;
382.2000;0.1522;0.0191;
382.5000;0.1547;0.0263;
382.8000;0.1530;0.0143;
383.1000;0.1571;0.0287;
383.4000;0.1506;0.0215;
383.7000;0.1555;0.0311;
384.0000;0.1563;0.0454;
384.3000;0.1490;0.0263;
384.6000;0.1571;0.0454;
384.9000;0.1579;0.0335;
385.2000;0.1644;0.0478;
385.5000;0.1563;0.0263;
385.8000;0.1579;0.0335;
386.1000;0.1555;0.0263;
386.4000;0.1555;0.0287;
386.7000;0.1538;0.0263;
387.0000;0.1563;0.0358;
387.3000;0.1555;0.0335;
387.6000;0.1555;0.0430;
387.9000;0.1530;0.0382;
388.2000;0.1563;0.0406;
388.5000;0.1555;0.0335;
388.8000;0.1498;0.0119;
389.1000;0.1514;0.0143;
389.4000;0.1563;0.0311;
389.7000;0.1563;0.0215;
390.0000;0.1506;0.0024;
390.3000;0.1555;0.0119;
390.6000;0.1547;0.0191;
390.9000;0.1530;0.0215;
391.2000;0.1498;0.0119;
391.5000;0.1547;0.0239;
391.8000;0.1547;0.0311;
392.1000;0.1530;0.0191;
392.4000;0.1498;0.0143;
392.7000;0.1555;0.0311;
393.0000;0.1538;0.0382;
393.3000;0.1547;0.0406;
393.6000;0.1547;0.0430;
393.9000;0.1571;0.0478;
394.2000;0.1555;0.0382;
394.5000;0.1555;0.0382;
394.8000;0.1579;0.0382;
395.1000;0.1563;0.0382;
395.4000;0.1587;0.0454;
395.7000;0.1538;0.0382;
396.0000;0.1555;0.0358;
396.3000;0.1563;0.0382;
396.6000;0.1547;0.0335;
396.9000;0.1563;0.0358;
397.2000;0.1547;0.0287;
397.5000;0.1538;0.0263;
397.8000;0.1555;0.0430;
398.1000;0.1571;0.0311;
398.4000;0.1530;0.0167;
398.7000;0.1555;0.0239;
399.0000;0.1563;0.0239;
399.3000;0.1579;0.0311;
399.6000;0.1547;0.0311;
399.9000;0.1563;0.0358;
400.2000;0.1563;0.0358;
400.5000;0.1522;0.0215;
400.8000;0.1514;0.0239;
401.1000;0.1514;0.0215;
401.4000;0.1547;0.0191;
401.7000;0.1547;0.0239;
402.0000;0.1555;0.0263;
402.3000;0.1555;0.0167;
402.6000;0.1595;0.0239;
402.9000;0.1563;0.0167;
403.2000;0.1555;0.0167;
403.5000;0.1522;0.0000;
403.8000;0.1530;0.0048;
404.1000;0.1571;0.0239;
404.4000;0.1547;0.0239;
404.7000;0.1538;0.0239;
405.0000;0.1555;0.0263;
405.3000;0.1563;0.0263;
405.6000;0.1416;-0.0072;
405.9000;0.1538;0.0263;
406.2000;0.1547;0.0287;
406.5000;0.1538;0.0191;
406.8000;0.1506;0.0048;
407.1000;0.1547;0.0167;
407.4000;0.1498;0.0143;
407.7000;0.1547;0.0287;
408.0000;0.1473;0.0096;
408.3000;0.1620;0.0478;
408.6000;0.1547;0.0311;
408.9000;0.1490;0.0119;
409.2000;0.1538;0.0335;
409.5000;0.1514;0.0239;
409.8000;0.1538;0.0335;
410.1000;0.1563;0.0358;
410.4000;0.1530;0.0311;
410.7000;0.1571;0.0430;
411.0000;0.1538;0.0382;
411.3000;0.1547;0.0430;
411.6000;0.1538;0.0406;
411.9000;0.1506;0.0287;
412.2000;0.1563;0.0478;
412.5000;0.1449;0.0143;
412.8000;0.1547;0.0430;
413.1000;0.1628;0.0574;
413.4000;0.1563;0.0382;
413.7000;0.1555;0.0263;
414.0000;0.1538;0.0263;
414.3000;0.1547;0.0239;
414.6000;0.1538;0.0191;
414.9000;0.1547;0.0072;
415.2000;0.1530;0.0024;
415.5000;0.1563;0.0072;
415.8000;0.1538;0.0072;
416.1000;0.1538;0.0119;
416.4000;0.1433;-0.0072;
416.7000;0.1555;0.0263;
417.0000;0.1555;0.0335;
417.3000;0.1530;0.0335;
417.6000;0.1571;0.0406;
417.9000;0.1538;0.0311;
418.2000;0.1538;0.0239;
418.5000;0.1563;0.0311;
418.8000;0.1547;0.0263;
419.1000;0.1530;0.0167;
419.4000;0.1522;0.0072;
419.7000;0.1571;0.0119;
420.0000;0.1530;0.0048;
420.3000;0.1571;0.0191;
420.6000;0.1522;0.0048;
420.9000;0.1538;0.0096;
421.2000;0.1547;0.0167;
421.5000;0.1563;0.0239;
421.8000;0.1555;0.0215;
422.1000;0.1555;0.0167;
422.4000;0.1538;0.0263;
422.7000;0.1563;0.0335;
423.0000;0.1547;0.0287;
423.3000;0.1563;0.0382;
423.6000;0.1547;0.0454;
423.9000;0.1530;0.0430;
424.2000;0.1522;0.0382;
424.5000;0.1555;0.0382;
424.8000;0.1579;0.0430;
425.1000;0.1538;0.0287;
425.4000;0.1644;0.0597;
425.7000;0.1555;0.0311;
426.0000;0.1579;0.0406;
426.3000;0.1555;0.0406;
426.6000;0.1538;0.0406;
426.9000;0.1547;0.0358;
427.2000;0.1547;0.0382;
427.5000;0.1506;0.0215;
427.8000;0.1506;0.0239;
428.1000;0.1547;0.0382;
428.4000;0.1498;0.0287;
428.7000;0.1579;0.0454;
429.0000;0.1563;0.0406;
429.3000;0.1555;0.0454;
429.6000;0.1547;0.0430;
429.9000;0.1481;0.0143;
430.2000;0.1538;0.0358;
430.5000;0.1547;0.0478;
430.8000;0.1547;0.0430;
431.1000;0.1547;0.0430;
431.4000;0.1555;0.0574;
431.7000;0.1555;0.0430;
432.0000;0.1595;0.0406;
432.3000;0.1563;0.0335;
432.6000;0.1555;0.0430;
432.9000;0.1555;0.0454;
433.2000;0.1522;0.0382;
433.5000;0.1555;0.0478;
433.8000;0.1587;0.0645;
434.1000;0.1547;0.0502;
434.4000;0.1506;0.0311;
434.7000;0.1563;0.0454;
435.0000;0.1538;0.0430;
435.3000;0.1538;0.0430;
435.6000;0.1563;0.0454;
435.9000;0.1538;0.0430;
436.2000;0.1547;0.0454;
436.5000;0.1547;0.0574;
436.8000;0.1555;0.0574;
437.1000;0.1661;0.0812;
437.4000;0.1563;0.0550;
437.7000;0.1530;0.0454;
438.0000;0.1571;0.0526;
438.3000;0.1530;0.0550;
438.6000;0.1555;0.0574;
438.9000;0.1604;0.0741;
439.2000;0.1555;0.0669;
439.5000;0.1579;0.0621;
439.8000;0.1530;0.0502;
440.1000;0.1538;0.0454;
440.4000;0.1481;0.0311;
440.7000;0.1530;0.0382;
441.0000;0.1538;0.0382;
441.3000;0.1530;0.0311;
441.6000;0.1571;0.0502;
441.9000;0.1555;0.0526;
442.2000;0.1612;0.0597;
442.5000;0.1530;0.0454;
442.8000;0.1522;0.0430;
443.1000;0.1555;0.0478;
443.4000;0.1571;0.0454;
443.7000;0.1563;0.0382;
444.0000;0.1555;0.0382;
444.3000;0.1555;0.0287;
444.6000;0.1547;0.0239;
444.9000;0.1555;0.0263;
445.2000;0.1563;0.0311;
445.5000;0.1563;0.0287;
445.8000;0.1563;0.0215;
446.1000;0.1555;0.0215;
446.4000;0.1538;0.0191;
446.7000;0.1555;0.0335;
447.0000;0.1530;0.0311;
447.3000;0.1547;0.0287;
447.6000;0.1547;0.0167;
447.9000;0.1547;0.0215;
448.2000;0.1555;0.0311;
448.5000;0.1538;0.0382;
448.8000;0.1555;0.0430;
449.1000;0.1530;0.0478;
449.4000;0.1555;0.0550;
449.7000;0.1547;0.0454;
450.0000;0.1644;0.0621;
450.3000;0.1547;0.0382;
450.6000;0.1547;0.0335;
450.9000;0.1563;0.0358;
451.2000;0.1547;0.0335;
451.5000;0.1555;0.0358;
451.8000;0.1547;0.0382;
452.1000;0.1555;0.0502;
452.4000;0.1563;0.0574;
452.7000;0.1547;0.0478;
453.0000;0.1522;0.0502;
453.3000;0.1555;0.0550;
453.6000;0.1538;0.0502;
453.9000;0.1555;0.0478;
454.2000;0.1538;0.0335;
454.5000;0.1547;0.0311;
454.8000;0.1563;0.0335;
455.1000;0.1555;0.0239;
455.4000;0.1498;0.0072;
455.7000;0.1530;0.0191;
456.0000;0.1547;0.0263;
456.3000;0.1587;0.0406;
456.6000;0.1555;0.0406;
456.9000;0.1514;0.0287;
457.2000;0.1555;0.0454;
457.5000;0.1498;0.0263;
457.8000;0.1538;0.0287;
458.1000;0.1571;0.0382;
458.4000;0.1628;0.0574;
458.7000;0.1538;0.0406;
459.0000;0.1530;0.0239;
459.3000;0.1506;0.0287;
459.6000;0.1555;0.0335;
459.9000;0.1563;0.0311;
460.2000;0.1555;0.0215;
460.5000;0.1538;0.0167;
460.8000;0.1538;0.0239;
461.1000;0.1547;0.0311;
461.4000;0.1547;0.0263;
461.7000;0.1563;0.0239;
462.0000;0.1538;0.0287;
462.3000;0.1571;0.0239;
462.6000;0.1579;0.0335;
462.9000;0.1530;0.0167;
463.2000;0.1555;0.0191;
463.5000;0.1514;0.0119;
463.8000;0.1547;0.0048;
464.1000;0.1538;0.0119;
464.4000;0.1571;0.0263;
464.7000;0.1538;0.0215;
465.0000;0.1547;0.0143;
465.3000;0.1563;0.0167;
465.6000;0.1555;0.0143;
465.9000;0.1538;0.0096;
466.2000;0.1457;-0.0024;
466.5000;0.1563;0.0239;
466.8000;0.1530;0.0239;
467.1000;0.1563;0.0287;
467.4000;0.1547;0.0287;
467.7000;0.1555;0.0382;
468.0000;0.1547;0.0406;
468.3000;0.1555;0.0406;
468.6000;0.1538;0.0358;
468.9000;0.1563;0.0406;
469.2000;0.1563;0.0335;
469.5000;0.1547;0.0311;
469.8000;0.1563;0.0239;
470.1000;0.1563;0.0215;
470.4000;0.1538;0.0191;
470.7000;0.1555;0.0215;
471.0000;0.1481;0.0048;
471.3000;0.1555;0.0287;
471.6000;0.1547;0.0215;
471.9000;0.1555;0.0239;
472.2000;0.1538;0.0096;
472.5000;0.1538;0.0143;
472.8000;0.1547;0.0167;
473.1000;0.1563;0.0215;
473.4000;0.1530;0.0096;
473.7000;0.1547;0.0143;
474.0000;0.1530;0.0072;
474.3000;0.1579;0.0239;
474.6000;0.1538;0.0167;
474.9000;0.1547;0.0119;
475.2000;0.1547;0.0191;
475.5000;0.1555;0.0119;
475.8000;0.1530;0.0024;
476.1000;0.1547;0.0000;
476.4000;0.1530;-0.0024;
476.7000;0.1685;0.0478;
477.0000;0.1563;0.0096;
477.3000;0.1522;-0.0024;
477.6000;0.1514;-0.0119;
477.9000;0.1555;-0.0048;
478.2000;0.1498;-0.0143;
478.5000;0.1555;0.0024;
478.8000;0.1498;-0.0167;
479.1000;0.1538;-0.0024;
479.4000;0.1547;0.0072;
479.7000;0.1522;0.0048;
480.0000;0.1547;0.0000;
480.3000;0.1677;0.0430;
480.6000;0.1547;0.0072;
480.9000;0.1579;0.0143;
481.2000;0.1555;0.0119;
481.5000;0.1547;0.0119;
481.8000;0.1579;0.0143;
482.1000;0.1547;0.0048;
482.4000;0.1587;0.0263;
482.7000;0.1547;0.0119;
483.0000;0.1587;0.0215;
483.3000;0.1538;0.0119;
483.6000;0.1547;0.0143;
483.9000;0.1547;0.0143;
484.2000;0.1563;0.0119;
484.5000;0.1547;0.0048;
484.8000;0.1547;0.0024;
485.1000;0.1530;0.0000;
485.4000;0.1571;0.0215;
485.7000;0.1571;0.0215;
486.0000;0.1547;0.0215;
486.3000;0.1522;0.0167;
486.6000;0.1530;0.0143;
486.9000;0.1538;0.0143;
487.2000;0.1563;0.0239;
487.5000;0.1538;0.0191;
487.8000;0.1538;0.0167;
488.1000;0.1563;0.0239;
488.4000;0.1563;0.0311;
488.7000;0.1595;0.0382;
489.0000;0.1587;0.0358;
489.3000;0.1530;0.0096;
489.6000;0.1555;0.0119;
489.9000;0.1604;0.0263;
490.2000;0.1530;0.0000;
490.5000;0.1547;0.0000;
490.8000;0.1522;-0.0167;
491.1000;0.1579;-0.0024;
491.4000;0.1522;0.0024;
491.7000;0.1514;0.0119;
492.0000;0.1547;0.0072;
492.3000;0.1563;0.0143;
492.6000;0.1555;0.0119;
492.9000;0.1530;0.0072;
493.2000;0.1563;0.0263;
493.5000;0.1547;0.0191;
493.8000;0.1555;0.0239;
494.1000;0.1522;0.0119;
494.4000;0.1522;0.0167;
494.7000;0.1555;0.0239;
495.0000;0.1514;0.0096;
495.3000;0.1555;0.0096;
495.6000;0.1514;0.0024;
495.9000;0.1530;0.0048;
496.2000;0.1571;0.0167;
496.5000;0.1604;0.0263;
496.8000;0.1522;0.0072;
497.1000;0.1522;0.0096;
497.4000;0.1555;0.0215;
497.7000;0.1530;0.0191;
498.0000;0.1547;0.0167;
498.3000;0.1571;0.0191;
498.6000;0.1538;0.0167;
498.9000;0.1522;0.0119;
499.2000;0.1538;0.0119;
499.5000;0.1547;0.0167;
499.8000;0.1579;0.0263;
500.1000;0.1563;0.0311;
500.4000;0.1587;0.0406;
500.7000;0.1538;0.0239;
501.0000;0.1538;0.0191;
501.3000;0.1538;0.0143;
501.6000;0.1538;0.0096;
501.9000;0.1612;0.0311;
502.2000;0.1514;0.0000;
502.5000;0.1555;0.0048;
502.8000;0.1563;-0.0024;
503.1000;0.1538;0.0024;
503.4000;0.1538;-0.0024;
503.7000;0.1547;-0.0024;
504.0000;0.1441;-0.0358;
504.3000;0.1555;-0.0024;
504.6000;0.1555;-0.0072;
504.9000;0.1555;-0.0096;
505.2000;0.1555;0.0000;
505.5000;0.1530;-0.0096;
505.8000;0.1555;-0.0119;
506.1000;0.1555;-0.0239;
506.4000;0.1547;-0.0191;
506.7000;0.1538;-0.0072;
507.0000;0.1555;0.0048;
507.3000;0.1547;0.0048;
507.6000;0.1547;0.0096;
507.9000;0.1547;0.0096;
508.2000;0.1538;0.0167;
508.5000;0.1571;0.0287;
508.8000;0.1555;0.0143;
509.1000;0.1563;0.0096;
509.4000;0.1555;0.0000;
509.7000;0.1547;0.0000;
510.0000;0.1530;-0.0072;
510.3000;0.1538;-0.0048;
510.6000;0.1457;-0.0311;
510.9000;0.1538;-0.0024;
511.2000;0.1547;0.0072;
511.5000;0.1563;0.0048;
511.8000;0.1425;-0.0239;
512.1000;0.1514;0.0048;
512.4000;0.1538;0.0119;
512.7000;0.1538;0.0239;
513.0000;0.1579;0.0215;
513.3000;0.1547;0.0072;
513.6000;0.1530;0.0048;
513.9000;0.1571;0.0143;
514.2000;0.1571;0.0167;
514.5000;0.1530;0.0048;
514.8000;0.1530;0.0119;
515.1000;0.1538;0.0239;
515.4000;0.1522;0.0191;
515.7000;0.1538;0.0072;
516.0000;0.1498;-0.0072;
516.3000;0.1538;-0.0048;
516.6000;0.1547;-0.0024;
516.9000;0.1555;0.0096;
517.2000;0.1538;0.0024;
517.5000;0.1530;-0.0119;
517.8000;0.1555;-0.0048;
518.1000;0.1538;0.0000;
518.4000;0.1522;-0.0072;
518.7000;0.1514;-0.0239;
519.0000;0.1571;-0.0096;
519.3000;0.1555;-0.0096;
519.6000;0.1538;-0.0024;
519.9000;0.1555;0.0072;
520.2000;0.1547;0.0000;
520.5000;0.1547;-0.0024;
520.8000;0.1555;-0.0072;
521.1000;0.1571;-0.0024;
521.4000;0.1547;-0.0024;
521.7000;0.1506;-0.0143;
522.0000;0.1538;-0.0072;
522.3000;0.1530;-0.0096;
522.6000;0.1506;-0.0215;
522.9000;0.1571;0.0024;
523.2000;0.1498;-0.0143;
523.5000;0.1498;-0.0096;
523.8000;0.1555;0.0000;
524.1000;0.1555;-0.0072;
524.4000;0.1498;-0.0167;
524.7000;0.1555;0.0000;
525.0000;0.1555;0.0048;
525.3000;0.1563;0.0072;
525.6000;0.1547;0.0143;
525.9000;0.1522;-0.0048;
526.2000;0.1433;-0.0335;
526.5000;0.1612;0.0191;
526.8000;0.1530;-0.0048;
527.1000;0.1538;0.0000;
527.4000;0.1538;0.0000;
527.7000;0.1530;-0.0024;
528.0000;0.1522;0.0000;
528.3000;0.1547;0.0096;
528.6000;0.1547;0.0096;
528.9000;0.1530;0.0143;
529.2000;0.1547;0.0263;
529.5000;0.1563;0.0382;
529.8000;0.1547;0.0263;
530.1000;0.1522;0.0167;
530.4000;0.1530;0.0215;
530.7000;0.1579;0.0382;
531.0000;0.1547;0.0358;
531.3000;0.1522;0.0287;
531.6000;0.1547;0.0382;
531.9000;0.1538;0.0287;
532.2000;0.1506;0.0191;
532.5000;0.1555;0.0239;
532.8000;0.1571;0.0167;
533.1000;0.1530;0.0072;
533.4000;0.1538;0.0167;
533.7000;0.1530;0.0143;
534.0000;0.1530;0.0167;
534.3000;0.1547;0.0215;
534.6000;0.1490;0.0000;
534.9000;0.1555;0.0191;
535.2000;0.1563;0.0215;
535.5000;0.1661;0.0478;
535.8000;0.1636;0.0454;
536.1000;0.1571;0.0215;
536.4000;0.1555;0.0143;
536.7000;0.1473;-0.0072;
537.0000;0.1538;0.0048;
537.3000;0.1547;0.0072;
537.6000;0.1498;-0.0024;
537.9000;0.1514;0.0096;
538.2000;0.1547;0.0263;
538.5000;0.1547;0.0239;
538.8000;0.1522;0.0119;
539.1000;0.1547;0.0263;
539.4000;0.1538;0.0191;
539.7000;0.1547;0.0239;
540.0000;0.1547;0.0311;
540.3000;0.1547;0.0263;
540.6000;0.1530;0.0239;
540.9000;0.1514;0.0239;
541.2000;0.1530;0.0311;
541.5000;0.1522;0.0239;
541.8000;0.1538;0.0263;
542.1000;0.1587;0.0454;
542.4000;0.1498;0.0119;
542.7000;0.1587;0.0335;
543.0000;0.1538;0.0263;
543.3000;0.1555;0.0311;
543.6000;0.1571;0.0311;
543.9000;0.1514;0.0096;
544.2000;0.1538;0.0096;
544.5000;0.1547;0.0096;
544.8000;0.1563;0.0143;
545.1000;0.1579;0.0167;
545.4000;0.1563;0.0263;
545.7000;0.1547;0.0287;
546.0000;0.1555;0.0311;
546.3000;0.1530;0.0335;
546.6000;0.1514;0.0263;
546.9000;0.1530;0.0358;
547.2000;0.1555;0.0335;
547.5000;0.1563;0.0287;
547.8000;0.1701;0.0645;
548.1000;0.1547;0.0119;
548.4000;0.1522;0.0048;
548.7000;0.1661;0.0454;
549.0000;0.1514;0.0072;
549.3000;0.1547;0.0048;
549.6000;0.1538;-0.0024;
549.9000;0.1555;0.0048;
550.2000;0.1555;0.0119;
550.5000;0.1538;0.0167;
550.8000;0.1563;0.0167;
551.1000;0.1555;0.0119;
551.4000;0.1473;-0.0119;
551.7000;0.1571;0.0096;
552.0000;0.1530;-0.0048;
552.3000;0.1563;0.0024;
552.6000;0.1587;0.0167;
552.9000;0.1547;0.0119;
553.2000;0.1522;0.0239;
553.5000;0.1579;0.0406;
553.8000;0.1538;0.0287;
554.1000;0.1571;0.0335;
554.4000;0.1538;0.0311;
554.7000;0.1530;0.0382;
555.0000;0.1555;0.0406;
555.3000;0.1530;0.0358;
555.6000;0.1530;0.0311;
555.9000;0.1530;0.0311;
556.2000;0.1538;0.0406;
556.5000;0.1555;0.0526;
556.8000;0.1571;0.0645;
557.1000;0.1547;0.0502;
557.4000;0.1530;0.0406;
557.7000;0.1563;0.0454;
558.0000;0.1547;0.0382;
558.3000;0.1555;0.0335;
558.6000;0.1571;0.0430;
558.9000;0.1547;0.0311;
559.2000;0.1522;0.0287;
559.5000;0.1555;0.0430;
559.8000;0.1547;0.0335;
560.1000;0.1555;0.0311;
560.4000;0.1587;0.0406;
560.7000;0.1587;0.0478;
561.0000;0.1530;0.0311;
561.3000;0.1538;0.0311;
561.6000;0.1547;0.0287;
561.9000;0.1538;0.0311;
562.2000;0.1538;0.0406;
562.5000;0.1547;0.0478;
562.8000;0.1530;0.0358;
563.1000;0.1547;0.0430;
563.4000;0.1571;0.0358;
563.7000;0.1571;0.0311;
564.0000;0.1563;0.0263;
564.3000;0.1563;0.0263;
564.6000;0.1555;0.0239;
564.9000;0.1514;0.0143;
565.2000;0.1522;0.0191;
565.5000;0.1522;0.0167;
565.8000;0.1538;0.0311;
566.1000;0.1555;0.0358;
566.4000;0.1547;0.0287;
566.7000;0.1555;0.0382;
567.0000;0.1563;0.0335;
567.3000;0.1530;0.0191;
567.6000;0.1563;0.0215;
567.9000;0.1530;0.0191;
568.2000;0.1571;0.0311;
568.5000;0.1547;0.0167;
568.8000;0.1555;0.0191;
569.1000;0.1530;0.0119;
569.4000;0.1547;0.0143;
569.7000;0.1612;0.0430;
570.0000;0.1538;0.0287;
570.3000;0.1555;0.0311;
570.6000;0.1530;0.0263;
570.9000;0.1595;0.0430;
571.2000;0.1555;0.0382;
571.5000;0.1538;0.0287;
571.8000;0.1538;0.0311;
572.1000;0.1563;0.0406;
572.4000;0.1604;0.0430;
572.7000;0.1538;0.0239;
573.0000;0.1530;0.0167;
573.3000;0.1555;0.0287;
573.6000;0.1547;0.0311;
573.9000;0.1538;0.0191;
574.2000;0.1571;0.0311;
574.5000;0.1547;0.0167;
574.8000;0.1538;0.0096;
575.1000;0.1538;0.0096;
575.4000;0.1538;0.0024;
575.7000;0.1538;0.0167;
576.0000;0.1587;0.0335;
576.3000;0.1538;0.0167;
576.6000;0.1563;0.0239;
576.9000;0.1555;0.0191;
577.2000;0.1506;0.0119;
577.5000;0.1547;0.0191;
577.8000;0.1538;0.0167;
578.1000;0.1595;0.0263;
578.4000;0.1538;0.0167;
578.7000;0.1555;0.0191;
579.0000;0.1538;0.0239;
579.3000;0.1555;0.0263;
579.6000;0.1563;0.0358;
579.9000;0.1530;0.0311;
580.2000;0.1457;0.0191;
580.5000;0.1506;0.0358;
580.8000;0.1555;0.0430;
581.1000;0.1538;0.0287;
581.4000;0.1538;0.0215;
581.7000;0.1530;0.0143;
582.0000;0.1530;0.0263;
582.3000;0.1547;0.0287;
582.6000;0.1547;0.0287;
582.9000;0.1530;0.0239;
583.2000;0.1522;0.0215;
583.5000;0.1547;0.0191;
583.8000;0.1571;0.0358;
584.1000;0.1547;0.0311;
584.4000;0.1538;0.0311;
584.7000;0.1506;0.0191;
585.0000;0.1644;0.0526;
585.3000;0.1514;0.0215;
585.6000;0.1514;0.0263;
585.9000;0.1563;0.0406;
586.2000;0.1530;0.0358;
586.5000;0.1547;0.0335;
586.8000;0.1555;0.0287;
587.1000;0.1441;-0.0048;
587.4000;0.1555;0.0263;
587.7000;0.1547;0.0263;
588.0000;0.1530;0.0215;
588.3000;0.1538;0.0167;
588.6000;0.1530;0.0215;
588.9000;0.1563;0.0263;
589.2000;0.1547;0.0167;
589.5000;0.1547;0.0143;
589.8000;0.1547;0.0119;
590.1000;0.1514;0.0096;
590.4000;0.1555;0.0215;
590.7000;0.1547;0.0287;
591.0000;0.1530;0.0311;
591.3000;0.1538;0.0430;
591.6000;0.1563;0.0454;
591.9000;0.1538;0.0335;
592.2000;0.1506;0.0311;
592.5000;0.1530;0.0311;
592.8000;0.1473;0.0215;
593.1000;0.1547;0.0287;
593.4000;0.1547;0.0287;
593.7000;0.1538;0.0215;
594.0000;0.1547;0.0263;
594.3000;0.1530;0.0311;
594.6000;0.1538;0.0335;
594.9000;0.1473;0.0096;
595.2000;0.1555;0.0239;
595.5000;0.1522;0.0191;
595.8000;0.1522;0.0143;
596.1000;0.1547;0.0215;
596.4000;0.1547;0.0167;
596.7000;0.1555;0.0311;
597.0000;0.1522;0.0215;
597.3000;0.1555;0.0335;
597.6000;0.1530;0.0287;
597.9000;0.1547;0.0287;
598.2000;0.1514;0.0143;
598.5000;0.1530;0.0263;
598.8000;0.1506;0.0119;
599.1000;0.1612;0.0382;
599.4000;0.1547;0.0096;
599.7000;0.1547;0.0096;
600.0000;0.1538;0.0119;
600.3000;0.1538;0.0191;
600.6000;0.1563;0.0239;
600.9000;0.1547;0.0287;
601.2000;0.1587;0.0287;
601.5000;0.1547;0.0096;
601.8000;0.1563;0.0048;
602.1000;0.1555;-0.0048;
602.4000;0.1522;-0.0239;
602.7000;0.1522;-0.0191;
603.0000;0.1522;-0.0263;
603.3000;0.1506;-0.0406;
603.6000;0.1514;-0.0406;
603.9000;0.1498;-0.0382;
604.2000;0.1522;-0.0382;
604.5000;0.1538;-0.0406;
604.8000;0.1522;-0.0597;
605.1000;0.1530;-0.0645;
605.4000;0.1506;-0.0717;
605.7000;0.1538;-0.0574;
606.0000;0.1441;-0.0884;
606.3000;0.1522;-0.0741;
606.6000;0.1506;-0.0932;
606.9000;0.1514;-0.0956;
607.2000;0.1530;-0.0860;
607.5000;0.1506;-0.1004;
607.8000;0.1514;-0.1028;
608.1000;0.1571;-0.0884;
608.4000;0.1498;-0.1051;
608.7000;0.1498;-0.1075;
609.0000;0.1490;-0.1004;
609.3000;0.1522;-0.0908;
609.6000;0.1522;-0.0932;
609.9000;0.1547;-0.0884;
610.2000;0.1506;-0.0836;
610.5000;0.1604;-0.0597;
610.8000;0.1506;-0.0812;
611.1000;0.1522;-0.0765;
611.4000;0.1481;-0.0812;
611.7000;0.1490;-0.0860;
612.0000;0.1530;-0.0789;
612.3000;0.1530;-0.0836;
612.6000;0.1408;-0.1099;
612.9000;0.1514;-0.0884;
613.2000;0.1555;-0.0717;
613.5000;0.1481;-0.0956;
613.8000;0.1514;-0.0836;
614.1000;0.1498;-0.0860;
614.4000;0.1457;-0.0980;
614.7000;0.1514;-0.0932;
615.0000;0.1481;-0.1028;
615.3000;0.1514;-0.1099;
615.6000;0.1530;-0.0980;
615.9000;0.1530;-0.1004;
616.2000;0.1506;-0.1028;
616.5000;0.1449;-0.1195;
616.8000;0.1490;-0.1004;
617.1000;0.1490;-0.0932;
617.4000;0.1522;-0.0765;
617.7000;0.1514;-0.0717;
618.0000;0.1490;-0.0717;
618.3000;0.1490;-0.0669;
618.6000;0.1555;-0.0574;
618.9000;0.1498;-0.0765;
619.2000;0.1481;-0.0884;
619.5000;0.1490;-0.0836;
619.8000;0.1514;-0.0836;
620.1000;0.1522;-0.0789;
620.4000;0.1490;-0.0956;
620.7000;0.1473;-0.0956;
621.0000;0.1506;-0.0860;
621.3000;0.1506;-0.0860;
621.6000;0.1498;-0.0860;
621.9000;0.1506;-0.0812;
622.2000;0.1473;-0.0812;
622.5000;0.1498;-0.0765;
622.8000;0.1514;-0.0789;
623.1000;0.1498;-0.0789;
623.4000;0.1506;-0.0717;
623.7000;0.1498;-0.0765;
624.0000;0.1498;-0.0836;
624.3000;0.1425;-0.1075;
624.6000;0.1490;-0.0980;
624.9000;0.1498;-0.0908;
625.2000;0.1506;-0.0860;
625.5000;0.1498;-0.0836;
625.8000;0.1490;-0.0884;
626.1000;0.1498;-0.0908;
626.4000;0.1498;-0.0908;
626.7000;0.1498;-0.1028;
627.0000;0.1522;-0.1051;
627.3000;0.1538;-0.1028;
627.6000;0.1506;-0.1075;
627.9000;0.1506;-0.1028;
628.2000;0.1522;-0.0932;
628.5000;0.1506;-0.1051;
628.8000;0.1449;-0.1171;
629.1000;0.1449;-0.1147;
629.4000;0.1498;-0.1028;
629.7000;0.1408;-0.1266;
630.0000;0.1481;-0.1075;
630.3000;0.1506;-0.0956;
630.6000;0.1555;-0.0908;
630.9000;0.1481;-0.1147;
631.2000;0.1490;-0.1171;
631.5000;0.1522;-0.1004;
631.8000;0.1490;-0.1099;
632.1000;0.1498;-0.0980;
632.4000;0.1490;-0.1028;
632.7000;0.1506;-0.1028;
633.0000;0.1514;-0.1004;
633.3000;0.1514;-0.0956;
633.6000;0.1522;-0.0980;
633.9000;0.1498;-0.1075;
634.2000;0.1538;-0.0980;
634.5000;0.1522;-0.1123;
634.8000;0.1465;-0.1243;
635.1000;0.1498;-0.1075;
635.4000;0.1522;-0.1051;
635.7000;0.1498;-0.1051;
636.0000;0.1465;-0.1099;
636.3000;0.1514;-0.0956;
636.6000;0.1481;-0.1028;
636.9000;0.1498;-0.0884;
637.2000;0.1490;-0.0908;
637.5000;0.1547;-0.0836;
637.8000;0.1457;-0.0956;
638.1000;0.1408;-0.1075;
638.4000;0.1628;-0.0454;
638.7000;0.1465;-0.0980;
639.0000;0.1522;-0.0932;
639.3000;0.1498;-0.0956;
639.6000;0.1490;-0.1051;
639.9000;0.1571;-0.0812;
640.2000;0.1490;-0.0980;
640.5000;0.1506;-0.1004;
640.8000;0.1498;-0.1051;
641.1000;0.1473;-0.1099;
641.4000;0.1506;-0.0980;
641.7000;0.1481;-0.1028;
642.0000;0.1514;-0.0884;
642.3000;0.1498;-0.0884;
642.6000;0.1449;-0.0956;
642.9000;0.1490;-0.0908;
643.2000;0.1530;-0.0860;
643.5000;0.1498;-0.0932;
643.8000;0.1547;-0.0789;
644.1000;0.1514;-0.0717;
644.4000;0.1498;-0.0812;
644.7000;0.1506;-0.0812;
645.0000;0.1506;-0.0812;
645.3000;0.1506;-0.0884;
645.6000;0.1514;-0.0860;
645.9000;0.1481;-0.0932;
646.2000;0.1530;-0.0812;
646.5000;0.1457;-0.1004;
646.8000;0.1506;-0.0836;
647.1000;0.1530;-0.0789;
647.4000;0.1498;-0.0932;
647.7000;0.1481;-0.0908;
648.0000;0.1506;-0.0765;
648.3000;0.1490;-0.0812;
648.6000;0.1514;-0.0789;
648.9000;0.1514;-0.0765;
649.2000;0.1506;-0.0789;
649.5000;0.1506;-0.0669;
649.8000;0.1481;-0.0789;
650.1000;0.1506;-0.0717;
650.4000;0.1481;-0.0765;
650.7000;0.1498;-0.0717;
651.0000;0.1481;-0.0741;
651.3000;0.1498;-0.0645;
651.6000;0.1498;-0.0693;
651.9000;0.1514;-0.0765;
652.2000;0.1481;-0.0836;
652.5000;0.1457;-0.0908;
652.8000;0.1490;-0.0908;
653.1000;0.1490;-0.0860;
653.4000;0.1498;-0.0812;
653.7000;0.1490;-0.0860;
654.0000;0.1522;-0.0812;
654.3000;0.1498;-0.0836;
654.6000;0.1522;-0.0717;
654.9000;0.1514;-0.0741;
655.2000;0.1514;-0.0693;
655.5000;0.1498;-0.0717;
655.8000;0.1506;-0.0717;
656.1000;0.1490;-0.0789;
656.4000;0.1481;-0.0836;
656.7000;0.1498;-0.0789;
657.0000;0.1498;-0.0741;
657.3000;0.1490;-0.0765;
657.6000;0.1465;-0.0789;
657.9000;0.1490;-0.0836;
658.2000;0.1481;-0.0789;
658.5000;0.1514;-0.0765;
658.8000;0.1522;-0.0789;
659.1000;0.1490;-0.0884;
659.4000;0.1498;-0.0860;
659.7000;0.1522;-0.0836;
660.0000;0.1514;-0.0884;
660.3000;0.1514;-0.0956;
660.6000;0.1506;-0.1004;
660.9000;0.1506;-0.0932;
661.2000;0.1490;-0.0980;
661.5000;0.1490;-0.1004;
661.8000;0.1498;-0.1028;
662.1000;0.1425;-0.1195;
662.4000;0.1498;-0.0956;
662.7000;0.1498;-0.1028;
663.0000;0.1473;-0.1171;
663.3000;0.1498;-0.1123;
663.6000;0.1457;-0.1099;
663.9000;0.1506;-0.1028;
664.2000;0.1514;-0.0956;
664.5000;0.1522;-0.0932;
664.8000;0.1441;-0.1171;
665.1000;0.1506;-0.0932;
665.4000;0.1490;-0.1004;
665.7000;0.1498;-0.1028;
666.0000;0.1506;-0.0980;
666.3000;0.1538;-0.0836;
666.6000;0.1506;-0.0908;
666.9000;0.1563;-0.0717;
667.2000;0.1481;-0.0908;
667.5000;0.1473;-0.0956;
667.8000;0.1522;-0.0884;
668.1000;0.1490;-0.0956;
668.4000;0.1498;-0.1028;
668.7000;0.1514;-0.1028;
669.0000;0.1490;-0.1075;
669.3000;0.1490;-0.1075;
669.6000;0.1473;-0.1123;
669.9000;0.1498;-0.1028;
670.2000;0.1555;-0.0908;
670.5000;0.1522;-0.0932;
670.8000;0.1506;-0.0932;
671.1000;0.1506;-0.1028;
671.4000;0.1506;-0.0932;
671.7000;0.1522;-0.0956;
672.0000;0.1514;-0.1051;
672.3000;0.1530;-0.1004;
672.6000;0.1514;-0.1004;
672.9000;0.1498;-0.1051;
673.2000;0.1506;-0.1075;
673.5000;0.1473;-0.1075;
673.8000;0.1538;-0.0860;
674.1000;0.1433;-0.1123;
674.4000;0.1490;-0.0956;
674.7000;0.1473;-0.1051;
675.0000;0.1506;-0.1028;
675.3000;0.1498;-0.0956;
675.6000;0.1514;-0.0860;
675.9000;0.1481;-0.0956;
676.2000;0.1514;-0.0980;
676.5000;0.1530;-0.0956;
676.8000;0.1506;-0.1028;
677.1000;0.1506;-0.0980;
677.4000;0.1498;-0.1051;
677.7000;0.1514;-0.1028;
678.0000;0.1506;-0.1051;
678.3000;0.1498;-0.1099;
678.6000;0.1481;-0.1075;
678.9000;0.1481;-0.1123;
679.2000;0.1498;-0.1147;
679.5000;0.1498;-0.1123;
679.8000;0.1465;-0.1266;
680.1000;0.1481;-0.1195;
680.4000;0.1481;-0.1051;
680.7000;0.1490;-0.1004;
681.0000;0.1481;-0.1004;
681.3000;0.1555;-0.0789;
681.6000;0.1490;-0.0956;
681.9000;0.1441;-0.0884;
682.2000;0.1506;-0.0669;
682.5000;0.1514;-0.0597;
682.8000;0.1481;-0.0669;
683.1000;0.1522;-0.0693;
683.4000;0.1514;-0.0717;
683.7000;0.1490;-0.0860;
684.0000;0.1498;-0.0932;
684.3000;0.1490;-0.0884;
684.6000;0.1498;-0.0836;
684.9000;0.1473;-0.0836;
685.2000;0.1368;-0.1147;
685.5000;0.1498;-0.0884;
685.8000;0.1490;-0.0932;
686.1000;0.1498;-0.0884;
686.4000;0.1522;-0.0789;
686.7000;0.1498;-0.0765;
687.0000;0.1506;-0.0789;
687.3000;0.1506;-0.0717;
687.6000;0.1514;-0.0765;
687.9000;0.1498;-0.0812;
688.2000;0.1547;-0.0765;
688.5000;0.1490;-0.0908;
688.8000;0.1538;-0.0765;
689.1000;0.1498;-0.0908;
689.4000;0.1490;-0.0956;
689.7000;0.1547;-0.0884;
690.0000;0.1506;-0.0860;
690.3000;0.1465;-0.1051;
690.6000;0.1490;-0.0956;
690.9000;0.1481;-0.0884;
691.2000;0.1514;-0.0741;
691.5000;0.1416;-0.1051;
691.8000;0.1481;-0.0812;
692.1000;0.1481;-0.0836;
692.4000;0.1481;-0.0836;
692.7000;0.1481;-0.0884;
693.0000;0.1498;-0.0812;
693.3000;0.1490;-0.0884;
693.6000;0.1514;-0.0884;
693.9000;0.1490;-0.0956;
694.2000;0.1498;-0.0932;
694.5000;0.1490;-0.0884;
694.8000;0.1498;-0.0860;
695.1000;0.1416;-0.1051;
695.4000;0.1481;-0.0884;
695.7000;0.1498;-0.0836;
696.0000;0.1481;-0.0765;
696.3000;0.1530;-0.0717;
696.6000;0.1506;-0.0836;
696.9000;0.1522;-0.0789;
697.2000;0.1449;-0.0980;
697.5000;0.1506;-0.0836;
697.8000;0.1506;-0.0836;
698.1000;0.1506;-0.0860;
698.4000;0.1498;-0.0908;
698.7000;0.1563;-0.0812;
699.0000;0.1498;-0.0956;
699.3000;0.1522;-0.0884;
699.6000;0.1490;-0.0980;
699.9000;0.1514;-0.0932;
700.2000;0.1587;-0.0669;
700.5000;0.1506;-0.0884;
700.8000;0.1498;-0.0956;
701.1000;0.1563;-0.0789;
701.4000;0.1514;-0.0884;
701.7000;0.1473;-0.1004;
702.0000;0.1400;-0.1266;
702.3000;0.1506;-0.0980;
702.6000;0.1490;-0.1075;
702.9000;0.1490;-0.1099;
703.2000;0.1538;-0.1028;
703.5000;0.1522;-0.1051;
703.8000;0.1490;-0.1171;
704.1000;0.1498;-0.1195;
704.4000;0.1481;-0.1219;
704.7000;0.1481;-0.1243;
705.0000;0.1490;-0.1195;
705.3000;0.1465;-0.1051;
705.6000;0.1506;-0.0908;
705.9000;0.1498;-0.0884;
706.2000;0.1481;-0.0932;
706.5000;0.1481;-0.0956;
706.8000;0.1498;-0.0956;
707.1000;0.1490;-0.1051;
707.4000;0.1514;-0.0908;
707.7000;0.1563;-0.0812;
708.0000;0.1481;-0.1004;
708.3000;0.1604;-0.0717;
708.6000;0.1473;-0.1099;
708.9000;0.1498;-0.1123;
709.2000;0.1514;-0.1004;
709.5000;0.1547;-0.0860;
709.8000;0.1498;-0.1028;
710.1000;0.1522;-0.0884;
710.4000;0.1571;-0.0812;
710.7000;0.1506;-0.0980;
711.0000;0.1465;-0.1075;
711.3000;0.1473;-0.1028;
711.6000;0.1547;-0.0884;
711.9000;0.1465;-0.0980;
712.2000;0.1555;-0.0836;
712.5000;0.1376;-0.1266;
712.8000;0.1490;-0.0956;
713.1000;0.1498;-0.0980;
713.4000;0.1522;-0.0908;
713.7000;0.1498;-0.0980;
714.0000;0.1481;-0.1004;
714.3000;0.1514;-0.0836;
714.6000;0.1514;-0.0860;
714.9000;0.1408;-0.1147;
715.2000;0.1514;-0.0860;
715.5000;0.1506;-0.0836;
715.8000;0.1481;-0.0956;
716.1000;0.1506;-0.0956;
716.4000;0.1481;-0.1028;
716.7000;0.1481;-0.0980;
717.0000;0.1498;-0.0884;
717.3000;0.1498;-0.0908;
717.6000;0.1498;-0.0836;
717.9000;0.1481;-0.0884;
718.2000;0.1473;-0.0884;
718.5000;0.1506;-0.0836;
718.8000;0.1490;-0.0765;
719.1000;0.1490;-0.0836;
719.4000;0.1506;-0.0836;
719.7000;0.1457;-0.0932;
720.0000;0.1490;-0.0812;
720.3000;0.1481;-0.0836;
720.6000;0.1498;-0.0765;
720.9000;0.1571;-0.0621;
721.2000;0.1416;-0.1028;
721.5000;0.1498;-0.0765;
721.8000;0.1498;-0.0812;
722.1000;0.1506;-0.0836;
722.4000;0.1490;-0.0836;
722.7000;0.1620;-0.0430;
723.0000;0.1433;-0.0932;
723.3000;0.1506;-0.0741;
723.6000;0.1473;-0.0860;
723.9000;0.1506;-0.0765;
724.2000;0.1506;-0.0741;
724.5000;0.1481;-0.0860;
724.8000;0.1465;-0.0860;
725.1000;0.1506;-0.0884;
725.4000;0.1530;-0.0789;
725.7000;0.1579;-0.0717;
726.0000;0.1441;-0.1051;
726.3000;0.1498;-0.0980;
726.6000;0.1490;-0.0956;
726.9000;0.1506;-0.0932;
727.2000;0.1498;-0.0932;
727.5000;0.1514;-0.0908;
727.8000;0.1498;-0.0980;
728.1000;0.1538;-0.0884;
728.4000;0.1506;-0.0956;
728.7000;0.1498;-0.0980;
729.0000;0.1506;-0.0980;
729.3000;0.1408;-0.1243;
729.6000;0.1498;-0.0980;
729.9000;0.1506;-0.0932;
730.2000;0.1514;-0.0884;
730.5000;0.1522;-0.0836;
730.8000;0.1538;-0.0765;
731.1000;0.1506;-0.0836;
731.4000;0.1514;-0.0836;
731.7000;0.1514;-0.0908;
732.0000;0.1490;-0.0908;
732.3000;0.1473;-0.0956;
732.6000;0.1514;-0.0860;
732.9000;0.1498;-0.0932;
733.2000;0.1481;-0.0908;
733.5000;0.1490;-0.0908;
733.8000;0.1473;-0.0980;
734.1000;0.1514;-0.0932;
734.4000;0.1425;-0.1051;
734.7000;0.1481;-0.1004;
735.0000;0.1490;-0.1004;
735.3000;0.1538;-0.0980;
735.6000;0.1481;-0.1171;
735.9000;0.1530;-0.0980;
736.2000;0.1498;-0.1075;
736.5000;0.1514;-0.1028;
736.8000;0.1498;-0.0980;
737.1000;0.1498;-0.0980;
737.4000;0.1514;-0.0932;
737.7000;0.1465;-0.1004;
738.0000;0.1481;-0.0932;
738.3000;0.1498;-0.0956;
738.6000;0.1522;-0.1004;
738.9000;0.1506;-0.1075;
739.2000;0.1579;-0.0932;
739.5000;0.1465;-0.1243;
739.8000;0.1514;-0.1123;
740.1000;0.1514;-0.1099;
740.4000;0.1498;-0.1123;
740.7000;0.1490;-0.1147;
741.0000;0.1481;-0.1123;
741.3000;0.1547;-0.0908;
741.6000;0.1490;-0.0908;
741.9000;0.1506;-0.0836;
742.2000;0.1498;-0.0908;
742.5000;0.1514;-0.0836;
742.8000;0.1514;-0.0765;
743.1000;0.1571;-0.0621;
743.4000;0.1506;-0.0741;
743.7000;0.1490;-0.0741;
744.0000;0.1449;-0.0860;
744.3000;0.1490;-0.0812;
744.6000;0.1441;-0.0860;
744.9000;0.1490;-0.0765;
745.2000;0.1498;-0.0741;
745.5000;0.1498;-0.0669;
745.8000;0.1481;-0.0741;
746.1000;0.1530;-0.0789;
746.4000;0.1506;-0.0789;
746.7000;0.1506;-0.0812;
747.0000;0.1522;-0.0836;
747.3000;0.1384;-0.1147;
747.6000;0.1481;-0.0884;
747.9000;0.1490;-0.0836;
748.2000;0.1506;-0.0741;
748.5000;0.1481;-0.0789;
748.8000;0.1506;-0.0789;
749.1000;0.1465;-0.0884;
749.4000;0.1481;-0.0932;
749.7000;0.1506;-0.0956;
750.0000;0.1498;-0.0956;
750.3000;0.1473;-0.1075;
750.6000;0.1506;-0.1075;
750.9000;0.1498;-0.1028;
751.2000;0.1522;-0.0884;
751.5000;0.1498;-0.0956;
751.8000;0.1506;-0.0932;
752.1000;0.1473;-0.0980;
752.4000;0.1473;-0.0980;
752.7000;0.1530;-0.0836;
753.0000;0.1490;-0.0860;
753.3000;0.1433;-0.1099;
753.6000;0.1490;-0.0932;
753.9000;0.1498;-0.0836;
754.2000;0.1490;-0.0860;
754.5000;0.1506;-0.0836;
754.8000;0.1498;-0.0836;
755.1000;0.1506;-0.0860;
755.4000;0.1498;-0.0860;
755.7000;0.1538;-0.0693;
756.0000;0.1571;-0.0717;
756.3000;0.1490;-0.0908;
756.6000;0.1481;-0.0932;
756.9000;0.1498;-0.0860;
757.2000;0.1449;-0.1123;
757.5000;0.1555;-0.0884;
757.8000;0.1506;-0.1004;
758.1000;0.1514;-0.0932;
758.4000;0.1506;-0.1004;
758.7000;0.1514;-0.0956;
759.0000;0.1498;-0.0956;
759.3000;0.1522;-0.0836;
759.6000;0.1433;-0.1075;
759.9000;0.1465;-0.1028;
760.2000;0.1506;-0.1004;
760.5000;0.1481;-0.1051;
760.8000;0.1498;-0.1099;
761.1000;0.1481;-0.1147;
761.4000;0.1506;-0.1051;
761.7000;0.1555;-0.0932;
762.0000;0.1506;-0.1123;
762.3000;0.1498;-0.1099;
762.6000;0.1473;-0.1123;
762.9000;0.1506;-0.1028;
763.2000;0.1506;-0.0956;
763.5000;0.1498;-0.0932;
763.8000;0.1555;-0.0765;
764.1000;0.1490;-0.0908;
764.4000;0.1498;-0.0860;
764.7000;0.1490;-0.0860;
765.0000;0.1490;-0.0860;
765.3000;0.1506;-0.0884;
765.6000;0.1498;-0.0956;
765.9000;0.1498;-0.0980;
766.2000;0.1416;-0.1099;
766.5000;0.1538;-0.0789;
766.8000;0.1481;-0.0908;
767.1000;0.1465;-0.0932;
767.4000;0.1481;-0.0908;
767.7000;0.1481;-0.0860;
768.0000;0.1490;-0.0908;
768.3000;0.1506;-0.0908;
768.6000;0.1449;-0.1075;
768.9000;0.1490;-0.1028;
769.2000;0.1441;-0.1147;
769.5000;0.1522;-0.0908;
769.8000;0.1465;-0.1004;
770.1000;0.1433;-0.1075;
770.4000;0.1490;-0.0956;
770.7000;0.1530;-0.0860;
771.0000;0.1506;-0.0932;
771.3000;0.1506;-0.0956;
771.6000;0.1490;-0.0956;
771.9000;0.1481;-0.0956;
772.2000;0.1400;-0.1266;
772.5000;0.1457;-0.1099;
772.8000;0.1514;-0.1004;
773.1000;0.1490;-0.1028;
773.4000;0.1514;-0.0980;
773.7000;0.1473;-0.1075;
774.0000;0.1490;-0.1028;
774.3000;0.1490;-0.1028;
774.6000;0.1506;-0.0908;
774.9000;0.1612;-0.0502;
775.2000;0.1522;-0.0765;
775.5000;0.1490;-0.0836;
775.8000;0.1490;-0.0812;
776.1000;0.1498;-0.0765;
776.4000;0.1514;-0.0693;
776.7000;0.1514;-0.0693;
777.0000;0.1473;-0.0765;
777.3000;0.1465;-0.0717;
777.6000;0.1514;-0.0669;
777.9000;0.1481;-0.0693;
778.2000;0.1498;-0.0621;
778.5000;0.1530;-0.0550;
778.8000;0.1498;-0.0645;
779.1000;0.1490;-0.0693;
779.4000;0.1449;-0.0741;
779.7000;0.1490;-0.0502;
780.0000;0.1514;-0.0574;
780.3000;0.1449;-0.0717;
780.6000;0.1498;-0.0669;
780.9000;0.1595;-0.0526;
781.2000;0.1506;-0.0812;
781.5000;0.1498;-0.0765;
781.8000;0.1457;-0.0908;
782.1000;0.1490;-0.0860;
782.4000;0.1514;-0.0741;
782.7000;0.1506;-0.0717;
783.0000;0.1506;-0.0741;
783.3000;0.1473;-0.0884;
783.6000;0.1506;-0.0765;
783.9000;0.1571;-0.0693;
784.2000;0.1506;-0.0908;
784.5000;0.1457;-0.1028;
784.8000;0.1498;-0.0908;
785.1000;0.1490;-0.0836;
785.4000;0.1400;-0.1075;
785.7000;0.1481;-0.0765;
786.0000;0.1490;-0.0765;
786.3000;0.1547;-0.0669;
786.6000;0.1490;-0.0836;
786.9000;0.1514;-0.0765;
787.2000;0.1498;-0.0860;
787.5000;0.1498;-0.0836;
787.8000;0.1481;-0.0836;
788.1000;0.1490;-0.0884;
788.4000;0.1498;-0.0932;
788.7000;0.1465;-0.0956;
789.0000;0.1481;-0.0908;
789.3000;0.1473;-0.0908;
789.6000;0.1473;-0.0884;
789.9000;0.1481;-0.0836;
790.2000;0.1514;-0.0693;
790.5000;0.1498;-0.0789;
790.8000;0.1506;-0.0836;
791.1000;0.1481;-0.0908;
791.4000;0.1481;-0.0860;
791.7000;0.1522;-0.0836;
792.0000;0.1514;-0.0836;
792.3000;0.1481;-0.0956;
792.6000;0.1547;-0.0789;
792.9000;0.1490;-0.0884;
793.2000;0.1506;-0.0812;
793.5000;0.1481;-0.0836;
793.8000;0.1498;-0.0789;
794.1000;0.1490;-0.0836;
794.4000;0.1490;-0.0860;
794.7000;0.1498;-0.0789;
795.0000;0.1490;-0.0860;
795.3000;0.1473;-0.0932;
795.6000;0.1441;-0.0980;
795.9000;0.1506;-0.0741;
796.2000;0.1490;-0.0789;
796.5000;0.1473;-0.0908;
796.8000;0.1490;-0.0812;
797.1000;0.1481;-0.0836;
797.4000;0.1481;-0.0836;
797.7000;0.1481;-0.0812;
798.0000;0.1498;-0.0741;
798.3000;0.1506;-0.0669;
798.6000;0.1506;-0.0645;
798.9000;0.1481;-0.0669;
799.2000;0.1498;-0.0669;
799.5000;0.1498;-0.0717;
799.8000;0.1481;-0.0765;
800.1000;0.1498;-0.0717;
800.4000;0.1498;-0.0717;
800.7000;0.1498;-0.0741;
801.0000;0.1473;-0.0741;
801.3000;0.1514;-0.0669;
801.6000;0.1473;-0.0765;
801.9000;0.1481;-0.0789;
802.2000;0.1555;-0.0597;
802.5000;0.1514;-0.0717;
802.8000;0.1490;-0.0765;
803.1000;0.1514;-0.0789;
803.4000;0.1498;-0.0789;
803.7000;0.1481;-0.0884;
804.0000;0.1506;-0.0765;
804.3000;0.1547;-0.0597;
804.6000;0.1490;-0.0741;
804.9000;0.1498;-0.0717;
805.2000;0.1514;-0.0645;
805.5000;0.1547;-0.0502;
805.8000;0.1457;-0.0789;
806.1000;0.1433;-0.0765;
806.4000;0.1449;-0.0812;
806.7000;0.1563;-0.0574;
807.0000;0.1392;-0.1099;
807.3000;0.1530;-0.0860;
807.6000;0.1465;-0.1004;
807.9000;0.1506;-0.0884;
808.2000;0.1522;-0.0860;
808.5000;0.1514;-0.0884;
808.8000;0.1490;-0.0860;
809.1000;0.1587;-0.0645;
809.4000;0.1449;-0.1051;
809.7000;0.1506;-0.0884;
810.0000;0.1514;-0.0884;
810.3000;0.1555;-0.0717;
810.6000;0.1514;-0.0836;
810.9000;0.1506;-0.0789;
811.2000;0.1490;-0.0812;
811.5000;0.1498;-0.0812;
811.8000;0.1506;-0.0765;
812.1000;0.1490;-0.0908;
812.4000;0.1514;-0.0932;
812.7000;0.1498;-0.1051;
813.0000;0.1498;-0.1099;
813.3000;0.1490;-0.1075;
813.6000;0.1538;-0.1004;
813.9000;0.1490;-0.1028;
814.2000;0.1457;-0.1099;
814.5000;0.1490;-0.0956;
814.8000;0.1498;-0.0908;
815.1000;0.1514;-0.0765;
815.4000;0.1498;-0.0765;
815.7000;0.1481;-0.0812;
816.0000;0.1473;-0.0932;
816.3000;0.1465;-0.0932;
816.6000;0.1498;-0.0860;
816.9000;0.1490;-0.0884;
817.2000;0.1473;-0.0836;
817.5000;0.1498;-0.0836;
817.8000;0.1514;-0.0765;
818.1000;0.1490;-0.0789;
818.4000;0.1498;-0.0812;
818.7000;0.1514;-0.0812;
819.0000;0.1490;-0.0860;
819.3000;0.1465;-0.1004;
819.6000;0.1498;-0.0956;
819.9000;0.1481;-0.0908;
820.2000;0.1555;-0.0741;
820.5000;0.1481;-0.0884;
820.8000;0.1490;-0.0956;
821.1000;0.1481;-0.0932;
821.4000;0.1498;-0.0908;
821.7000;0.1498;-0.0765;
822.0000;0.1506;-0.0789;
822.3000;0.1457;-0.0789;
822.6000;0.1506;-0.0717;
822.9000;0.1522;-0.0669;
823.2000;0.1555;-0.0550;
823.5000;0.1514;-0.0645;
823.8000;0.1498;-0.0645;
824.1000;0.1555;-0.0478;
824.4000;0.1465;-0.0717;
824.7000;0.1506;-0.0717;
825.0000;0.1441;-0.0908;
825.3000;0.1498;-0.0765;
825.6000;0.1425;-0.0908;
825.9000;0.1506;-0.0645;
826.2000;0.1481;-0.0669;
826.5000;0.1481;-0.0693;
826.8000;0.1465;-0.0741;
827.1000;0.1481;-0.0717;
827.4000;0.1498;-0.0574;
827.7000;0.1425;-0.0789;
828.0000;0.1481;-0.0693;
828.3000;0.1498;-0.0717;
828.6000;0.1368;-0.1075;
828.9000;0.1530;-0.0645;
829.2000;0.1506;-0.0741;
829.5000;0.1506;-0.0789;
829.8000;0.1498;-0.0789;
830.1000;0.1490;-0.0789;
830.4000;0.1538;-0.0669;
830.7000;0.1514;-0.0812;
831.0000;0.1498;-0.0860;
831.3000;0.1506;-0.0860;
831.6000;0.1490;-0.0789;
831.9000;0.1498;-0.0741;
832.2000;0.1481;-0.0765;
832.5000;0.1522;-0.0574;
832.8000;0.1530;-0.0645;
833.1000;0.1530;-0.0597;
833.4000;0.1506;-0.0693;
833.7000;0.1481;-0.0741;
834.0000;0.1571;-0.0478;
834.3000;0.1498;-0.0574;
834.6000;0.1490;-0.0621;
834.9000;0.1473;-0.0741;
835.2000;0.1506;-0.0717;
835.5000;0.1481;-0.0741;
835.8000;0.1473;-0.0717;
836.1000;0.1506;-0.0717;
836.4000;0.1530;-0.0741;
836.7000;0.1490;-0.0717;
837.0000;0.1384;-0.1028;
837.3000;0.1579;-0.0526;
837.6000;0.1506;-0.0812;
837.9000;0.1490;-0.0765;
838.2000;0.1457;-0.0908;
838.5000;0.1490;-0.0812;
838.8000;0.1490;-0.0741;
839.1000;0.1433;-0.0836;
839.4000;0.1481;-0.0597;
839.7000;0.1514;-0.0526;
840.0000;0.1506;-0.0645;
840.3000;0.1465;-0.0645;
840.6000;0.1473;-0.0693;
840.9000;0.1498;-0.0669;
841.2000;0.1457;-0.0789;
841.5000;0.1498;-0.0765;
841.8000;0.1425;-0.0932;
842.1000;0.1449;-0.0812;
842.4000;0.1506;-0.0693;
842.7000;0.1530;-0.0574;
843.0000;0.1490;-0.0597;
843.3000;0.1490;-0.0574;
843.6000;0.1481;-0.0597;
843.9000;0.1498;-0.0597;
844.2000;0.1506;-0.0669;
844.5000;0.1506;-0.0741;
844.8000;0.1481;-0.0860;
845.1000;0.1514;-0.0836;
845.4000;0.1530;-0.0789;
845.7000;0.1506;-0.0860;
846.0000;0.1571;-0.0693;
846.3000;0.1490;-0.0884;
846.6000;0.1498;-0.0884;
846.9000;0.1465;-0.0860;
847.2000;0.1498;-0.0765;
847.5000;0.1498;-0.0741;
847.8000;0.1481;-0.0669;
848.1000;0.1506;-0.0645;
848.4000;0.1481;-0.0645;
848.7000;0.1481;-0.0717;
849.0000;0.1555;-0.0502;
849.3000;0.1498;-0.0621;
849.6000;0.1563;-0.0526;
849.9000;0.1506;-0.0645;
850.2000;0.1490;-0.0645;
850.5000;0.1538;-0.0526;
850.8000;0.1514;-0.0717;
851.1000;0.1530;-0.0645;
851.4000;0.1449;-0.0836;
851.7000;0.1490;-0.0693;
852.0000;0.1408;-0.0956;
852.3000;0.1514;-0.0693;
852.6000;0.1490;-0.0765;
852.9000;0.1481;-0.0812;
853.2000;0.1506;-0.0765;
853.5000;0.1506;-0.0645;
853.8000;0.1481;-0.0693;
854.1000;0.1481;-0.0717;
854.4000;0.1498;-0.0693;
854.7000;0.1506;-0.0717;
855.0000;0.1530;-0.0669;
855.3000;0.1498;-0.0789;
855.6000;0.1506;-0.0765;
855.9000;0.1514;-0.0717;
856.2000;0.1514;-0.0741;
856.5000;0.1506;-0.0741;
856.8000;0.1490;-0.0789;
857.1000;0.1506;-0.0789;
857.4000;0.1498;-0.0789;
857.7000;0.1498;-0.0789;
858.0000;0.1498;-0.0860;
858.3000;0.1498;-0.0884;
858.6000;0.1481;-0.0908;
858.9000;0.1490;-0.0860;
859.2000;0.1481;-0.0860;
859.5000;0.1514;-0.0741;
859.8000;0.1498;-0.0789;
860.1000;0.1449;-0.0956;
860.4000;0.1522;-0.0741;
860.7000;0.1392;-0.1051;
861.0000;0.1498;-0.0765;
861.3000;0.1538;-0.0717;
861.6000;0.1506;-0.0765;
861.9000;0.1441;-0.0932;
862.2000;0.1555;-0.0597;
862.5000;0.1498;-0.0645;
862.8000;0.1490;-0.0669;
863.1000;0.1368;-0.1051;
863.4000;0.1522;-0.0693;
863.7000;0.1514;-0.0645;
864.0000;0.1514;-0.0669;
864.3000;0.1473;-0.0669;
864.6000;0.1579;-0.0478;
864.9000;0.1481;-0.0789;
865.2000;0.1514;-0.0645;
865.5000;0.1506;-0.0597;
865.8000;0.1465;-0.0741;
866.1000;0.1571;-0.0382;
866.4000;0.1506;-0.0574;
866.7000;0.1490;-0.0669;
867.0000;0.1514;-0.0574;
867.3000;0.1473;-0.0669;
867.6000;0.1547;-0.0454;
867.9000;0.1506;-0.0550;
868.2000;0.1473;-0.0717;
868.5000;0.1490;-0.0717;
868.8000;0.1481;-0.0789;
869.1000;0.1481;-0.0860;
869.4000;0.1498;-0.0836;
869.7000;0.1473;-0.0812;
870.0000;0.1473;-0.0860;
870.3000;0.1498;-0.0597;
870.6000;0.1490;-0.0669;
870.9000;0.1506;-0.0621;
871.2000;0.1498;-0.0621;
871.5000;0.1514;-0.0621;
871.8000;0.1498;-0.0645;
872.1000;0.1481;-0.0741;
872.4000;0.1506;-0.0693;
872.7000;0.1506;-0.0645;
873.0000;0.1457;-0.0693;
873.3000;0.1547;-0.0478;
873.6000;0.1506;-0.0526;
873.9000;0.1498;-0.0621;
874.2000;0.1506;-0.0597;
874.5000;0.1522;-0.0597;
874.8000;0.1506;-0.0550;
875.1000;0.1498;-0.0478;
875.4000;0.1514;-0.0382;
875.7000;0.1498;-0.0574;
876.0000;0.1506;-0.0621;
876.3000;0.1490;-0.0789;
876.6000;0.1506;-0.0741;
876.9000;0.1514;-0.0717;
877.2000;0.1506;-0.0741;
877.5000;0.1538;-0.0693;
877.8000;0.1490;-0.0741;
878.1000;0.1490;-0.0741;
878.4000;0.1506;-0.0693;
878.7000;0.1514;-0.0669;
879.0000;0.1481;-0.0789;
879.3000;0.1514;-0.0836;
879.6000;0.1506;-0.0860;
879.9000;0.1522;-0.0789;
880.2000;0.1473;-0.0860;
880.5000;0.1441;-0.0932;
880.8000;0.1506;-0.0669;
881.1000;0.1481;-0.0574;
881.4000;0.1490;-0.0597;
881.7000;0.1490;-0.0693;
882.0000;0.1490;-0.0741;
882.3000;0.1465;-0.0765;
882.6000;0.1473;-0.0741;
882.9000;0.1498;-0.0597;
883.2000;0.1522;-0.0502;
883.5000;0.1490;-0.0621;
883.8000;0.1498;-0.0574;
884.1000;0.1498;-0.0454;
884.4000;0.1457;-0.0574;
884.7000;0.1498;-0.0526;
885.0000;0.1490;-0.0526;
885.3000;0.1506;-0.0502;
885.6000;0.1481;-0.0574;
885.9000;0.1490;-0.0597;
886.2000;0.1555;-0.0382;
886.5000;0.1481;-0.0550;
886.8000;0.1506;-0.0502;
887.1000;0.1490;-0.0526;
887.4000;0.1498;-0.0550;
887.7000;0.1522;-0.0526;
888.0000;0.1481;-0.0645;
888.3000;0.1498;-0.0645;
888.6000;0.1530;-0.0574;
888.9000;0.1490;-0.0645;
889.2000;0.1506;-0.0550;
889.5000;0.1498;-0.0597;
889.8000;0.1514;-0.0621;
890.1000;0.1498;-0.0741;
890.4000;0.1490;-0.0741;
890.7000;0.1506;-0.0621;
891.0000;0.1498;-0.0693;
891.3000;0.1490;-0.0693;
891.6000;0.1490;-0.0717;
891.9000;0.1506;-0.0645;
892.2000;0.1514;-0.0645;
892.5000;0.1490;-0.0693;
892.8000;0.1506;-0.0621;
893.1000;0.1481;-0.0669;
893.4000;0.1425;-0.0860;
893.7000;0.1506;-0.0669;
894.0000;0.1506;-0.0574;
894.3000;0.1498;-0.0621;
894.6000;0.1498;-0.0645;
894.9000;0.1506;-0.0621;
895.2000;0.1587;-0.0454;
895.5000;0.1506;-0.0645;
895.8000;0.1481;-0.0645;
896.1000;0.1498;-0.0621;
896.4000;0.1522;-0.0621;
896.7000;0.1514;-0.0621;
897.0000;0.1595;-0.0430;
897.3000;0.1522;-0.0597;
897.6000;0.1522;-0.0645;
897.9000;0.1498;-0.0717;
898.2000;0.1506;-0.0693;
898.5000;0.1506;-0.0621;
898.8000;0.1514;-0.0621;
899.1000;0.1481;-0.0717;
899.4000;0.1506;-0.0693;
899.7000;0.1465;-0.0860;
900.0000;0.1506;-0.0717;
900.3000;0.1498;-0.0693;
900.6000;0.1522;-0.0717;
900.9000;0.1490;-0.0669;
901.2000;0.1481;-0.0765;
901.5000;0.1473;-0.0860;
901.8000;0.1530;-0.0741;
902.1000;0.1506;-0.0789;
902.4000;0.1449;-0.0860;
902.7000;0.1530;-0.0693;
903.0000;0.1498;-0.0741;
903.3000;0.1530;-0.0717;
903.6000;0.1506;-0.0741;
903.9000;0.1506;-0.0789;
904.2000;0.1481;-0.0812;
904.5000;0.1490;-0.0765;
904.8000;0.1481;-0.0741;
905.1000;0.1506;-0.0812;
905.4000;0.1498;-0.0765;
905.7000;0.1506;-0.0693;
906.0000;0.1490;-0.0789;
906.3000;0.1473;-0.0860;
906.6000;0.1514;-0.0789;
906.9000;0.1628;-0.0645;
907.2000;0.1498;-0.1004;
907.5000;0.1481;-0.0932;
907.8000;0.1522;-0.0836;
908.1000;0.1490;-0.0884;
908.4000;0.1498;-0.0860;
908.7000;0.1514;-0.0836;
909.0000;0.1514;-0.0860;
909.3000;0.1506;-0.0789;
909.6000;0.1506;-0.0860;
909.9000;0.1490;-0.0860;
910.2000;0.1449;-0.0956;
910.5000;0.1506;-0.0789;
910.8000;0.1514;-0.0765;
911.1000;0.1498;-0.0812;
911.4000;0.1481;-0.0789;
911.7000;0.1514;-0.0693;
912.0000;0.1490;-0.0669;
912.3000;0.1490;-0.0693;
912.6000;0.1612;-0.0358;
912.9000;0.1514;-0.0550;
913.2000;0.1481;-0.0645;
913.5000;0.1498;-0.0621;
913.8000;0.1506;-0.0597;
914.1000;0.1514;-0.0597;
914.4000;0.1506;-0.0669;
914.7000;0.1506;-0.0621;
915.0000;0.1522;-0.0550;
915.3000;0.1498;-0.0621;
915.6000;0.1441;-0.0836;
915.9000;0.1498;-0.0717;
916.2000;0.1481;-0.0645;
916.5000;0.1506;-0.0597;
916.8000;0.1506;-0.0406;
917.1000;0.1457;-0.0621;
917.4000;0.1481;-0.0574;
917.7000;0.1498;-0.0574;
918.0000;0.1465;-0.0669;
918.3000;0.1449;-0.0765;
918.6000;0.1392;-0.0908;
918.9000;0.1481;-0.0645;
919.2000;0.1490;-0.0693;
919.5000;0.1490;-0.0741;
919.8000;0.1490;-0.0765;
920.1000;0.1490;-0.0741;
920.4000;0.1400;-0.1028;
920.7000;0.1514;-0.0669;
921.0000;0.1449;-0.0884;
921.3000;0.1498;-0.0765;
921.6000;0.1441;-0.0980;
921.9000;0.1498;-0.0717;
922.2000;0.1514;-0.0693;
922.5000;0.1506;-0.0741;
922.8000;0.1473;-0.0717;
923.1000;0.1498;-0.0621;
923.4000;0.1490;-0.0645;
923.7000;0.1481;-0.0693;
924.0000;0.1425;-0.0741;
924.3000;0.1506;-0.0574;
924.6000;0.1498;-0.0621;
924.9000;0.1612;-0.0311;
925.2000;0.1473;-0.0693;
925.5000;0.1490;-0.0621;
925.8000;0.1522;-0.0597;
926.1000;0.1392;-0.0884;
926.4000;0.1481;-0.0645;
926.7000;0.1481;-0.0645;
927.0000;0.1612;-0.0239;
927.3000;0.1392;-0.0884;
927.6000;0.1514;-0.0645;
927.9000;0.1481;-0.0645;
928.2000;0.1490;-0.0597;
928.5000;0.1498;-0.0621;
928.8000;0.1538;-0.0502;
929.1000;0.1506;-0.0621;
929.4000;0.1473;-0.0765;
929.7000;0.1522;-0.0669;
930.0000;0.1473;-0.0789;
930.3000;0.1481;-0.0717;
930.6000;0.1530;-0.0597;
930.9000;0.1498;-0.0621;
931.2000;0.1481;-0.0645;
931.5000;0.1490;-0.0597;
931.8000;0.1506;-0.0526;
932.1000;0.1506;-0.0478;
932.4000;0.1498;-0.0574;
932.7000;0.1498;-0.0574;
933.0000;0.1514;-0.0526;
933.3000;0.1498;-0.0645;
933.6000;0.1555;-0.0597;
933.9000;0.1490;-0.0741;
934.2000;0.1457;-0.0765;
934.5000;0.1498;-0.0717;
934.8000;0.1457;-0.0765;
935.1000;0.1473;-0.0741;
935.4000;0.1498;-0.0717;
935.7000;0.1498;-0.0693;
936.0000;0.1514;-0.0597;
936.3000;0.1449;-0.0765;
936.6000;0.1563;-0.0406;
936.9000;0.1498;-0.0526;
937.2000;0.1506;-0.0502;
937.5000;0.1514;-0.0406;
937.8000;0.1490;-0.0454;
938.1000;0.1465;-0.0550;
938.4000;0.1498;-0.0430;
938.7000;0.1514;-0.0478;
939.0000;0.1481;-0.0574;
939.3000;0.1490;-0.0574;
939.6000;0.1498;-0.0621;
939.9000;0.1555;-0.0502;
940.2000;0.1506;-0.0526;
940.5000;0.1490;-0.0574;
940.8000;0.1538;-0.0502;
941.1000;0.1514;-0.0550;
941.4000;0.1481;-0.0621;
941.7000;0.1530;-0.0526;
942.0000;0.1506;-0.0550;
942.3000;0.1441;-0.0621;
942.6000;0.1514;-0.0502;
942.9000;0.1481;-0.0526;
943.2000;0.1490;-0.0550;
943.5000;0.1514;-0.0526;
943.8000;0.1506;-0.0526;
944.1000;0.1498;-0.0550;
944.4000;0.1498;-0.0574;
944.7000;0.1498;-0.0574;
945.0000;0.1473;-0.0717;
945.3000;0.1490;-0.0812;
945.6000;0.1481;-0.0789;
945.9000;0.1571;-0.0454;
946.2000;0.1481;-0.0765;
946.5000;0.1473;-0.0789;
946.8000;0.1538;-0.0621;
947.1000;0.1522;-0.0693;
947.4000;0.1498;-0.0741;
947.7000;0.1498;-0.0621;
948.0000;0.1522;-0.0597;
948.3000;0.1506;-0.0645;
948.6000;0.1481;-0.0812;
948.9000;0.1473;-0.0765;
949.2000;0.1481;-0.0741;
949.5000;0.1498;-0.0741;
949.8000;0.1506;-0.0693;
950.1000;0.1449;-0.0789;
950.4000;0.1457;-0.0741;
950.7000;0.1522;-0.0597;
951.0000;0.1555;-0.0502;
951.3000;0.1498;-0.0693;
951.6000;0.1498;-0.0812;
951.9000;0.1481;-0.0812;
952.2000;0.1522;-0.0693;
952.5000;0.1498;-0.0621;
952.8000;0.1506;-0.0621;
953.1000;0.1433;-0.0765;
953.4000;0.1473;-0.0693;
953.7000;0.1473;-0.0741;
954.0000;0.1498;-0.0669;
954.3000;0.1473;-0.0741;
954.6000;0.1490;-0.0789;
954.9000;0.1465;-0.0765;
955.2000;0.1473;-0.0621;
955.5000;0.1490;-0.0645;
955.8000;0.1498;-0.0621;
956.1000;0.1473;-0.0717;
956.4000;0.1490;-0.0741;
956.7000;0.1400;-0.1028;
957.0000;0.1481;-0.0789;
957.3000;0.1506;-0.0741;
957.6000;0.1433;-0.0932;
957.9000;0.1490;-0.0765;
958.2000;0.1514;-0.0765;
958.5000;0.1481;-0.0932;
958.8000;0.1481;-0.0860;
959.1000;0.1538;-0.0789;
959.4000;0.1522;-0.0765;
959.7000;0.1408;-0.0980;
960.0000;0.1490;-0.0717;
960.3000;0.1441;-0.0884;
960.6000;0.1506;-0.0741;
960.9000;0.1498;-0.0765;
961.2000;0.1473;-0.0836;
961.5000;0.1506;-0.0789;
961.8000;0.1490;-0.0860;
962.1000;0.1498;-0.0836;
962.4000;0.1481;-0.0789;
962.7000;0.1506;-0.0693;
963.0000;0.1595;-0.0430;
963.3000;0.1506;-0.0621;
963.6000;0.1514;-0.0526;
963.9000;0.1514;-0.0574;
964.2000;0.1514;-0.0574;
964.5000;0.1465;-0.0645;
964.8000;0.1498;-0.0502;
965.1000;0.1498;-0.0550;
965.4000;0.1530;-0.0502;
965.7000;0.1498;-0.0550;
966.0000;0.1530;-0.0526;
966.3000;0.1481;-0.0597;
966.6000;0.1481;-0.0669;
966.9000;0.1530;-0.0526;
967.2000;0.1514;-0.0574;
967.5000;0.1506;-0.0621;
967.8000;0.1498;-0.0669;
968.1000;0.1506;-0.0669;
968.4000;0.1490;-0.0812;
968.7000;0.1498;-0.0812;
969.0000;0.1490;-0.0884;
969.3000;0.1514;-0.0741;
969.6000;0.1514;-0.0741;
969.9000;0.1514;-0.0669;
970.2000;0.1498;-0.0741;
970.5000;0.1522;-0.0550;
970.8000;0.1490;-0.0741;
971.1000;0.1530;-0.0574;
971.4000;0.1449;-0.0717;
971.7000;0.1506;-0.0526;
972.0000;0.1481;-0.0550;
972.3000;0.1579;-0.0287;
972.6000;0.1506;-0.0502;
972.9000;0.1490;-0.0550;
973.2000;0.1522;-0.0382;
973.5000;0.1498;-0.0478;
973.8000;0.1498;-0.0478;
974.1000;0.1473;-0.0597;
974.4000;0.1498;-0.0574;
974.7000;0.1530;-0.0502;
975.0000;0.1514;-0.0621;
975.3000;0.1506;-0.0645;
975.6000;0.1498;-0.0741;
975.9000;0.1498;-0.0693;
976.2000;0.1506;-0.0574;
976.5000;0.1490;-0.0669;
976.8000;0.1490;-0.0645;
977.1000;0.1449;-0.0789;
977.4000;0.1506;-0.0645;
977.7000;0.1506;-0.0669;
978.0000;0.1490;-0.0765;
978.3000;0.1490;-0.0789;
978.6000;0.1498;-0.0741;
978.9000;0.1522;-0.0645;
979.2000;0.1563;-0.0502;
979.5000;0.1473;-0.0789;
979.8000;0.1522;-0.0574;
980.1000;0.1498;-0.0669;
980.4000;0.1514;-0.0645;
980.7000;0.1506;-0.0741;
981.0000;0.1506;-0.0717;
981.3000;0.1433;-0.0884;
981.6000;0.1433;-0.0932;
981.9000;0.1465;-0.0836;
982.2000;0.1514;-0.0812;
982.5000;0.1498;-0.0789;
982.8000;0.1481;-0.0836;
983.1000;0.1473;-0.0908;
983.4000;0.1498;-0.0765;
983.7000;0.1490;-0.0741;
984.0000;0.1490;-0.0789;
984.3000;0.1490;-0.0812;
984.6000;0.1490;-0.0836;
984.9000;0.1481;-0.0812;
985.2000;0.1506;-0.0693;
985.5000;0.1498;-0.0741;
985.8000;0.1433;-0.0860;
986.1000;0.1473;-0.0836;
986.4000;0.1498;-0.0717;
986.7000;0.1481;-0.0836;
987.0000;0.1498;-0.0860;
987.3000;0.1498;-0.0860;
987.6000;0.1481;-0.0836;
987.9000;0.1481;-0.0789;
988.2000;0.1490;-0.0741;
988.5000;0.1498;-0.0597;
988.8000;0.1481;-0.0717;
989.1000;0.1506;-0.0693;
989.4000;0.1351;-0.1075;
989.7000;0.1498;-0.0645;
990.0000;0.1473;-0.0621;
990.3000;0.1473;-0.0669;
990.6000;0.1498;-0.0574;
990.9000;0.1514;-0.0550;
991.2000;0.1522;-0.0478;
991.5000;0.1498;-0.0454;
991.8000;0.1506;-0.0311;
992.1000;0.1522;-0.0335;
992.4000;0.1498;-0.0358;
992.7000;0.1498;-0.0526;
993.0000;0.1522;-0.0478;
993.3000;0.1490;-0.0621;
993.6000;0.1506;-0.0621;
993.9000;0.1490;-0.0621;
994.2000;0.1547;-0.0574;
994.5000;0.1506;-0.0574;
994.8000;0.1498;-0.0574;
995.1000;0.1498;-0.0574;
995.4000;0.1538;-0.0478;
995.7000;0.1498;-0.0597;
996.0000;0.1498;-0.0550;
996.3000;0.1514;-0.0550;
996.6000;0.1506;-0.0574;
996.9000;0.1514;-0.0574;
997.2000;0.1506;-0.0597;
997.5000;0.1433;-0.0765;
997.8000;0.1481;-0.0574;
998.1000;0.1522;-0.0454;
998.4000;0.1514;-0.0621;
998.7000;0.1481;-0.0669;
999.0000;0.1490;-0.0574;
999.3000;0.1490;-0.0502;
999.6000;0.1481;-0.0478;
999.9000;0.1490;-0.0478;
1000.2000;0.1506;-0.0406;
1000.5000;0.1498;-0.0406;
1000.8000;0.1490;-0.0478;
1001.1000;0.1473;-0.0502;
1001.4000;0.1481;-0.0382;
1001.7000;0.1506;-0.0215;
1002.0000;0.1506;-0.0215;
1002.3000;0.1514;-0.0263;
1002.6000;0.1506;-0.0311;
1002.9000;0.1498;-0.0382;
1003.2000;0.1481;-0.0502;
1003.5000;0.1522;-0.0478;
1003.8000;0.1481;-0.0621;
1004.1000;0.1490;-0.0526;
1004.4000;0.1522;-0.0335;
1004.7000;0.1490;-0.0430;
1005.0000;0.1498;-0.0430;
1005.3000;0.1514;-0.0406;
1005.6000;0.1514;-0.0478;
1005.9000;0.1506;-0.0526;
1006.2000;0.1498;-0.0526;
1006.5000;0.1490;-0.0645;
1006.8000;0.1473;-0.0693;
1007.1000;0.1498;-0.0550;
1007.4000;0.1490;-0.0526;
1007.7000;0.1506;-0.0478;
1008.0000;0.1490;-0.0574;
1008.3000;0.1490;-0.0597;
1008.6000;0.1506;-0.0550;
1008.9000;0.1490;-0.0550;
1009.2000;0.1498;-0.0478;
1009.5000;0.1522;-0.0335;
1009.8000;0.1506;-0.0358;
1010.1000;0.1506;-0.0430;
1010.4000;0.1384;-0.0812;
1010.7000;0.1506;-0.0502;
1011.0000;0.1498;-0.0526;
1011.3000;0.1481;-0.0597;
1011.6000;0.1481;-0.0621;
1011.9000;0.1538;-0.0526;
1012.2000;0.1490;-0.0645;
1012.5000;0.1506;-0.0574;
1012.8000;0.1490;-0.0597;
1013.1000;0.1522;-0.0526;
1013.4000;0.1490;-0.0550;
1013.7000;0.1490;-0.0669;
1014.0000;0.1514;-0.0621;
1014.3000;0.1490;-0.0621;
1014.6000;0.1498;-0.0645;
1014.9000;0.1498;-0.0621;
1015.2000;0.1514;-0.0717;
1015.5000;0.1514;-0.0693;
1015.8000;0.1465;-0.0812;
1016.1000;0.1498;-0.0717;
1016.4000;0.1522;-0.0693;
1016.7000;0.1514;-0.0693;
1017.0000;0.1473;-0.0836;
1017.3000;0.1490;-0.0765;
1017.6000;0.1498;-0.0669;
1017.9000;0.1498;-0.0717;
1018.2000;0.1498;-0.0741;
1018.5000;0.1506;-0.0789;
1018.8000;0.1506;-0.0789;
1019.1000;0.1481;-0.0860;
1019.4000;0.1530;-0.0693;
1019.7000;0.1498;-0.0812;
1020.0000;0.1473;-0.0789;
1020.3000;0.1490;-0.0765;
1020.6000;0.1490;-0.0717;
1020.9000;0.1425;-0.0860;
1021.2000;0.1498;-0.0621;
1021.5000;0.1490;-0.0621;
1021.8000;0.1490;-0.0621;
1022.1000;0.1490;-0.0597;
1022.4000;0.1498;-0.0574;
1022.7000;0.1481;-0.0693;
1023.0000;0.1490;-0.0741;
1023.3000;0.1506;-0.0741;
1023.6000;0.1498;-0.0765;
1023.9000;0.1506;-0.0741;
1024.2000;0.1498;-0.0836;
1024.5000;0.1465;-0.0932;
1024.8000;0.1481;-0.0860;
1025.1000;0.1506;-0.0789;
1025.4000;0.1506;-0.0765;
1025.7000;0.1514;-0.0789;
1026.0000;0.1514;-0.0836;
1026.3000;0.1490;-0.0860;
1026.6000;0.1498;-0.0860;
1026.9000;0.1636;-0.0526;
1027.2000;0.1514;-0.0812;
1027.5000;0.1506;-0.0812;
1027.8000;0.1490;-0.0741;
1028.1000;0.1514;-0.0645;
1028.4000;0.1481;-0.0669;
1028.7000;0.1498;-0.0669;
1029.0000;0.1498;-0.0621;
1029.3000;0.1498;-0.0597;
1029.6000;0.1441;-0.0693;
1029.9000;0.1514;-0.0550;
1030.2000;0.1498;-0.0645;
1030.5000;0.1514;-0.0621;
1030.8000;0.1514;-0.0669;
1031.1000;0.1498;-0.0741;
1031.4000;0.1490;-0.0717;
1031.7000;0.1473;-0.0789;
1032.0000;0.1498;-0.0717;
1032.3000;0.1498;-0.0765;
1032.6000;0.1473;-0.0860;
1032.9000;0.1587;-0.0526;
1033.2000;0.1514;-0.0693;
1033.5000;0.1473;-0.0836;
1033.8000;0.1498;-0.0765;
1034.1000;0.1490;-0.0717;
1034.4000;0.1481;-0.0812;
1034.7000;0.1498;-0.0765;
1035.0000;0.1490;-0.0812;
1035.3000;0.1490;-0.0812;
1035.6000;0.1514;-0.0741;
1035.9000;0.1498;-0.0717;
1036.2000;0.1498;-0.0741;
1036.5000;0.1563;-0.0574;
1036.8000;0.1506;-0.0765;
1037.1000;0.1473;-0.0812;
1037.4000;0.1473;-0.0669;
1037.7000;0.1498;-0.0597;
1038.0000;0.1514;-0.0597;
1038.3000;0.1522;-0.0574;
1038.6000;0.1555;-0.0550;
1038.9000;0.1481;-0.0765;
1039.2000;0.1506;-0.0669;
1039.5000;0.1514;-0.0597;
1039.8000;0.1498;-0.0621;
1040.1000;0.1506;-0.0597;
1040.4000;0.1498;-0.0621;
1040.7000;0.1490;-0.0693;
1041.0000;0.1555;-0.0526;
1041.3000;0.1498;-0.0621;
1041.6000;0.1490;-0.0645;
1041.9000;0.1490;-0.0621;
1042.2000;0.1587;-0.0502;
1042.5000;0.1498;-0.0717;
1042.8000;0.1473;-0.0932;
1043.1000;0.1498;-0.0932;
1043.4000;0.1514;-0.0860;
1043.7000;0.1490;-0.0908;
1044.0000;0.1490;-0.0884;
1044.3000;0.1384;-0.1147;
1044.6000;0.1506;-0.0908;
1044.9000;0.1506;-0.0860;
1045.2000;0.1481;-0.0956;
1045.5000;0.1498;-0.0932;
1045.8000;0.1514;-0.0932;
1046.1000;0.1538;-0.0884;
1046.4000;0.1498;-0.0980;
1046.7000;0.1514;-0.0860;
1047.0000;0.1506;-0.0836;
1047.3000;0.1522;-0.0765;
1047.6000;0.1498;-0.0789;
1047.9000;0.1514;-0.0693;
1048.2000;0.1481;-0.0812;
1048.5000;0.1490;-0.0884;
1048.8000;0.1506;-0.0741;
1049.1000;0.1498;-0.0741;
1049.4000;0.1473;-0.0812;
1049.7000;0.1506;-0.0765;
1050.0000;0.1433;-0.0980;
1050.3000;0.1514;-0.0765;
1050.6000;0.1498;-0.0789;
1050.9000;0.1481;-0.0765;
1051.2000;0.1538;-0.0669;
1051.5000;0.1506;-0.0812;
1051.8000;0.1514;-0.0812;
1052.1000;0.1571;-0.0669;
1052.4000;0.1514;-0.0836;
1052.7000;0.1506;-0.0860;
1053.0000;0.1425;-0.1075;
1053.3000;0.1514;-0.0836;
1053.6000;0.1498;-0.0789;
1053.9000;0.1514;-0.0789;
1054.2000;0.1473;-0.0956;
1054.5000;0.1506;-0.0908;
1054.8000;0.1498;-0.0932;
1055.1000;0.1498;-0.0789;
1055.4000;0.1498;-0.0717;
1055.7000;0.1481;-0.0693;
1056.0000;0.1530;-0.0574;
1056.3000;0.1506;-0.0717;
1056.6000;0.1498;-0.0765;
1056.9000;0.1498;-0.0765;
1057.2000;0.1506;-0.0741;
1057.5000;0.1547;-0.0669;
1057.8000;0.1506;-0.0765;
1058.1000;0.1481;-0.0789;
1058.4000;0.1490;-0.0765;
1058.7000;0.1530;-0.0693;
1059.0000;0.1498;-0.0621;
1059.3000;0.1498;-0.0597;
1059.6000;0.1490;-0.0669;
1059.9000;0.1506;-0.0717;
1060.2000;0.1538;-0.0693;
1060.5000;0.1449;-0.1004;
1060.8000;0.1498;-0.0812;
1061.1000;0.1490;-0.0860;
1061.4000;0.1498;-0.0836;
1061.7000;0.1514;-0.0693;
1062.0000;0.1490;-0.0717;
1062.3000;0.1506;-0.0717;
1062.6000;0.1441;-0.0812;
1062.9000;0.1506;-0.0717;
1063.2000;0.1506;-0.0741;
1063.5000;0.1506;-0.0741;
1063.8000;0.1514;-0.0789;
1064.1000;0.1490;-0.0860;
1064.4000;0.1449;-0.0980;
1064.7000;0.1498;-0.0860;
1065.0000;0.1522;-0.0789;
1065.3000;0.1530;-0.0765;
1065.6000;0.1490;-0.0884;
1065.9000;0.1490;-0.0812;
1066.2000;0.1522;-0.0741;
1066.5000;0.1514;-0.0765;
1066.8000;0.1514;-0.0717;
1067.1000;0.1384;-0.1004;
1067.4000;0.1425;-0.0860;
1067.7000;0.1506;-0.0645;
1068.0000;0.1481;-0.0669;
1068.3000;0.1498;-0.0574;
1068.6000;0.1490;-0.0597;
1068.9000;0.1506;-0.0574;
1069.2000;0.1522;-0.0550;
1069.5000;0.1481;-0.0645;
1069.8000;0.1506;-0.0597;
1070.1000;0.1441;-0.0884;
1070.4000;0.1490;-0.0812;
1070.7000;0.1506;-0.0765;
1071.0000;0.1490;-0.0884;
1071.3000;0.1547;-0.0717;
1071.6000;0.1514;-0.0765;
1071.9000;0.1498;-0.0836;
1072.2000;0.1498;-0.0884;
1072.5000;0.1506;-0.0932;
1072.8000;0.1465;-0.1075;
1073.1000;0.1490;-0.0932;
1073.4000;0.1514;-0.0860;
1073.7000;0.1490;-0.0884;
1074.0000;0.1522;-0.0836;
1074.3000;0.1620;-0.0621;
1074.6000;0.1522;-0.0812;
1074.9000;0.1498;-0.0836;
1075.2000;0.1522;-0.0765;
1075.5000;0.1498;-0.0836;
1075.8000;0.1514;-0.0717;
1076.1000;0.1498;-0.0741;
1076.4000;0.1498;-0.0789;
1076.7000;0.1457;-0.0908;
1077.0000;0.1481;-0.0836;
1077.3000;0.1465;-0.0860;
1077.6000;0.1490;-0.0860;
1077.9000;0.1506;-0.0765;
1078.2000;0.1498;-0.0717;
1078.5000;0.1473;-0.0789;
1078.8000;0.1473;-0.0812;
1079.1000;0.1530;-0.0741;
1079.4000;0.1506;-0.0836;
1079.7000;0.1490;-0.0884;
1080.0000;0.1506;-0.0860;
1080.3000;0.1490;-0.0836;
1080.6000;0.1506;-0.0765;
1080.9000;0.1506;-0.0717;
1081.2000;0.1457;-0.0908;
1081.5000;0.1506;-0.0621;
1081.8000;0.1490;-0.0550;
1082.1000;0.1473;-0.0550;
1082.4000;0.1514;-0.0502;
1082.7000;0.1498;-0.0645;
1083.0000;0.1514;-0.0574;
1083.3000;0.1425;-0.0884;
1083.6000;0.1481;-0.0645;
1083.9000;0.1514;-0.0550;
1084.2000;0.1473;-0.0669;
1084.5000;0.1490;-0.0669;
1084.8000;0.1538;-0.0597;
1085.1000;0.1514;-0.0621;
1085.4000;0.1490;-0.0645;
1085.7000;0.1498;-0.0741;
1086.0000;0.1498;-0.0765;
1086.3000;0.1498;-0.0717;
1086.6000;0.1498;-0.0693;
1086.9000;0.1465;-0.0765;
1087.2000;0.1514;-0.0693;
1087.5000;0.1547;-0.0574;
1087.8000;0.1481;-0.0741;
1088.1000;0.1514;-0.0621;
1088.4000;0.1522;-0.0669;
1088.7000;0.1490;-0.0717;
1089.0000;0.1538;-0.0693;
1089.3000;0.1473;-0.0860;
1089.6000;0.1498;-0.0717;
1089.9000;0.1530;-0.0717;
1090.2000;0.1506;-0.0836;
1090.5000;0.1441;-0.1004;
1090.8000;0.1457;-0.0884;
1091.1000;0.1490;-0.0789;
1091.4000;0.1498;-0.0741;
1091.7000;0.1490;-0.0789;
1092.0000;0.1465;-0.0789;
1092.3000;0.1506;-0.0645;
1092.6000;0.1530;-0.0693;
1092.9000;0.1498;-0.0765;
1093.2000;0.1498;-0.0836;
1093.5000;0.1473;-0.1004;
1093.8000;0.1514;-0.0908;
1094.1000;0.1490;-0.1004;
1094.4000;0.1522;-0.0908;
1094.7000;0.1522;-0.0932;
1095.0000;0.1506;-0.0884;
1095.3000;0.1490;-0.0956;
1095.6000;0.1498;-0.0812;
1095.9000;0.1481;-0.0812;
1096.2000;0.1506;-0.0717;
1096.5000;0.1498;-0.0741;
1096.8000;0.1498;-0.0741;
1097.1000;0.1514;-0.0717;
1097.4000;0.1490;-0.0789;
1097.7000;0.1433;-0.1004;
1098.0000;0.1498;-0.0812;
1098.3000;0.1563;-0.0621;
1098.6000;0.1506;-0.0741;
1098.9000;0.1441;-0.0812;
1099.2000;0.1506;-0.0717;
1099.5000;0.1506;-0.0669;
1099.8000;0.1498;-0.0693;
1100.1000;0.1595;-0.0430;
1100.4000;0.1514;-0.0621;
1100.7000;0.1481;-0.0741;
1101.0000;0.1490;-0.0765;
1101.3000;0.1498;-0.0741;
1101.6000;0.1490;-0.0812;
1101.9000;0.1465;-0.0980;
1102.2000;0.1481;-0.0956;
1102.5000;0.1498;-0.0932;
1102.8000;0.1555;-0.0765;
1103.1000;0.1498;-0.0860;
1103.4000;0.1490;-0.0884;
1103.7000;0.1384;-0.1099;
1104.0000;0.1506;-0.0836;
1104.3000;0.1514;-0.0860;
1104.6000;0.1473;-0.1051;
1104.9000;0.1506;-0.0980;
1105.2000;0.1506;-0.0932;
1105.5000;0.1506;-0.0884;
1105.8000;0.1473;-0.0908;
1106.1000;0.1522;-0.0789;
1106.4000;0.1481;-0.0956;
1106.7000;0.1506;-0.0884;
1107.0000;0.1498;-0.0884;
1107.3000;0.1465;-0.0908;
1107.6000;0.1498;-0.0884;
1107.9000;0.1514;-0.0836;
1108.2000;0.1465;-0.0884;
1108.5000;0.1490;-0.0860;
1108.8000;0.1506;-0.0789;
1109.1000;0.1481;-0.0884;
1109.4000;0.1490;-0.0789;
1109.7000;0.1498;-0.0669;
1110.0000;0.1506;-0.0669;
1110.3000;0.1490;-0.0765;
1110.6000;0.1514;-0.0693;
1110.9000;0.1514;-0.0645;
1111.2000;0.1481;-0.0693;
1111.5000;0.1538;-0.0526;
1111.8000;0.1481;-0.0621;
1112.1000;0.1522;-0.0526;
1112.4000;0.1465;-0.0645;
1112.7000;0.1522;-0.0645;
1113.0000;0.1498;-0.0717;
1113.3000;0.1457;-0.0884;
1113.6000;0.1490;-0.0741;
1113.9000;0.1481;-0.0812;
1114.2000;0.1506;-0.0741;
1114.5000;0.1408;-0.1028;
1114.8000;0.1506;-0.0812;
1115.1000;0.1498;-0.0812;
1115.4000;0.1498;-0.0812;
1115.7000;0.1522;-0.0765;
1116.0000;0.1473;-0.0789;
1116.3000;0.1522;-0.0669;
1116.6000;0.1490;-0.0741;
1116.9000;0.1506;-0.0717;
1117.2000;0.1506;-0.0669;
1117.5000;0.1506;-0.0693;
1117.8000;0.1514;-0.0645;
1118.1000;0.1506;-0.0741;
1118.4000;0.1490;-0.0717;
1118.7000;0.1506;-0.0741;
1119.0000;0.1490;-0.0669;
1119.3000;0.1498;-0.0645;
1119.6000;0.1490;-0.0693;
1119.9000;0.1473;-0.0860;
1120.2000;0.1490;-0.0812;
1120.5000;0.1498;-0.0765;
1120.8000;0.1506;-0.0812;
1121.1000;0.1481;-0.0812;
1121.4000;0.1498;-0.0836;
1121.7000;0.1506;-0.0765;
1122.0000;0.1522;-0.0741;
1122.3000;0.1514;-0.0789;
1122.6000;0.1514;-0.0860;
1122.9000;0.1490;-0.0812;
1123.2000;0.1498;-0.0717;
1123.5000;0.1514;-0.0597;
1123.8000;0.1473;-0.0669;
1124.1000;0.1481;-0.0645;
1124.4000;0.1490;-0.0621;
1124.7000;0.1457;-0.0812;
1125.0000;0.1490;-0.0765;
1125.3000;0.1465;-0.0812;
1125.6000;0.1498;-0.0741;
1125.9000;0.1522;-0.0693;
1126.2000;0.1457;-0.0860;
1126.5000;0.1506;-0.0717;
1126.8000;0.1490;-0.0693;
1127.1000;0.1522;-0.0693;
1127.4000;0.1490;-0.0812;
1127.7000;0.1490;-0.0836;
1128.0000;0.1481;-0.0884;
1128.3000;0.1490;-0.0884;
1128.6000;0.1506;-0.0741;
1128.9000;0.1530;-0.0741;
1129.2000;0.1441;-0.0980;
1129.5000;0.1506;-0.0789;
1129.8000;0.1490;-0.0836;
1130.1000;0.1473;-0.0836;
1130.4000;0.1441;-0.0956;
1130.7000;0.1481;-0.0836;
1131.0000;0.1490;-0.0741;
1131.3000;0.1498;-0.0741;
1131.6000;0.1490;-0.0812;
1131.9000;0.1506;-0.0836;
1132.2000;0.1490;-0.0908;
1132.5000;0.1506;-0.0908;
1132.8000;0.1522;-0.0884;
1133.1000;0.1506;-0.0908;
1133.4000;0.1514;-0.0836;
1133.7000;0.1522;-0.0789;
1134.0000;0.1490;-0.0812;
1134.3000;0.1514;-0.0645;
1134.6000;0.1514;-0.0717;
1134.9000;0.1514;-0.0693;
1135.2000;0.1498;-0.0741;
1135.5000;0.1498;-0.0645;
1135.8000;0.1473;-0.0765;
1136.1000;0.1506;-0.0645;
1136.4000;0.1579;-0.0478;
1136.7000;0.1498;-0.0621;
1137.0000;0.1498;-0.0645;
1137.3000;0.1481;-0.0597;
1137.6000;0.1514;-0.0574;
1137.9000;0.1498;-0.0621;
1138.2000;0.1481;-0.0717;
1138.5000;0.1498;-0.0765;
1138.8000;0.1514;-0.0741;
1139.1000;0.1506;-0.0693;
1139.4000;0.1498;-0.0717;
1139.7000;0.1498;-0.0717;
1140.0000;0.1384;-0.0980;
1140.3000;0.1506;-0.0717;
1140.6000;0.1498;-0.0836;
1140.9000;0.1481;-0.0932;
1141.2000;0.1506;-0.0860;
1141.5000;0.1481;-0.0908;
1141.8000;0.1563;-0.0669;
1142.1000;0.1457;-0.0884;
1142.4000;0.1490;-0.0741;
1142.7000;0.1506;-0.0597;
1143.0000;0.1498;-0.0645;
1143.3000;0.1498;-0.0597;
1143.6000;0.1490;-0.0574;
1143.9000;0.1514;-0.0597;
1144.2000;0.1490;-0.0621;
1144.5000;0.1490;-0.0502;
1144.8000;0.1490;-0.0526;
1145.1000;0.1538;-0.0454;
1145.4000;0.1514;-0.0669;
1145.7000;0.1538;-0.0597;
1146.0000;0.1481;-0.0741;
1146.3000;0.1514;-0.0693;
1146.6000;0.1490;-0.0812;
1146.9000;0.1498;-0.0860;
1147.2000;0.1498;-0.0741;
1147.5000;0.1498;-0.0765;
1147.8000;0.1490;-0.0717;
1148.1000;0.1457;-0.0765;
1148.4000;0.1498;-0.0693;
1148.7000;0.1498;-0.0669;
1149.0000;0.1506;-0.0693;
1149.3000;0.1530;-0.0597;
1149.6000;0.1514;-0.0597;
1149.9000;0.1425;-0.0860;
1150.2000;0.1547;-0.0550;
1150.5000;0.1506;-0.0550;
1150.8000;0.1433;-0.0741;
1151.1000;0.1514;-0.0502;
1151.4000;0.1433;-0.0693;
1151.7000;0.1498;-0.0502;
1152.0000;0.1473;-0.0526;
1152.3000;0.1514;-0.0574;
1152.6000;0.1490;-0.0669;
1152.9000;0.1498;-0.0669;
1153.2000;0.1481;-0.0741;
1153.5000;0.1481;-0.0693;
1153.8000;0.1490;-0.0645;
1154.1000;0.1400;-0.0884;
1154.4000;0.1522;-0.0574;
1154.7000;0.1481;-0.0550;
1155.0000;0.1481;-0.0645;
1155.3000;0.1481;-0.0717;
1155.6000;0.1498;-0.0669;
1155.9000;0.1514;-0.0597;
1156.2000;0.1490;-0.0693;
1156.5000;0.1506;-0.0645;
1156.8000;0.1498;-0.0693;
1157.1000;0.1490;-0.0621;
1157.4000;0.1490;-0.0526;
1157.7000;0.1498;-0.0597;
1158.0000;0.1490;-0.0645;
1158.3000;0.1481;-0.0669;
1158.6000;0.1490;-0.0741;
1158.9000;0.1498;-0.0741;
1159.2000;0.1514;-0.0741;
1159.5000;0.1628;-0.0382;
1159.8000;0.1571;-0.0621;
1160.1000;0.1506;-0.0669;
1160.4000;0.1465;-0.0717;
1160.7000;0.1563;-0.0574;
1161.0000;0.1514;-0.0669;
1161.3000;0.1498;-0.0645;
1161.6000;0.1514;-0.0597;
1161.9000;0.1490;-0.0765;
1162.2000;0.1481;-0.0789;
1162.5000;0.1490;-0.0741;
1162.8000;0.1449;-0.0765;
1163.1000;0.1514;-0.0717;
1163.4000;0.1498;-0.0693;
1163.7000;0.1506;-0.0693;
1164.0000;0.1384;-0.1099;
1164.3000;0.1473;-0.0812;
1164.6000;0.1490;-0.0860;
1164.9000;0.1547;-0.0717;
1165.2000;0.1481;-0.0932;
1165.5000;0.1481;-0.0884;
1165.8000;0.1498;-0.0836;
1166.1000;0.1473;-0.0908;
1166.4000;0.1490;-0.0908;
1166.7000;0.1481;-0.0812;
1167.0000;0.1506;-0.0765;
1167.3000;0.1506;-0.0741;
1167.6000;0.1490;-0.0717;
1167.9000;0.1530;-0.0645;
1168.2000;0.1481;-0.0621;
1168.5000;0.1490;-0.0526;
1168.8000;0.1490;-0.0478;
1169.1000;0.1490;-0.0526;
1169.4000;0.1481;-0.0502;
1169.7000;0.1514;-0.0382;
1170.0000;0.1498;-0.0526;
1170.3000;0.1522;-0.0478;
1170.6000;0.1490;-0.0597;
1170.9000;0.1490;-0.0597;
1171.2000;0.1506;-0.0574;
1171.5000;0.1498;-0.0454;
1171.8000;0.1481;-0.0406;
1172.1000;0.1498;-0.0406;
1172.4000;0.1498;-0.0478;
1172.7000;0.1506;-0.0454;
1173.0000;0.1490;-0.0478;
1173.3000;0.1481;-0.0526;
1173.6000;0.1498;-0.0478;
1173.9000;0.1490;-0.0478;
1174.2000;0.1506;-0.0478;
1174.5000;0.1514;-0.0454;
1174.8000;0.1441;-0.0550;
1175.1000;0.1498;-0.0454;
1175.4000;0.1498;-0.0454;
1175.7000;0.1498;-0.0430;
1176.0000;0.1506;-0.0454;
1176.3000;0.1506;-0.0502;
1176.6000;0.1490;-0.0550;
1176.9000;0.1473;-0.0550;
1177.2000;0.1506;-0.0478;
1177.5000;0.1498;-0.0526;
1177.8000;0.1481;-0.0597;
1178.1000;0.1490;-0.0621;
1178.4000;0.1506;-0.0574;
1178.7000;0.1498;-0.0645;
1179.0000;0.1514;-0.0621;
1179.3000;0.1473;-0.0741;
1179.6000;0.1490;-0.0741;
1179.9000;0.1498;-0.0741;
1180.2000;0.1506;-0.0836;
1180.5000;0.1498;-0.0789;
1180.8000;0.1498;-0.0812;
1181.1000;0.1490;-0.0836;
1181.4000;0.1587;-0.0478;
1181.7000;0.1506;-0.0741;
1182.0000;0.1604;-0.0430;
1182.3000;0.1400;-0.1028;
1182.6000;0.1490;-0.0789;
1182.9000;0.1514;-0.0741;
1183.2000;0.1506;-0.0693;
1183.5000;0.1530;-0.0645;
1183.8000;0.1490;-0.0717;
1184.1000;0.1481;-0.0741;
1184.4000;0.1457;-0.0908;
1184.7000;0.1490;-0.0765;
1185.0000;0.1343;-0.1171;
1185.3000;0.1514;-0.0693;
1185.6000;0.1587;-0.0550;
1185.9000;0.1514;-0.0717;
1186.2000;0.1498;-0.0645;
1186.5000;0.1490;-0.0645;
1186.8000;0.1498;-0.0669;
1187.1000;0.1522;-0.0645;
1187.4000;0.1481;-0.0741;
1187.7000;0.1506;-0.0741;
1188.0000;0.1522;-0.0693;
1188.3000;0.1498;-0.0812;
1188.6000;0.1481;-0.0765;
1188.9000;0.1359;-0.1075;
1189.2000;0.1506;-0.0717;
1189.5000;0.1490;-0.0669;
1189.8000;0.1506;-0.0550;
1190.1000;0.1506;-0.0597;
1190.4000;0.1490;-0.0621;
1190.7000;0.1530;-0.0478;
1191.0000;0.1506;-0.0454;
1191.3000;0.1498;-0.0478;
1191.6000;0.1490;-0.0502;
1191.9000;0.1425;-0.0621;
1192.2000;0.1514;-0.0454;
1192.5000;0.1490;-0.0430;
1192.8000;0.1490;-0.0430;
1193.1000;0.1563;-0.0311;
1193.4000;0.1498;-0.0550;
1193.7000;0.1490;-0.0621;
1194.0000;0.1563;-0.0430;
1194.3000;0.1506;-0.0597;
1194.6000;0.1490;-0.0669;
1194.9000;0.1465;-0.0645;
1195.2000;0.1490;-0.0645;
1195.5000;0.1506;-0.0550;
1195.8000;0.1498;-0.0526;
1196.1000;0.1522;-0.0597;
1196.4000;0.1506;-0.0669;
1196.7000;0.1481;-0.0669;
1197.0000;0.1514;-0.0550;
1197.3000;0.1498;-0.0550;
1197.6000;0.1490;-0.0550;
1197.9000;0.1490;-0.0454;
1198.2000;0.1514;-0.0430;
1198.5000;0.1587;-0.0335;
1198.8000;0.1481;-0.0693;
1199.1000;0.1498;-0.0669;
1199.4000;0.1490;-0.0669;
1199.7000;0.1465;-0.0717;
1200.0000;0.1490;-0.0621;
1200.3000;0.1555;-0.0526;
1200.6000;0.1441;-0.0741;
1200.9000;0.1538;-0.0550;
1201.2000;0.1506;-0.0621;
1201.5000;0.1498;-0.0669;
1201.8000;0.1481;-0.0621;
1202.1000;0.1506;-0.0550;
1202.4000;0.1522;-0.0574;
1202.7000;0.1506;-0.0597;
1203.0000;0.1465;-0.0645;
1203.3000;0.1522;-0.0478;
1203.6000;0.1514;-0.0574;
1203.9000;0.1481;-0.0669;
1204.2000;0.1547;-0.0526;
1204.5000;0.1514;-0.0597;
1204.8000;0.1449;-0.0812;
1205.1000;0.1490;-0.0621;
1205.4000;0.1490;-0.0621;
1205.7000;0.1490;-0.0693;
1206.0000;0.1465;-0.0789;
1206.3000;0.1416;-0.0812;
1206.6000;0.1490;-0.0645;
1206.9000;0.1498;-0.0669;
1207.2000;0.1498;-0.0621;
1207.5000;0.1506;-0.0574;
1207.8000;0.1506;-0.0621;
1208.1000;0.1506;-0.0717;
1208.4000;0.1498;-0.0717;
1208.7000;0.1498;-0.0717;
1209.0000;0.1522;-0.0693;
1209.3000;0.1498;-0.0789;
1209.6000;0.1490;-0.0860;
1209.9000;0.1514;-0.0789;
1210.2000;0.1514;-0.0812;
1210.5000;0.1481;-0.0789;
1210.8000;0.1481;-0.0812;
1211.1000;0.1530;-0.0669;
1211.4000;0.1514;-0.0693;
1211.7000;0.1506;-0.0717;
1212.0000;0.1514;-0.0717;
1212.3000;0.1506;-0.0741;
1212.6000;0.1506;-0.0765;
1212.9000;0.1498;-0.0812;
1213.2000;0.1498;-0.0789;
1213.5000;0.1522;-0.0741;
1213.8000;0.1498;-0.0765;
1214.1000;0.1530;-0.0645;
1214.4000;0.1506;-0.0621;
1214.7000;0.1506;-0.0669;
1215.0000;0.1506;-0.0693;
1215.3000;0.1498;-0.0621;
1215.6000;0.1498;-0.0597;
1215.9000;0.1498;-0.0645;
1216.2000;0.1481;-0.0717;
1216.5000;0.1522;-0.0597;
1216.8000;0.1490;-0.0669;
1217.1000;0.1490;-0.0597;
1217.4000;0.1506;-0.0574;
1217.7000;0.1490;-0.0574;
1218.0000;0.1498;-0.0550;
1218.3000;0.1506;-0.0526;
1218.6000;0.1490;-0.0550;
1218.9000;0.1481;-0.0597;
1219.2000;0.1473;-0.0669;
1219.5000;0.1490;-0.0574;
1219.8000;0.1473;-0.0550;
1220.1000;0.1498;-0.0550;
1220.4000;0.1506;-0.0526;
1220.7000;0.1498;-0.0550;
1221.0000;0.1498;-0.0502;
1221.3000;0.1408;-0.0741;
1221.6000;0.1522;-0.0502;
1221.9000;0.1514;-0.0550;
1222.2000;0.1587;-0.0358;
1222.5000;0.1433;-0.0836;
1222.8000;0.1506;-0.0645;
1223.1000;0.1498;-0.0669;
1223.4000;0.1457;-0.0669;
1223.7000;0.1490;-0.0621;
1224.0000;0.1522;-0.0574;
1224.3000;0.1490;-0.0574;
1224.6000;0.1490;-0.0621;
1224.9000;0.1490;-0.0717;
1225.2000;0.1481;-0.0741;
1225.5000;0.1481;-0.0789;
1225.8000;0.1514;-0.0645;
1226.1000;0.1490;-0.0621;
1226.4000;0.1522;-0.0526;
1226.7000;0.1506;-0.0597;
1227.0000;0.1481;-0.0645;
1227.3000;0.1522;-0.0621;
1227.6000;0.1490;-0.0645;
1227.9000;0.1457;-0.0741;
1228.2000;0.1465;-0.0765;
1228.5000;0.1506;-0.0741;
1228.8000;0.1506;-0.0741;
1229.1000;0.1498;-0.0741;
1229.4000;0.1514;-0.0621;
1229.7000;0.1514;-0.0597;
1230.0000;0.1522;-0.0502;
1230.3000;0.1498;-0.0645;
1230.6000;0.1514;-0.0645;
1230.9000;0.1506;-0.0645;
1231.2000;0.1408;-0.0860;
1231.5000;0.1522;-0.0621;
1231.8000;0.1490;-0.0597;
1232.1000;0.1595;-0.0239;
1232.4000;0.1490;-0.0597;
1232.7000;0.1506;-0.0597;
1233.0000;0.1563;-0.0382;
1233.3000;0.1490;-0.0621;
1233.6000;0.1514;-0.0645;
1233.9000;0.1506;-0.0693;
1234.2000;0.1473;-0.0765;
1234.5000;0.1490;-0.0669;
1234.8000;0.1490;-0.0574;
1235.1000;0.1425;-0.0860;
1235.4000;0.1473;-0.0812;
1235.7000;0.1514;-0.0741;
1236.0000;0.1498;-0.0789;
1236.3000;0.1498;-0.0765;
1236.6000;0.1506;-0.0836;
1236.9000;0.1498;-0.0789;
1237.2000;0.1579;-0.0597;
1237.5000;0.1481;-0.0860;
1237.8000;0.1481;-0.0860;
1238.1000;0.1522;-0.0645;
1238.4000;0.1481;-0.0717;
1238.7000;0.1490;-0.0717;
1239.0000;0.1506;-0.0741;
1239.3000;0.1498;-0.0789;
1239.6000;0.1498;-0.0836;
1239.9000;0.1514;-0.0860;
1240.2000;0.1514;-0.0789;
1240.5000;0.1506;-0.0812;
1240.8000;0.1506;-0.0789;
1241.1000;0.1490;-0.0789;
1241.4000;0.1490;-0.0669;
1241.7000;0.1490;-0.0526;
1242.0000;0.1514;-0.0502;
1242.3000;0.1514;-0.0550;
1242.6000;0.1506;-0.0597;
1242.9000;0.1490;-0.0693;
1243.2000;0.1547;-0.0550;
1243.5000;0.1473;-0.0789;
1243.8000;0.1465;-0.0741;
1244.1000;0.1481;-0.0693;
1244.4000;0.1506;-0.0574;
1244.7000;0.1514;-0.0526;
1245.0000;0.1506;-0.0597;
1245.3000;0.1465;-0.0717;
1245.6000;0.1490;-0.0693;
1245.9000;0.1481;-0.0765;
1246.2000;0.1498;-0.0860;
1246.5000;0.1506;-0.0884;
1246.8000;0.1498;-0.0884;
1247.1000;0.1506;-0.0812;
1247.4000;0.1441;-0.0980;
1247.7000;0.1481;-0.0789;
1248.0000;0.1490;-0.0765;
1248.3000;0.1571;-0.0550;
1248.6000;0.1498;-0.0717;
1248.9000;0.1506;-0.0765;
1249.2000;0.1490;-0.0765;
1249.5000;0.1530;-0.0693;
1249.8000;0.1506;-0.0765;
1250.1000;0.1441;-0.0789;
1250.4000;0.1473;-0.0645;
1250.7000;0.1490;-0.0621;
1251.0000;0.1498;-0.0621;
1251.3000;0.1481;-0.0717;
1251.6000;0.1490;-0.0669;
1251.9000;0.1490;-0.0693;
1252.2000;0.1465;-0.0693;
1252.5000;0.1506;-0.0645;
1252.8000;0.1506;-0.0574;
1253.1000;0.1514;-0.0597;
1253.4000;0.1498;-0.0669;
1253.7000;0.1506;-0.0693;
1254.0000;0.1563;-0.0406;
1254.3000;0.1481;-0.0669;
1254.6000;0.1481;-0.0693;
1254.9000;0.1481;-0.0693;
1255.2000;0.1538;-0.0669;
1255.5000;0.1514;-0.0693;
1255.8000;0.1498;-0.0717;
1256.1000;0.1457;-0.0812;
1256.4000;0.1506;-0.0669;
1256.7000;0.1490;-0.0717;
1257.0000;0.1506;-0.0765;
1257.3000;0.1490;-0.0741;
1257.6000;0.1490;-0.0812;
1257.9000;0.1506;-0.0693;
1258.2000;0.1490;-0.0717;
1258.5000;0.1514;-0.0574;
1258.8000;0.1490;-0.0597;
1259.1000;0.1506;-0.0502;
1259.4000;0.1465;-0.0574;
1259.7000;0.1498;-0.0502;
1260.0000;0.1433;-0.0717;
1260.3000;0.1498;-0.0502;
1260.6000;0.1490;-0.0550;
1260.9000;0.1498;-0.0502;
1261.2000;0.1514;-0.0502;
1261.5000;0.1506;-0.0574;
1261.8000;0.1498;-0.0693;
1262.1000;0.1498;-0.0693;
1262.4000;0.1506;-0.0741;
1262.7000;0.1457;-0.0812;
1263.0000;0.1498;-0.0717;
1263.3000;0.1538;-0.0597;
1263.6000;0.1490;-0.0645;
1263.9000;0.1514;-0.0526;
1264.2000;0.1441;-0.0789;
1264.5000;0.1490;-0.0645;
1264.8000;0.1490;-0.0621;
1265.1000;0.1506;-0.0574;
1265.4000;0.1490;-0.0621;
1265.7000;0.1498;-0.0669;
1266.0000;0.1465;-0.0765;
1266.3000;0.1498;-0.0669;
1266.6000;0.1490;-0.0597;
1266.9000;0.1449;-0.0645;
1267.2000;0.1498;-0.0550;
1267.5000;0.1490;-0.0645;
1267.8000;0.1506;-0.0717;
1268.1000;0.1498;-0.0717;
1268.4000;0.1514;-0.0669;
1268.7000;0.1498;-0.0645;
1269.0000;0.1506;-0.0574;
1269.3000;0.1514;-0.0550;
1269.6000;0.1490;-0.0597;
1269.9000;0.1498;-0.0574;
1270.2000;0.1449;-0.0789;
1270.5000;0.1498;-0.0693;
1270.8000;0.1506;-0.0574;
1271.1000;0.1522;-0.0574;
1271.4000;0.1490;-0.0717;
1271.7000;0.1514;-0.0741;
1272.0000;0.1481;-0.0932;
1272.3000;0.1481;-0.0956;
1272.6000;0.1490;-0.1004;
1272.9000;0.1506;-0.0980;
1273.2000;0.1498;-0.1004;
1273.5000;0.1522;-0.0932;
1273.8000;0.1481;-0.1004;
1274.1000;0.1555;-0.0765;
1274.4000;0.1490;-0.0860;
1274.7000;0.1498;-0.0812;
1275.0000;0.1522;-0.0789;
1275.3000;0.1425;-0.0980;
1275.6000;0.1506;-0.0741;
1275.9000;0.1514;-0.0717;
1276.2000;0.1490;-0.0765;
1276.5000;0.1465;-0.0884;
1276.8000;0.1506;-0.0741;
1277.1000;0.1498;-0.0741;
1277.4000;0.1579;-0.0478;
1277.7000;0.1498;-0.0765;
1278.0000;0.1547;-0.0550;
1278.3000;0.1376;-0.1075;
1278.6000;0.1514;-0.0812;
1278.9000;0.1473;-0.0932;
1279.2000;0.1530;-0.0765;
1279.5000;0.1530;-0.0645;
1279.8000;0.1506;-0.0717;
1280.1000;0.1457;-0.0812;
1280.4000;0.1514;-0.0669;
1280.7000;0.1498;-0.0741;
1281.0000;0.1547;-0.0597;
1281.3000;0.1498;-0.0741;
1281.6000;0.1457;-0.0836;
1281.9000;0.1498;-0.0956;
1282.2000;0.1473;-0.1051;
1282.5000;0.1481;-0.1051;
1282.8000;0.1490;-0.1028;
1283.1000;0.1514;-0.0932;
1283.4000;0.1481;-0.1075;
1283.7000;0.1490;-0.1028;
1284.0000;0.1490;-0.1075;
1284.3000;0.1490;-0.1004;
1284.6000;0.1490;-0.0980;
1284.9000;0.1490;-0.1028;
1285.2000;0.1538;-0.0932;
1285.5000;0.1506;-0.0956;
1285.8000;0.1506;-0.1004;
1286.1000;0.1498;-0.1028;
1286.4000;0.1506;-0.1028;
1286.7000;0.1490;-0.1123;
1287.0000;0.1481;-0.1099;
1287.3000;0.1481;-0.1099;
1287.6000;0.1498;-0.1099;
1287.9000;0.1522;-0.1028;
1288.2000;0.1530;-0.0956;
1288.5000;0.1514;-0.0932;
1288.8000;0.1481;-0.0956;
1289.1000;0.1498;-0.0860;
1289.4000;0.1506;-0.0860;
1289.7000;0.1498;-0.0860;
1290.0000;0.1473;-0.0980;
1290.3000;0.1490;-0.0908;
1290.6000;0.1490;-0.0860;
1290.9000;0.1465;-0.0884;
1291.2000;0.1498;-0.0884;
1291.5000;0.1498;-0.0789;
1291.8000;0.1506;-0.0669;
1292.1000;0.1498;-0.0597;
1292.4000;0.1498;-0.0669;
1292.7000;0.1498;-0.0669;
1293.0000;0.1473;-0.0860;
1293.3000;0.1506;-0.0860;
1293.6000;0.1416;-0.1051;
1293.9000;0.1425;-0.1004;
1294.2000;0.1351;-0.1099;
1294.5000;0.1490;-0.0741;
1294.8000;0.1514;-0.0645;
1295.1000;0.1514;-0.0717;
1295.4000;0.1498;-0.0789;
1295.7000;0.1498;-0.0860;
1296.0000;0.1457;-0.0812;
1296.3000;0.1522;-0.0669;
1296.6000;0.1506;-0.0717;
1296.9000;0.1490;-0.0789;
1297.2000;0.1457;-0.0860;
1297.5000;0.1490;-0.0741;
1297.8000;0.1612;-0.0478;
1298.1000;0.1433;-0.0884;
1298.4000;0.1555;-0.0597;
1298.7000;0.1465;-0.0860;
1299.0000;0.1530;-0.0693;
1299.3000;0.1514;-0.0693;
1299.6000;0.1506;-0.0717;
1299.9000;0.1481;-0.0765;
1300.2000;0.1538;-0.0550;
1300.5000;0.1465;-0.0645;
1300.8000;0.1514;-0.0550;
1301.1000;0.1498;-0.0621;
1301.4000;0.1555;-0.0430;
1301.7000;0.1506;-0.0526;
1302.0000;0.1481;-0.0550;
1302.3000;0.1579;-0.0263;
1302.6000;0.1506;-0.0526;
1302.9000;0.1530;-0.0574;
1303.2000;0.1498;-0.0693;
1303.5000;0.1481;-0.0884;
1303.8000;0.1498;-0.0836;
1304.1000;0.1457;-0.1004;
1304.4000;0.1481;-0.0956;
1304.7000;0.1490;-0.0956;
1305.0000;0.1498;-0.0980;
1305.3000;0.1522;-0.0932;
1305.6000;0.1498;-0.0956;
1305.9000;0.1498;-0.0980;
1306.2000;0.1538;-0.0860;
1306.5000;0.1481;-0.0884;
1306.8000;0.1506;-0.0789;
1307.1000;0.1579;-0.0574;
1307.4000;0.1481;-0.0812;
1307.7000;0.1498;-0.0789;
1308.0000;0.1522;-0.0717;
1308.3000;0.1506;-0.0860;
1308.6000;0.1522;-0.0836;
1308.9000;0.1514;-0.0789;
1309.2000;0.1506;-0.0717;
1309.5000;0.1498;-0.0693;
1309.8000;0.1506;-0.0645;
1310.1000;0.1522;-0.0645;
1310.4000;0.1506;-0.0741;
1310.7000;0.1522;-0.0645;
1311.0000;0.1481;-0.0717;
1311.3000;0.1514;-0.0574;
1311.6000;0.1506;-0.0693;
1311.9000;0.1514;-0.0669;
1312.2000;0.1522;-0.0502;
1312.5000;0.1473;-0.0645;
1312.8000;0.1498;-0.0621;
1313.1000;0.1498;-0.0621;
1313.4000;0.1506;-0.0789;
1313.7000;0.1481;-0.0908;
1314.0000;0.1506;-0.0717;
1314.3000;0.1498;-0.0669;
1314.6000;0.1514;-0.0526;
1314.9000;0.1490;-0.0597;
1315.2000;0.1457;-0.0717;
1315.5000;0.1433;-0.0789;
1315.8000;0.1465;-0.0693;
1316.1000;0.1481;-0.0717;
1316.4000;0.1465;-0.0717;
1316.7000;0.1506;-0.0645;
1317.0000;0.1514;-0.0574;
1317.3000;0.1563;-0.0526;
1317.6000;0.1579;-0.0478;
1317.9000;0.1490;-0.0693;
1318.2000;0.1498;-0.0693;
1318.5000;0.1441;-0.0884;
1318.8000;0.1498;-0.0717;
1319.1000;0.1481;-0.0765;
1319.4000;0.1514;-0.0717;
1319.7000;0.1490;-0.0812;
1320.0000;0.1465;-0.0860;
1320.3000;0.1465;-0.0765;
1320.6000;0.1490;-0.0645;
1320.9000;0.1514;-0.0597;
1321.2000;0.1498;-0.0621;
1321.5000;0.1514;-0.0669;
1321.8000;0.1490;-0.0741;
1322.1000;0.1530;-0.0597;
1322.4000;0.1514;-0.0597;
1322.7000;0.1506;-0.0574;
1323.0000;0.1506;-0.0645;
1323.3000;0.1514;-0.0789;
1323.6000;0.1514;-0.0765;
1323.9000;0.1579;-0.0645;
1324.2000;0.1514;-0.0860;
1324.5000;0.1563;-0.0645;
1324.8000;0.1490;-0.0884;
1325.1000;0.1481;-0.0812;
1325.4000;0.1473;-0.0836;
1325.7000;0.1547;-0.0741;
1326.0000;0.1595;-0.0597;
1326.3000;0.1490;-0.0836;
1326.6000;0.1506;-0.0789;
1326.9000;0.1522;-0.0789;
1327.2000;0.1473;-0.0956;
1327.5000;0.1522;-0.0860;
1327.8000;0.1522;-0.0908;
1328.1000;0.1498;-0.0908;
1328.4000;0.1498;-0.0860;
1328.7000;0.1498;-0.0884;
1329.0000;0.1506;-0.0765;
1329.3000;0.1506;-0.0789;
1329.6000;0.1481;-0.0765;
1329.9000;0.1522;-0.0621;
1330.2000;0.1465;-0.0717;
1330.5000;0.1498;-0.0574;
1330.8000;0.1498;-0.0597;
1331.1000;0.1481;-0.0741;
1331.4000;0.1498;-0.0645;
1331.7000;0.1498;-0.0621;
1332.0000;0.1481;-0.0717;
1332.3000;0.1490;-0.0693;
1332.6000;0.1506;-0.0550;
1332.9000;0.1514;-0.0597;
1333.2000;0.1595;-0.0358;
1333.5000;0.1481;-0.0645;
1333.8000;0.1392;-0.0908;
1334.1000;0.1498;-0.0550;
1334.4000;0.1506;-0.0526;
1334.7000;0.1506;-0.0526;
1335.0000;0.1506;-0.0502;
1335.3000;0.1490;-0.0621;
1335.6000;0.1498;-0.0574;
1335.9000;0.1514;-0.0502;
1336.2000;0.1481;-0.0574;
1336.5000;0.1490;-0.0550;
1336.8000;0.1473;-0.0574;
1337.1000;0.1490;-0.0597;
1337.4000;0.1473;-0.0693;
1337.7000;0.1514;-0.0621;
1338.0000;0.1490;-0.0669;
1338.3000;0.1514;-0.0621;
1338.6000;0.1465;-0.0717;
1338.9000;0.1514;-0.0550;
1339.2000;0.1555;-0.0406;
1339.5000;0.1522;-0.0478;
1339.8000;0.1490;-0.0597;
1340.1000;0.1473;-0.0693;
1340.4000;0.1628;-0.0287;
1340.7000;0.1490;-0.0597;
1341.0000;0.1490;-0.0550;
1341.3000;0.1481;-0.0550;
1341.6000;0.1571;-0.0335;
1341.9000;0.1441;-0.0717;
1342.2000;0.1522;-0.0526;
1342.5000;0.1490;-0.0597;
1342.8000;0.1506;-0.0645;
1343.1000;0.1408;-0.0908;
1343.4000;0.1506;-0.0574;
1343.7000;0.1514;-0.0574;
1344.0000;0.1498;-0.0574;
1344.3000;0.1498;-0.0621;
1344.6000;0.1506;-0.0693;
1344.9000;0.1506;-0.0741;
1345.2000;0.1506;-0.0741;
1345.5000;0.1506;-0.0765;
1345.8000;0.1481;-0.0884;
1346.1000;0.1498;-0.0812;
1346.4000;0.1514;-0.0693;
1346.7000;0.1506;-0.0717;
1347.0000;0.1522;-0.0621;
1347.3000;0.1490;-0.0765;
1347.6000;0.1425;-0.0980;
1347.9000;0.1506;-0.0836;
1348.2000;0.1490;-0.0884;
1348.5000;0.1481;-0.0908;
1348.8000;0.1490;-0.0812;
1349.1000;0.1506;-0.0693;
1349.4000;0.1514;-0.0574;
1349.7000;0.1506;-0.0526;
1350.0000;0.1498;-0.0478;
1350.3000;0.1490;-0.0502;
1350.6000;0.1514;-0.0454;
1350.9000;0.1514;-0.0550;
1351.2000;0.1490;-0.0645;
1351.5000;0.1490;-0.0621;
1351.8000;0.1530;-0.0478;
1352.1000;0.1498;-0.0430;
1352.4000;0.1498;-0.0478;
1352.7000;0.1506;-0.0597;
1353.0000;0.1490;-0.0717;
1353.3000;0.1490;-0.0741;
1353.6000;0.1563;-0.0526;
1353.9000;0.1481;-0.0693;
1354.2000;0.1481;-0.0741;
1354.5000;0.1514;-0.0645;
1354.8000;0.1473;-0.0693;
1355.1000;0.1620;-0.0263;
1355.4000;0.1514;-0.0621;
1355.7000;0.1514;-0.0645;
1356.0000;0.1498;-0.0693;
1356.3000;0.1571;-0.0454;
1356.6000;0.1498;-0.0502;
1356.9000;0.1490;-0.0502;
1357.2000;0.1490;-0.0550;
1357.5000;0.1473;-0.0621;
1357.8000;0.1416;-0.0789;
1358.1000;0.1481;-0.0621;
1358.4000;0.1530;-0.0502;
1358.7000;0.1506;-0.0574;
1359.0000;0.1481;-0.0621;
1359.3000;0.1506;-0.0597;
1359.6000;0.1498;-0.0693;
1359.9000;0.1498;-0.0741;
1360.2000;0.1498;-0.0765;
1360.5000;0.1506;-0.0669;
1360.8000;0.1490;-0.0717;
1361.1000;0.1498;-0.0765;
1361.4000;0.1425;-0.0884;
1361.7000;0.1481;-0.0717;
1362.0000;0.1538;-0.0550;
1362.3000;0.1498;-0.0693;
1362.6000;0.1359;-0.1051;
1362.9000;0.1514;-0.0717;
1363.2000;0.1506;-0.0693;
1363.5000;0.1490;-0.0693;
1363.8000;0.1473;-0.0693;
1364.1000;0.1465;-0.0789;
1364.4000;0.1473;-0.0717;
1364.7000;0.1481;-0.0669;
1365.0000;0.1490;-0.0597;
1365.3000;0.1425;-0.0765;
1365.6000;0.1481;-0.0597;
1365.9000;0.1498;-0.0550;
1366.2000;0.1481;-0.0645;
1366.5000;0.1498;-0.0574;
1366.8000;0.1522;-0.0621;
1367.1000;0.1498;-0.0621;
1367.4000;0.1498;-0.0597;
1367.7000;0.1506;-0.0597;
1368.0000;0.1506;-0.0669;
1368.3000;0.1506;-0.0669;
1368.6000;0.1498;-0.0741;
1368.9000;0.1490;-0.0717;
1369.2000;0.1490;-0.0645;
1369.5000;0.1506;-0.0597;
1369.8000;0.1449;-0.0693;
1370.1000;0.1473;-0.0645;
1370.4000;0.1490;-0.0621;
1370.7000;0.1490;-0.0574;
1371.0000;0.1571;-0.0335;
1371.3000;0.1473;-0.0669;
1371.6000;0.1498;-0.0621;
1371.9000;0.1498;-0.0669;
1372.2000;0.1490;-0.0789;
1372.5000;0.1604;-0.0574;
1372.8000;0.1490;-0.0884;
1373.1000;0.1481;-0.0860;
1373.4000;0.1490;-0.0932;
1373.7000;0.1481;-0.0884;
1374.0000;0.1506;-0.0836;
1374.3000;0.1490;-0.0836;
1374.6000;0.1498;-0.0812;
1374.9000;0.1506;-0.0812;
1375.2000;0.1571;-0.0717;
1375.5000;0.1490;-0.1004;
1375.8000;0.1490;-0.0908;
1376.1000;0.1514;-0.0860;
1376.4000;0.1506;-0.0932;
1376.7000;0.1530;-0.0765;
1377.0000;0.1498;-0.0908;
1377.3000;0.1449;-0.1099;
1377.6000;0.1498;-0.0980;
1377.9000;0.1498;-0.0908;
1378.2000;0.1481;-0.0956;
1378.5000;0.1498;-0.0932;
1378.8000;0.1473;-0.1004;
1379.1000;0.1506;-0.0980;
1379.4000;0.1490;-0.1004;
1379.7000;0.1490;-0.0956;
1380.0000;0.1498;-0.0956;
1380.3000;0.1481;-0.0956;
1380.6000;0.1490;-0.0836;
1380.9000;0.1473;-0.0908;
1381.2000;0.1498;-0.0860;
1381.5000;0.1481;-0.0932;
1381.8000;0.1506;-0.0884;
1382.1000;0.1449;-0.0956;
1382.4000;0.1498;-0.0765;
1382.7000;0.1490;-0.0765;
1383.0000;0.1506;-0.0669;
1383.3000;0.1490;-0.0574;
1383.6000;0.1490;-0.0621;
1383.9000;0.1498;-0.0597;
1384.2000;0.1481;-0.0645;
1384.5000;0.1514;-0.0669;
1384.8000;0.1490;-0.0812;
1385.1000;0.1481;-0.0836;
1385.4000;0.1514;-0.0741;
1385.7000;0.1490;-0.0717;
1386.0000;0.1425;-0.0884;
1386.3000;0.1595;-0.0478;
1386.6000;0.1579;-0.0621;
1386.9000;0.1408;-0.1123;
1387.2000;0.1490;-0.0884;
1387.5000;0.1481;-0.0908;
1387.8000;0.1481;-0.0884;
1388.1000;0.1490;-0.0789;
1388.4000;0.1481;-0.0765;
1388.7000;0.1481;-0.0884;
1389.0000;0.1604;-0.0574;
1389.3000;0.1416;-0.1147;
1389.6000;0.1522;-0.0884;
1389.9000;0.1612;-0.0574;
1390.2000;0.1514;-0.0812;
1390.5000;0.1506;-0.0812;
1390.8000;0.1498;-0.0789;
1391.1000;0.1481;-0.0908;
1391.4000;0.1490;-0.0860;
1391.7000;0.1514;-0.0884;
1392.0000;0.1506;-0.0812;
1392.3000;0.1579;-0.0597;
1392.6000;0.1425;-0.1004;
1392.9000;0.1506;-0.0741;
1393.2000;0.1530;-0.0669;
1393.5000;0.1490;-0.0741;
1393.8000;0.1490;-0.0741;
1394.1000;0.1498;-0.0789;
1394.4000;0.1555;-0.0574;
1394.7000;0.1514;-0.0693;
1395.0000;0.1490;-0.0765;
1395.3000;0.1522;-0.0789;
1395.6000;0.1522;-0.0693;
1395.9000;0.1473;-0.0812;
1396.2000;0.1473;-0.0765;
1396.5000;0.1481;-0.0693;
1396.8000;0.1506;-0.0645;
1397.1000;0.1498;-0.0645;
1397.4000;0.1498;-0.0574;
1397.7000;0.1473;-0.0574;
1398.0000;0.1465;-0.0645;
1398.3000;0.1473;-0.0693;
1398.6000;0.1571;-0.0526;
1398.9000;0.1490;-0.0812;
1399.2000;0.1514;-0.0717;
1399.5000;0.1490;-0.0884;
1399.8000;0.1506;-0.0860;
