time/ms;Fluo/V;P700 deltaI/I x10³;
-199.8000;0.1620;-0.1099;
-199.5000;0.1498;-0.1553;
-199.2000;0.1522;-0.1529;
-198.9000;0.1530;-0.1505;
-198.6000;0.1490;-0.1577;
-198.3000;0.1530;-0.1553;
-198.0000;0.1506;-0.1601;
-197.7000;0.1514;-0.1649;
-197.4000;0.1530;-0.1649;
-197.1000;0.1530;-0.1601;
-196.8000;0.1457;-0.1792;
-196.5000;0.1530;-0.1553;
-196.2000;0.1498;-0.1553;
-195.9000;0.1490;-0.1529;
-195.6000;0.1514;-0.1458;
-195.3000;0.1481;-0.1601;
-195.0000;0.1506;-0.1505;
-194.7000;0.1612;-0.1314;
-194.4000;0.1506;-0.1553;
-194.1000;0.1522;-0.1505;
-193.8000;0.1506;-0.1529;
-193.5000;0.1530;-0.1458;
-193.2000;0.1514;-0.1529;
-192.9000;0.1514;-0.1577;
-192.6000;0.1538;-0.1529;
-192.3000;0.1522;-0.1505;
-192.0000;0.1514;-0.1529;
-191.7000;0.1506;-0.1601;
-191.4000;0.1498;-0.1553;
-191.1000;0.1506;-0.1553;
-190.8000;0.1522;-0.1553;
-190.5000;0.1514;-0.1553;
-190.2000;0.1579;-0.1362;
-189.9000;0.1547;-0.1410;
-189.6000;0.1522;-0.1529;
-189.3000;0.1514;-0.1529;
-189.0000;0.1498;-0.1553;
-188.7000;0.1514;-0.1553;
-188.4000;0.1514;-0.1553;
-188.1000;0.1506;-0.1529;
-187.8000;0.1522;-0.1577;
-187.5000;0.1498;-0.1721;
-187.2000;0.1514;-0.1721;
-186.9000;0.1547;-0.1649;
-186.6000;0.1506;-0.1697;
-186.3000;0.1514;-0.1697;
-186.0000;0.1514;-0.1721;
-185.7000;0.1514;-0.1721;
-185.4000;0.1514;-0.1673;
-185.1000;0.1490;-0.1721;
-184.8000;0.1498;-0.1673;
-184.5000;0.1514;-0.1601;
-184.2000;0.1498;-0.1553;
-183.9000;0.1449;-0.1649;
-183.6000;0.1498;-0.1505;
-183.3000;0.1530;-0.1505;
-183.0000;0.1457;-0.1649;
-182.7000;0.1490;-0.1458;
-182.4000;0.1530;-0.1458;
-182.1000;0.1571;-0.1314;
-181.8000;0.1498;-0.1577;
-181.5000;0.1522;-0.1529;
-181.2000;0.1547;-0.1410;
-180.9000;0.1506;-0.1553;
-180.6000;0.1506;-0.1553;
-180.3000;0.1514;-0.1553;
-180.0000;0.1449;-0.1697;
-179.7000;0.1506;-0.1649;
-179.4000;0.1514;-0.1744;
-179.1000;0.1473;-0.1792;
-178.8000;0.1555;-0.1673;
-178.5000;0.1514;-0.1768;
-178.2000;0.1514;-0.1649;
-177.9000;0.1498;-0.1744;
-177.6000;0.1522;-0.1768;
-177.3000;0.1530;-0.1721;
-177.0000;0.1473;-0.1864;
-176.7000;0.1538;-0.1721;
-176.4000;0.1514;-0.1768;
-176.1000;0.1522;-0.1697;
-175.8000;0.1506;-0.1721;
-175.5000;0.1506;-0.1673;
-175.2000;0.1514;-0.1649;
-174.9000;0.1498;-0.1673;
-174.6000;0.1514;-0.1649;
-174.3000;0.1514;-0.1601;
-174.0000;0.1514;-0.1625;
-173.7000;0.1514;-0.1649;
-173.4000;0.1604;-0.1410;
-173.1000;0.1530;-0.1529;
-172.8000;0.1522;-0.1577;
-172.5000;0.1538;-0.1553;
-172.2000;0.1514;-0.1553;
-171.9000;0.1498;-0.1553;
-171.6000;0.1506;-0.1529;
-171.3000;0.1514;-0.1529;
-171.0000;0.1506;-0.1649;
-170.7000;0.1522;-0.1649;
-170.4000;0.1538;-0.1625;
-170.1000;0.1530;-0.1577;
-169.8000;0.1530;-0.1625;
-169.5000;0.1514;-0.1697;
-169.2000;0.1538;-0.1649;
-168.9000;0.1506;-0.1673;
-168.6000;0.1514;-0.1601;
-168.3000;0.1506;-0.1577;
-168.0000;0.1555;-0.1386;
-167.7000;0.1506;-0.1410;
-167.4000;0.1498;-0.1529;
-167.1000;0.1514;-0.1434;
-166.8000;0.1522;-0.1458;
-166.5000;0.1498;-0.1553;
-166.2000;0.1522;-0.1553;
-165.9000;0.1530;-0.1505;
-165.6000;0.1522;-0.1529;
-165.3000;0.1514;-0.1482;
-165.0000;0.1563;-0.1434;
-164.7000;0.1547;-0.1338;
-164.4000;0.1514;-0.1553;
-164.1000;0.1530;-0.1482;
-163.8000;0.1506;-0.1553;
-163.5000;0.1571;-0.1410;
-163.2000;0.1498;-0.1529;
-162.9000;0.1530;-0.1458;
-162.6000;0.1538;-0.1434;
-162.3000;0.1538;-0.1529;
-162.0000;0.1514;-0.1649;
-161.7000;0.1530;-0.1601;
-161.4000;0.1547;-0.1577;
-161.1000;0.1538;-0.1577;
-160.8000;0.1514;-0.1625;
-160.5000;0.1498;-0.1649;
-160.2000;0.1538;-0.1577;
-159.9000;0.1514;-0.1577;
-159.6000;0.1506;-0.1649;
-159.3000;0.1514;-0.1625;
-159.0000;0.1506;-0.1649;
-158.7000;0.1506;-0.1625;
-158.4000;0.1506;-0.1505;
-158.1000;0.1514;-0.1434;
-157.8000;0.1481;-0.1577;
-157.5000;0.1514;-0.1577;
-157.2000;0.1514;-0.1577;
-156.9000;0.1498;-0.1649;
-156.6000;0.1522;-0.1577;
-156.3000;0.1522;-0.1721;
-156.0000;0.1522;-0.1721;
-155.7000;0.1506;-0.1697;
-155.4000;0.1514;-0.1601;
-155.1000;0.1522;-0.1553;
-154.8000;0.1490;-0.1649;
-154.5000;0.1506;-0.1649;
-154.2000;0.1522;-0.1601;
-153.9000;0.1481;-0.1673;
-153.6000;0.1481;-0.1673;
-153.3000;0.1481;-0.1721;
-153.0000;0.1490;-0.1744;
-152.7000;0.1514;-0.1721;
-152.4000;0.1506;-0.1721;
-152.1000;0.1506;-0.1721;
-151.8000;0.1498;-0.1697;
-151.5000;0.1506;-0.1649;
-151.2000;0.1449;-0.1840;
-150.9000;0.1530;-0.1529;
-150.6000;0.1506;-0.1482;
-150.3000;0.1498;-0.1529;
-150.0000;0.1514;-0.1505;
-149.7000;0.1522;-0.1553;
-149.4000;0.1522;-0.1529;
-149.1000;0.1530;-0.1505;
-148.8000;0.1498;-0.1601;
-148.5000;0.1522;-0.1529;
-148.2000;0.1522;-0.1553;
-147.9000;0.1522;-0.1553;
-147.6000;0.1498;-0.1553;
-147.3000;0.1530;-0.1529;
-147.0000;0.1522;-0.1553;
-146.7000;0.1473;-0.1529;
-146.4000;0.1490;-0.1482;
-146.1000;0.1563;-0.1386;
-145.8000;0.1514;-0.1482;
-145.5000;0.1514;-0.1577;
-145.2000;0.1547;-0.1553;
-144.9000;0.1522;-0.1673;
-144.6000;0.1530;-0.1673;
-144.3000;0.1538;-0.1625;
-144.0000;0.1425;-0.1936;
-143.7000;0.1522;-0.1721;
-143.4000;0.1498;-0.1768;
-143.1000;0.1538;-0.1673;
-142.8000;0.1490;-0.1721;
-142.5000;0.1522;-0.1649;
-142.2000;0.1547;-0.1673;
-141.9000;0.1506;-0.1768;
-141.6000;0.1530;-0.1697;
-141.3000;0.1481;-0.1792;
-141.0000;0.1530;-0.1744;
-140.7000;0.1433;-0.2079;
-140.4000;0.1538;-0.1744;
-140.1000;0.1490;-0.1840;
-139.8000;0.1400;-0.2031;
-139.5000;0.1555;-0.1553;
-139.2000;0.1498;-0.1697;
-138.9000;0.1506;-0.1649;
-138.6000;0.1457;-0.1649;
-138.3000;0.1522;-0.1577;
-138.0000;0.1522;-0.1625;
-137.7000;0.1547;-0.1577;
-137.4000;0.1522;-0.1601;
-137.1000;0.1628;-0.1266;
-136.8000;0.1498;-0.1697;
-136.5000;0.1498;-0.1649;
-136.2000;0.1538;-0.1505;
-135.9000;0.1376;-0.2055;
-135.6000;0.1384;-0.2007;
-135.3000;0.1506;-0.1721;
-135.0000;0.1538;-0.1697;
-134.7000;0.1506;-0.1768;
-134.4000;0.1433;-0.1864;
-134.1000;0.1506;-0.1744;
-133.8000;0.1498;-0.1768;
-133.5000;0.1498;-0.1673;
-133.2000;0.1481;-0.1673;
-132.9000;0.1498;-0.1553;
-132.6000;0.1490;-0.1625;
-132.3000;0.1481;-0.1673;
-132.0000;0.1514;-0.1625;
-131.7000;0.1498;-0.1625;
-131.4000;0.1538;-0.1577;
-131.1000;0.1498;-0.1649;
-130.8000;0.1498;-0.1768;
-130.5000;0.1498;-0.1673;
-130.2000;0.1530;-0.1673;
-129.9000;0.1498;-0.1816;
-129.6000;0.1506;-0.1840;
-129.3000;0.1473;-0.1912;
-129.0000;0.1514;-0.1792;
-128.7000;0.1514;-0.1721;
-128.4000;0.1506;-0.1673;
-128.1000;0.1498;-0.1649;
-127.8000;0.1530;-0.1577;
-127.5000;0.1498;-0.1744;
-127.2000;0.1522;-0.1649;
-126.9000;0.1522;-0.1553;
-126.6000;0.1506;-0.1601;
-126.3000;0.1490;-0.1649;
-126.0000;0.1490;-0.1601;
-125.7000;0.1506;-0.1529;
-125.4000;0.1506;-0.1553;
-125.1000;0.1530;-0.1505;
-124.8000;0.1490;-0.1673;
-124.5000;0.1498;-0.1577;
-124.2000;0.1522;-0.1482;
-123.9000;0.1522;-0.1505;
-123.6000;0.1514;-0.1529;
-123.3000;0.1538;-0.1529;
-123.0000;0.1514;-0.1529;
-122.7000;0.1514;-0.1601;
-122.4000;0.1441;-0.1768;
-122.1000;0.1498;-0.1625;
-121.8000;0.1514;-0.1601;
-121.5000;0.1530;-0.1553;
-121.2000;0.1538;-0.1434;
-120.9000;0.1514;-0.1458;
-120.6000;0.1481;-0.1458;
-120.3000;0.1514;-0.1410;
-120.0000;0.1514;-0.1482;
-119.7000;0.1514;-0.1553;
-119.4000;0.1530;-0.1458;
-119.1000;0.1506;-0.1553;
-118.8000;0.1514;-0.1458;
-118.5000;0.1514;-0.1386;
-118.2000;0.1498;-0.1338;
-117.9000;0.1530;-0.1219;
-117.6000;0.1530;-0.1171;
-117.3000;0.1547;-0.1195;
-117.0000;0.1506;-0.1338;
-116.7000;0.1481;-0.1482;
-116.4000;0.1555;-0.1338;
-116.1000;0.1506;-0.1577;
-115.8000;0.1481;-0.1673;
-115.5000;0.1514;-0.1553;
-115.2000;0.1522;-0.1505;
-114.9000;0.1506;-0.1482;
-114.6000;0.1490;-0.1434;
-114.3000;0.1522;-0.1386;
-114.0000;0.1587;-0.1219;
-113.7000;0.1514;-0.1434;
-113.4000;0.1481;-0.1482;
-113.1000;0.1514;-0.1386;
-112.8000;0.1490;-0.1386;
-112.5000;0.1555;-0.1314;
-112.2000;0.1522;-0.1386;
-111.9000;0.1538;-0.1266;
-111.6000;0.1547;-0.1314;
-111.3000;0.1498;-0.1362;
-111.0000;0.1506;-0.1386;
-110.7000;0.1604;-0.1219;
-110.4000;0.1498;-0.1434;
-110.1000;0.1506;-0.1314;
-109.8000;0.1595;-0.1147;
-109.5000;0.1514;-0.1410;
-109.2000;0.1481;-0.1529;
-108.9000;0.1498;-0.1410;
-108.6000;0.1506;-0.1386;
-108.3000;0.1563;-0.1243;
-108.0000;0.1506;-0.1482;
-107.7000;0.1595;-0.1243;
-107.4000;0.1514;-0.1410;
-107.1000;0.1530;-0.1338;
-106.8000;0.1547;-0.1219;
-106.5000;0.1490;-0.1362;
-106.2000;0.1522;-0.1338;
-105.9000;0.1530;-0.1314;
-105.6000;0.1563;-0.1266;
-105.3000;0.1547;-0.1290;
-105.0000;0.1473;-0.1482;
-104.7000;0.1498;-0.1362;
-104.4000;0.1530;-0.1338;
-104.1000;0.1604;-0.1195;
-103.8000;0.1563;-0.1434;
-103.5000;0.1514;-0.1553;
-103.2000;0.1579;-0.1386;
-102.9000;0.1571;-0.1505;
-102.6000;0.1506;-0.1721;
-102.3000;0.1514;-0.1697;
-102.0000;0.1498;-0.1744;
-101.7000;0.1490;-0.1840;
-101.4000;0.1490;-0.1744;
-101.1000;0.1490;-0.1721;
-100.8000;0.1514;-0.1625;
-100.5000;0.1514;-0.1601;
-100.2000;0.1530;-0.1577;
-99.9000;0.1522;-0.1553;
-99.6000;0.1522;-0.1577;
-99.3000;0.1506;-0.1577;
-99.0000;0.1465;-0.1697;
-98.7000;0.1490;-0.1601;
-98.4000;0.1490;-0.1601;
-98.1000;0.1563;-0.1362;
-97.8000;0.1490;-0.1505;
-97.5000;0.1498;-0.1410;
-97.2000;0.1530;-0.1362;
-96.9000;0.1522;-0.1314;
-96.6000;0.1522;-0.1266;
-96.3000;0.1530;-0.1266;
-96.0000;0.1473;-0.1458;
-95.7000;0.1514;-0.1410;
-95.4000;0.1522;-0.1482;
-95.1000;0.1490;-0.1553;
-94.8000;0.1441;-0.1721;
-94.5000;0.1538;-0.1434;
-94.2000;0.1506;-0.1458;
-93.9000;0.1506;-0.1410;
-93.6000;0.1514;-0.1362;
-93.3000;0.1498;-0.1434;
-93.0000;0.1490;-0.1410;
-92.7000;0.1481;-0.1434;
-92.4000;0.1481;-0.1505;
-92.1000;0.1530;-0.1434;
-91.8000;0.1490;-0.1482;
-91.5000;0.1522;-0.1314;
-91.2000;0.1522;-0.1290;
-90.9000;0.1522;-0.1314;
-90.6000;0.1514;-0.1434;
-90.3000;0.1530;-0.1386;
-90.0000;0.1514;-0.1505;
-89.7000;0.1579;-0.1290;
-89.4000;0.1530;-0.1338;
-89.1000;0.1498;-0.1434;
-88.8000;0.1506;-0.1458;
-88.5000;0.1481;-0.1577;
-88.2000;0.1514;-0.1434;
-87.9000;0.1506;-0.1458;
-87.6000;0.1514;-0.1386;
-87.3000;0.1514;-0.1386;
-87.0000;0.1514;-0.1362;
-86.7000;0.1465;-0.1482;
-86.4000;0.1465;-0.1434;
-86.1000;0.1555;-0.1219;
-85.8000;0.1530;-0.1266;
-85.5000;0.1522;-0.1290;
-85.2000;0.1571;-0.1195;
-84.9000;0.1530;-0.1314;
-84.6000;0.1538;-0.1243;
-84.3000;0.1612;-0.1028;
-84.0000;0.1490;-0.1266;
-83.7000;0.1530;-0.1219;
-83.4000;0.1506;-0.1338;
-83.1000;0.1579;-0.1266;
-82.8000;0.1530;-0.1434;
-82.5000;0.1481;-0.1577;
-82.2000;0.1514;-0.1505;
-81.9000;0.1579;-0.1314;
-81.6000;0.1514;-0.1458;
-81.3000;0.1457;-0.1601;
-81.0000;0.1506;-0.1482;
-80.7000;0.1514;-0.1434;
-80.4000;0.1522;-0.1505;
-80.1000;0.1571;-0.1314;
-79.8000;0.1514;-0.1505;
-79.5000;0.1506;-0.1458;
-79.2000;0.1506;-0.1458;
-78.9000;0.1506;-0.1505;
-78.6000;0.1522;-0.1458;
-78.3000;0.1522;-0.1434;
-78.0000;0.1579;-0.1219;
-77.7000;0.1538;-0.1290;
-77.4000;0.1587;-0.1195;
-77.1000;0.1530;-0.1386;
-76.8000;0.1506;-0.1458;
-76.5000;0.1506;-0.1458;
-76.2000;0.1522;-0.1410;
-75.9000;0.1514;-0.1338;
-75.6000;0.1514;-0.1314;
-75.3000;0.1481;-0.1410;
-75.0000;0.1530;-0.1266;
-74.7000;0.1514;-0.1338;
-74.4000;0.1530;-0.1243;
-74.1000;0.1530;-0.1243;
-73.8000;0.1514;-0.1314;
-73.5000;0.1547;-0.1290;
-73.2000;0.1490;-0.1482;
-72.9000;0.1555;-0.1362;
-72.6000;0.1514;-0.1458;
-72.3000;0.1522;-0.1362;
-72.0000;0.1490;-0.1505;
-71.7000;0.1425;-0.1649;
-71.4000;0.1530;-0.1410;
-71.1000;0.1538;-0.1577;
-70.8000;0.1490;-0.1625;
-70.5000;0.1538;-0.1505;
-70.2000;0.1498;-0.1553;
-69.9000;0.1522;-0.1505;
-69.6000;0.1490;-0.1553;
-69.3000;0.1506;-0.1577;
-69.0000;0.1481;-0.1601;
-68.7000;0.1457;-0.1673;
-68.4000;0.1514;-0.1434;
-68.1000;0.1522;-0.1410;
-67.8000;0.1522;-0.1482;
-67.5000;0.1514;-0.1529;
-67.2000;0.1522;-0.1505;
-66.9000;0.1498;-0.1553;
-66.6000;0.1465;-0.1649;
-66.3000;0.1449;-0.1744;
-66.0000;0.1498;-0.1649;
-65.7000;0.1514;-0.1505;
-65.4000;0.1547;-0.1362;
-65.1000;0.1522;-0.1458;
-64.8000;0.1514;-0.1434;
-64.5000;0.1498;-0.1577;
-64.2000;0.1530;-0.1529;
-63.9000;0.1481;-0.1721;
-63.6000;0.1522;-0.1577;
-63.3000;0.1538;-0.1529;
-63.0000;0.1465;-0.1697;
-62.7000;0.1506;-0.1553;
-62.4000;0.1538;-0.1482;
-62.1000;0.1587;-0.1362;
-61.8000;0.1490;-0.1649;
-61.5000;0.1547;-0.1553;
-61.2000;0.1522;-0.1577;
-60.9000;0.1514;-0.1697;
-60.6000;0.1481;-0.1792;
-60.3000;0.1498;-0.1768;
-60.0000;0.1514;-0.1697;
-59.7000;0.1506;-0.1744;
-59.4000;0.1514;-0.1673;
-59.1000;0.1595;-0.1314;
-58.8000;0.1538;-0.1482;
-58.5000;0.1490;-0.1482;
-58.2000;0.1514;-0.1482;
-57.9000;0.1498;-0.1577;
-57.6000;0.1522;-0.1529;
-57.3000;0.1538;-0.1529;
-57.0000;0.1522;-0.1577;
-56.7000;0.1522;-0.1553;
-56.4000;0.1579;-0.1410;
-56.1000;0.1498;-0.1577;
-55.8000;0.1498;-0.1697;
-55.5000;0.1498;-0.1721;
-55.2000;0.1522;-0.1721;
-54.9000;0.1522;-0.1697;
-54.6000;0.1498;-0.1673;
-54.3000;0.1514;-0.1601;
-54.0000;0.1571;-0.1458;
-53.7000;0.1498;-0.1649;
-53.4000;0.1522;-0.1649;
-53.1000;0.1522;-0.1673;
-52.8000;0.1514;-0.1744;
-52.5000;0.1506;-0.1768;
-52.2000;0.1514;-0.1721;
-51.9000;0.1522;-0.1744;
-51.6000;0.1514;-0.1673;
-51.3000;0.1522;-0.1744;
-51.0000;0.1514;-0.1744;
-50.7000;0.1522;-0.1792;
-50.4000;0.1514;-0.1864;
-50.1000;0.1514;-0.1816;
-49.8000;0.1498;-0.1840;
-49.5000;0.1522;-0.1697;
-49.2000;0.1506;-0.1768;
-48.9000;0.1522;-0.1649;
-48.6000;0.1490;-0.1744;
-48.3000;0.1498;-0.1697;
-48.0000;0.1563;-0.1529;
-47.7000;0.1506;-0.1577;
-47.4000;0.1514;-0.1673;
-47.1000;0.1547;-0.1577;
-46.8000;0.1555;-0.1577;
-46.5000;0.1522;-0.1697;
-46.2000;0.1514;-0.1744;
-45.9000;0.1498;-0.1768;
-45.6000;0.1506;-0.1792;
-45.3000;0.1522;-0.1768;
-45.0000;0.1473;-0.1816;
-44.7000;0.1530;-0.1697;
-44.4000;0.1449;-0.1936;
-44.1000;0.1514;-0.1768;
-43.8000;0.1473;-0.1792;
-43.5000;0.1498;-0.1864;
-43.2000;0.1514;-0.1792;
-42.9000;0.1514;-0.1744;
-42.6000;0.1538;-0.1625;
-42.3000;0.1498;-0.1792;
-42.0000;0.1506;-0.1721;
-41.7000;0.1506;-0.1673;
-41.4000;0.1514;-0.1601;
-41.1000;0.1522;-0.1649;
-40.8000;0.1498;-0.1673;
-40.5000;0.1522;-0.1721;
-40.2000;0.1514;-0.1792;
-39.9000;0.1530;-0.1768;
-39.6000;0.1506;-0.1816;
-39.3000;0.1514;-0.1816;
-39.0000;0.1514;-0.1721;
-38.7000;0.1514;-0.1721;
-38.4000;0.1498;-0.1673;
-38.1000;0.1490;-0.1673;
-37.8000;0.1506;-0.1673;
-37.5000;0.1530;-0.1721;
-37.2000;0.1498;-0.1744;
-36.9000;0.1490;-0.1744;
-36.6000;0.1498;-0.1792;
-36.3000;0.1522;-0.1816;
-36.0000;0.1506;-0.1888;
-35.7000;0.1498;-0.1959;
-35.4000;0.1522;-0.1936;
-35.1000;0.1506;-0.1983;
-34.8000;0.1514;-0.2055;
-34.5000;0.1522;-0.1912;
-34.2000;0.1506;-0.1959;
-33.9000;0.1530;-0.1840;
-33.6000;0.1538;-0.1816;
-33.3000;0.1392;-0.2175;
-33.0000;0.1498;-0.1888;
-32.7000;0.1506;-0.1864;
-32.4000;0.1416;-0.2175;
-32.1000;0.1522;-0.1840;
-31.8000;0.1490;-0.1888;
-31.5000;0.1506;-0.1768;
-31.2000;0.1530;-0.1673;
-30.9000;0.1514;-0.1649;
-30.6000;0.1514;-0.1649;
-30.3000;0.1490;-0.1673;
-30.0000;0.1522;-0.1792;
-29.7000;0.1530;-0.1721;
-29.4000;0.1522;-0.1744;
-29.1000;0.1498;-0.1840;
-28.8000;0.1514;-0.1673;
-28.5000;0.1506;-0.1697;
-28.2000;0.1498;-0.1721;
-27.9000;0.1498;-0.1697;
-27.6000;0.1530;-0.1649;
-27.3000;0.1490;-0.1697;
-27.0000;0.1506;-0.1697;
-26.7000;0.1514;-0.1792;
-26.4000;0.1530;-0.1768;
-26.1000;0.1522;-0.1792;
-25.8000;0.1506;-0.1816;
-25.5000;0.1530;-0.1864;
-25.2000;0.1498;-0.1959;
-24.9000;0.1522;-0.1912;
-24.6000;0.1571;-0.1744;
-24.3000;0.1522;-0.1840;
-24.0000;0.1522;-0.1912;
-23.7000;0.1506;-0.1936;
-23.4000;0.1563;-0.1816;
-23.1000;0.1498;-0.1983;
-22.8000;0.1538;-0.1912;
-22.5000;0.1514;-0.1912;
-22.2000;0.1530;-0.1864;
-21.9000;0.1514;-0.1792;
-21.6000;0.1628;-0.1458;
-21.3000;0.1498;-0.1649;
-21.0000;0.1498;-0.1673;
-20.7000;0.1514;-0.1577;
-20.4000;0.1506;-0.1673;
-20.1000;0.1490;-0.1744;
-19.8000;0.1530;-0.1744;
-19.5000;0.1522;-0.1697;
-19.2000;0.1481;-0.1792;
-18.9000;0.1416;-0.1959;
-18.6000;0.1522;-0.1625;
-18.3000;0.1522;-0.1553;
-18.0000;0.1498;-0.1601;
-17.7000;0.1498;-0.1505;
-17.4000;0.1441;-0.1697;
-17.1000;0.1522;-0.1529;
-16.8000;0.1490;-0.1649;
-16.5000;0.1530;-0.1697;
-16.2000;0.1514;-0.1792;
-15.9000;0.1514;-0.1744;
-15.6000;0.1514;-0.1721;
-15.3000;0.1490;-0.1697;
-15.0000;0.1498;-0.1649;
-14.7000;0.1506;-0.1601;
-14.4000;0.1522;-0.1505;
-14.1000;0.1538;-0.1601;
-13.8000;0.1498;-0.1744;
-13.5000;0.1579;-0.1529;
-13.2000;0.1392;-0.2031;
-12.9000;0.1506;-0.1649;
-12.6000;0.1498;-0.1721;
-12.3000;0.1563;-0.1577;
-12.0000;0.1473;-0.1840;
-11.7000;0.1522;-0.1697;
-11.4000;0.1514;-0.1649;
-11.1000;0.1530;-0.1768;
-10.8000;0.1530;-0.1888;
-10.5000;0.1522;-0.1912;
-10.2000;0.1457;-0.1983;
-9.9000;0.1490;-0.1816;
-9.6000;0.1522;-0.1697;
-9.3000;0.1522;-0.1697;
-9.0000;0.1490;-0.1792;
-8.7000;0.1514;-0.1721;
-8.4000;0.1522;-0.1601;
-8.1000;0.1522;-0.1553;
-7.8000;0.1522;-0.1601;
-7.5000;0.1506;-0.1625;
-7.2000;0.1449;-0.1864;
-6.9000;0.1538;-0.1697;
-6.6000;0.1514;-0.1744;
-6.3000;0.1408;-0.2055;
-6.0000;0.1498;-0.1816;
-5.7000;0.1522;-0.1768;
-5.4000;0.1514;-0.1864;
-5.1000;0.1506;-0.1864;
-4.8000;0.1506;-0.1864;
-4.5000;0.1490;-0.1888;
-4.2000;0.1514;-0.1840;
-3.9000;0.1514;-0.1792;
-3.6000;0.1522;-0.1816;
-3.3000;0.1490;-0.1768;
-3.0000;0.1514;-0.1721;
-2.7000;0.1506;-0.1721;
-2.4000;0.1498;-0.1744;
-2.1000;0.1506;-0.1792;
-1.8000;0.1514;-0.1673;
-1.5000;0.1522;-0.1601;
-1.2000;0.1506;-0.1721;
-0.9000;0.1636;-0.1434;
-0.6000;0.1514;-0.1816;
-0.3000;0.1514;-0.1792;
0.0000;0.1514;-0.1792;
0.3000;0.1547;-0.1888;
0.6000;0.1457;-0.2055;
0.9000;0.1514;-0.1721;
1.2000;0.1538;-0.1577;
1.5000;0.1530;-0.1482;
1.8000;0.1481;-0.1505;
2.1000;0.1481;-0.1434;
2.4000;0.1579;-0.0980;
2.7000;0.1506;-0.1099;
3.0000;0.1514;-0.1051;
3.3000;0.1595;-0.0717;
3.6000;0.1522;-0.0812;
3.9000;0.1530;-0.0765;
4.2000;0.1514;-0.0836;
4.5000;0.1514;-0.0860;
4.8000;0.1530;-0.0836;
5.1000;0.1498;-0.0884;
5.4000;0.1530;-0.0693;
5.7000;0.1522;-0.0717;
6.0000;0.1506;-0.0741;
6.3000;0.1595;-0.0430;
6.6000;0.1506;-0.0645;
6.9000;0.1522;-0.0669;
7.2000;0.1538;-0.0645;
7.5000;0.1538;-0.0645;
7.8000;0.1514;-0.0693;
8.1000;0.1538;-0.0741;
8.4000;0.1530;-0.0717;
8.7000;0.1555;-0.0693;
9.0000;0.1522;-0.0812;
9.3000;0.1514;-0.0932;
9.6000;0.1563;-0.0765;
9.9000;0.1530;-0.0956;
10.2000;0.1514;-0.0956;
10.5000;0.1514;-0.0884;
10.8000;0.1555;-0.0765;
11.1000;0.1522;-0.0836;
11.4000;0.1547;-0.0741;
11.7000;0.1530;-0.0789;
12.0000;0.1514;-0.0812;
12.3000;0.1579;-0.0621;
12.6000;0.1538;-0.0717;
12.9000;0.1538;-0.0669;
13.2000;0.1522;-0.0741;
13.5000;0.1506;-0.0693;
13.8000;0.1490;-0.0741;
14.1000;0.1506;-0.0669;
14.4000;0.1490;-0.0741;
14.7000;0.1506;-0.0717;
15.0000;0.1514;-0.0717;
15.3000;0.1514;-0.0645;
15.6000;0.1457;-0.0836;
15.9000;0.1514;-0.0693;
16.2000;0.1506;-0.0741;
16.5000;0.1514;-0.0812;
16.8000;0.1522;-0.0765;
17.1000;0.1473;-0.0812;
17.4000;0.1530;-0.0717;
17.7000;0.1530;-0.0693;
18.0000;0.1522;-0.0741;
18.3000;0.1498;-0.0693;
18.6000;0.1441;-0.0956;
18.9000;0.1547;-0.0645;
19.2000;0.1506;-0.0717;
19.5000;0.1498;-0.0645;
19.8000;0.1514;-0.0574;
20.1000;0.1563;-0.0526;
20.4000;0.1538;-0.0526;
20.7000;0.1498;-0.0574;
21.0000;0.1481;-0.0669;
21.3000;0.1530;-0.0478;
21.6000;0.1481;-0.0597;
21.9000;0.1514;-0.0430;
22.2000;0.1530;-0.0454;
22.5000;0.1514;-0.0502;
22.8000;0.1530;-0.0430;
23.1000;0.1547;-0.0382;
23.4000;0.1530;-0.0502;
23.7000;0.1506;-0.0645;
24.0000;0.1514;-0.0597;
24.3000;0.1465;-0.0812;
24.6000;0.1522;-0.0597;
24.9000;0.1506;-0.0597;
25.2000;0.1457;-0.0645;
25.5000;0.1498;-0.0502;
25.8000;0.1506;-0.0478;
26.1000;0.1457;-0.0574;
26.4000;0.1376;-0.0884;
26.7000;0.1498;-0.0478;
27.0000;0.1514;-0.0502;
27.3000;0.1481;-0.0574;
27.6000;0.1498;-0.0597;
27.9000;0.1514;-0.0550;
28.2000;0.1547;-0.0502;
28.5000;0.1522;-0.0550;
28.8000;0.1506;-0.0621;
29.1000;0.1530;-0.0502;
29.4000;0.1506;-0.0502;
29.7000;0.1465;-0.0645;
30.0000;0.1604;-0.0311;
30.3000;0.1498;-0.0597;
30.6000;0.1514;-0.0526;
30.9000;0.1506;-0.0621;
31.2000;0.1514;-0.0669;
31.5000;0.1498;-0.0669;
31.8000;0.1522;-0.0550;
32.1000;0.1506;-0.0574;
32.4000;0.1522;-0.0454;
32.7000;0.1498;-0.0406;
33.0000;0.1530;-0.0358;
33.3000;0.1514;-0.0382;
33.6000;0.1579;-0.0215;
33.9000;0.1547;-0.0311;
34.2000;0.1530;-0.0335;
34.5000;0.1530;-0.0239;
34.8000;0.1433;-0.0645;
35.1000;0.1498;-0.0502;
35.4000;0.1530;-0.0406;
35.7000;0.1522;-0.0454;
36.0000;0.1514;-0.0550;
36.3000;0.1522;-0.0526;
36.6000;0.1530;-0.0382;
36.9000;0.1530;-0.0358;
37.2000;0.1522;-0.0502;
37.5000;0.1514;-0.0478;
37.8000;0.1612;-0.0215;
38.1000;0.1498;-0.0574;
38.4000;0.1538;-0.0478;
38.7000;0.1538;-0.0526;
39.0000;0.1506;-0.0597;
39.3000;0.1604;-0.0382;
39.6000;0.1498;-0.0669;
39.9000;0.1530;-0.0597;
40.2000;0.1522;-0.0574;
40.5000;0.1522;-0.0621;
40.8000;0.1384;-0.1028;
41.1000;0.1481;-0.0717;
41.4000;0.1506;-0.0597;
41.7000;0.1490;-0.0550;
42.0000;0.1498;-0.0454;
42.3000;0.1465;-0.0502;
42.6000;0.1514;-0.0406;
42.9000;0.1506;-0.0526;
43.2000;0.1506;-0.0478;
43.5000;0.1514;-0.0430;
43.8000;0.1522;-0.0502;
44.1000;0.1530;-0.0478;
44.4000;0.1530;-0.0526;
44.7000;0.1514;-0.0574;
45.0000;0.1530;-0.0574;
45.3000;0.1530;-0.0550;
45.6000;0.1522;-0.0669;
45.9000;0.1506;-0.0669;
46.2000;0.1530;-0.0621;
46.5000;0.1498;-0.0741;
46.8000;0.1481;-0.0717;
47.1000;0.1498;-0.0741;
47.4000;0.1563;-0.0645;
47.7000;0.1498;-0.0812;
48.0000;0.1498;-0.0812;
48.3000;0.1473;-0.0860;
48.6000;0.1530;-0.0693;
48.9000;0.1530;-0.0693;
49.2000;0.1620;-0.0550;
49.5000;0.1481;-0.0884;
49.8000;0.1530;-0.0717;
50.1000;0.1555;-0.0621;
50.4000;0.1433;-0.0956;
50.7000;0.1506;-0.0812;
51.0000;0.1514;-0.0741;
51.3000;0.1506;-0.0645;
51.6000;0.1498;-0.0669;
51.9000;0.1506;-0.0574;
52.2000;0.1506;-0.0574;
52.5000;0.1498;-0.0669;
52.8000;0.1498;-0.0621;
53.1000;0.1522;-0.0478;
53.4000;0.1506;-0.0406;
53.7000;0.1563;-0.0263;
54.0000;0.1506;-0.0430;
54.3000;0.1522;-0.0478;
54.6000;0.1481;-0.0574;
54.9000;0.1506;-0.0526;
55.2000;0.1514;-0.0502;
55.5000;0.1498;-0.0502;
55.8000;0.1514;-0.0574;
56.1000;0.1514;-0.0645;
56.4000;0.1555;-0.0597;
56.7000;0.1465;-0.0884;
57.0000;0.1604;-0.0502;
57.3000;0.1522;-0.0645;
57.6000;0.1522;-0.0669;
57.9000;0.1530;-0.0645;
58.2000;0.1514;-0.0621;
58.5000;0.1465;-0.0621;
58.8000;0.1514;-0.0502;
59.1000;0.1465;-0.0621;
59.4000;0.1490;-0.0550;
59.7000;0.1563;-0.0358;
60.0000;0.1514;-0.0478;
60.3000;0.1555;-0.0382;
60.6000;0.1441;-0.0597;
60.9000;0.1481;-0.0478;
61.2000;0.1498;-0.0478;
61.5000;0.1547;-0.0430;
61.8000;0.1563;-0.0406;
62.1000;0.1490;-0.0430;
62.4000;0.1514;-0.0430;
62.7000;0.1571;-0.0263;
63.0000;0.1514;-0.0358;
63.3000;0.1498;-0.0382;
63.6000;0.1498;-0.0335;
63.9000;0.1530;-0.0239;
64.2000;0.1514;-0.0335;
64.5000;0.1604;-0.0167;
64.8000;0.1514;-0.0478;
65.1000;0.1514;-0.0550;
65.4000;0.1506;-0.0597;
65.7000;0.1457;-0.0812;
66.0000;0.1514;-0.0693;
66.3000;0.1563;-0.0669;
66.6000;0.1514;-0.0956;
66.9000;0.1498;-0.0908;
67.2000;0.1522;-0.0741;
67.5000;0.1547;-0.0597;
67.8000;0.1522;-0.0621;
68.1000;0.1514;-0.0669;
68.4000;0.1506;-0.0741;
68.7000;0.1522;-0.0621;
69.0000;0.1522;-0.0621;
69.3000;0.1530;-0.0597;
69.6000;0.1522;-0.0550;
69.9000;0.1522;-0.0574;
70.2000;0.1522;-0.0645;
70.5000;0.1522;-0.0621;
70.8000;0.1538;-0.0621;
71.1000;0.1481;-0.0741;
71.4000;0.1506;-0.0526;
71.7000;0.1506;-0.0574;
72.0000;0.1530;-0.0550;
72.3000;0.1514;-0.0669;
72.6000;0.1522;-0.0693;
72.9000;0.1514;-0.0645;
73.2000;0.1481;-0.0574;
73.5000;0.1522;-0.0406;
73.8000;0.1522;-0.0430;
74.1000;0.1490;-0.0526;
74.4000;0.1506;-0.0526;
74.7000;0.1522;-0.0502;
75.0000;0.1522;-0.0502;
75.3000;0.1498;-0.0574;
75.6000;0.1522;-0.0454;
75.9000;0.1530;-0.0526;
76.2000;0.1506;-0.0526;
76.5000;0.1481;-0.0621;
76.8000;0.1498;-0.0574;
77.1000;0.1514;-0.0478;
77.4000;0.1506;-0.0550;
77.7000;0.1530;-0.0526;
78.0000;0.1506;-0.0597;
78.3000;0.1514;-0.0526;
78.6000;0.1522;-0.0478;
78.9000;0.1514;-0.0526;
79.2000;0.1498;-0.0621;
79.5000;0.1449;-0.0717;
79.8000;0.1514;-0.0478;
80.1000;0.1514;-0.0430;
80.4000;0.1514;-0.0311;
80.7000;0.1514;-0.0382;
81.0000;0.1522;-0.0430;
81.3000;0.1522;-0.0335;
81.6000;0.1490;-0.0502;
81.9000;0.1522;-0.0430;
82.2000;0.1530;-0.0430;
82.5000;0.1538;-0.0430;
82.8000;0.1514;-0.0502;
83.1000;0.1514;-0.0574;
83.4000;0.1530;-0.0502;
83.7000;0.1498;-0.0597;
84.0000;0.1530;-0.0574;
84.3000;0.1514;-0.0574;
84.6000;0.1555;-0.0454;
84.9000;0.1506;-0.0550;
85.2000;0.1498;-0.0597;
85.5000;0.1506;-0.0597;
85.8000;0.1538;-0.0430;
86.1000;0.1514;-0.0550;
86.4000;0.1506;-0.0478;
86.7000;0.1498;-0.0550;
87.0000;0.1547;-0.0502;
87.3000;0.1522;-0.0502;
87.6000;0.1522;-0.0502;
87.9000;0.1522;-0.0502;
88.2000;0.1530;-0.0478;
88.5000;0.1530;-0.0502;
88.8000;0.1506;-0.0478;
89.1000;0.1514;-0.0454;
89.4000;0.1522;-0.0454;
89.7000;0.1530;-0.0406;
90.0000;0.1595;-0.0311;
90.3000;0.1498;-0.0430;
90.6000;0.1514;-0.0430;
90.9000;0.1506;-0.0406;
91.2000;0.1514;-0.0382;
91.5000;0.1530;-0.0406;
91.8000;0.1514;-0.0454;
92.1000;0.1538;-0.0430;
92.4000;0.1514;-0.0358;
92.7000;0.1522;-0.0335;
93.0000;0.1530;-0.0311;
93.3000;0.1506;-0.0406;
93.6000;0.1522;-0.0430;
93.9000;0.1522;-0.0454;
94.2000;0.1465;-0.0621;
94.5000;0.1498;-0.0454;
94.8000;0.1522;-0.0478;
95.1000;0.1530;-0.0382;
95.4000;0.1514;-0.0454;
95.7000;0.1514;-0.0358;
96.0000;0.1514;-0.0311;
96.3000;0.1506;-0.0430;
96.6000;0.1538;-0.0335;
96.9000;0.1506;-0.0358;
97.2000;0.1563;-0.0239;
97.5000;0.1498;-0.0287;
97.8000;0.1514;-0.0287;
98.1000;0.1522;-0.0263;
98.4000;0.1425;-0.0502;
98.7000;0.1530;-0.0191;
99.0000;0.1514;-0.0167;
99.3000;0.1522;-0.0167;
99.6000;0.1538;-0.0239;
99.9000;0.1506;-0.0311;
100.2000;0.1441;-0.0574;
100.5000;0.1555;-0.0239;
100.8000;0.1514;-0.0358;
101.1000;0.1538;-0.0239;
101.4000;0.1514;-0.0287;
101.7000;0.1514;-0.0311;
102.0000;0.1498;-0.0382;
102.3000;0.1449;-0.0478;
102.6000;0.1506;-0.0263;
102.9000;0.1514;-0.0263;
103.2000;0.1514;-0.0263;
103.5000;0.1522;-0.0191;
103.8000;0.1636;0.0072;
104.1000;0.1506;-0.0335;
104.4000;0.1522;-0.0311;
104.7000;0.1547;-0.0191;
105.0000;0.1514;-0.0311;
105.3000;0.1522;-0.0287;
105.6000;0.1522;-0.0311;
105.9000;0.1506;-0.0382;
106.2000;0.1530;-0.0311;
106.5000;0.1465;-0.0430;
106.8000;0.1481;-0.0406;
107.1000;0.1498;-0.0358;
107.4000;0.1538;-0.0287;
107.7000;0.1481;-0.0478;
108.0000;0.1425;-0.0765;
108.3000;0.1522;-0.0454;
108.6000;0.1498;-0.0526;
108.9000;0.1498;-0.0550;
109.2000;0.1522;-0.0478;
109.5000;0.1473;-0.0550;
109.8000;0.1538;-0.0382;
110.1000;0.1514;-0.0430;
110.4000;0.1522;-0.0358;
110.7000;0.1530;-0.0335;
111.0000;0.1522;-0.0406;
111.3000;0.1498;-0.0406;
111.6000;0.1506;-0.0406;
111.9000;0.1506;-0.0430;
112.2000;0.1514;-0.0406;
112.5000;0.1555;-0.0287;
112.8000;0.1506;-0.0550;
113.1000;0.1506;-0.0502;
113.4000;0.1522;-0.0406;
113.7000;0.1530;-0.0358;
114.0000;0.1392;-0.0669;
114.3000;0.1473;-0.0550;
114.6000;0.1530;-0.0454;
114.9000;0.1522;-0.0478;
115.2000;0.1522;-0.0550;
115.5000;0.1514;-0.0550;
115.8000;0.1522;-0.0526;
116.1000;0.1514;-0.0502;
116.4000;0.1538;-0.0406;
116.7000;0.1498;-0.0478;
117.0000;0.1522;-0.0358;
117.3000;0.1449;-0.0597;
117.6000;0.1498;-0.0502;
117.9000;0.1433;-0.0621;
118.2000;0.1530;-0.0335;
118.5000;0.1490;-0.0430;
118.8000;0.1522;-0.0335;
119.1000;0.1514;-0.0406;
119.4000;0.1384;-0.0812;
119.7000;0.1514;-0.0454;
120.0000;0.1530;-0.0406;
120.3000;0.1506;-0.0406;
120.6000;0.1506;-0.0358;
120.9000;0.1514;-0.0358;
121.2000;0.1514;-0.0358;
121.5000;0.1498;-0.0430;
121.8000;0.1506;-0.0382;
122.1000;0.1522;-0.0406;
122.4000;0.1530;-0.0358;
122.7000;0.1555;-0.0191;
123.0000;0.1506;-0.0311;
123.3000;0.1490;-0.0358;
123.6000;0.1563;-0.0191;
123.9000;0.1506;-0.0287;
124.2000;0.1514;-0.0263;
124.5000;0.1490;-0.0406;
124.8000;0.1514;-0.0382;
125.1000;0.1522;-0.0287;
125.4000;0.1490;-0.0335;
125.7000;0.1587;-0.0119;
126.0000;0.1481;-0.0454;
126.3000;0.1498;-0.0478;
126.6000;0.1563;-0.0239;
126.9000;0.1522;-0.0358;
127.2000;0.1571;-0.0287;
127.5000;0.1530;-0.0478;
127.8000;0.1579;-0.0263;
128.1000;0.1530;-0.0406;
128.4000;0.1522;-0.0502;
128.7000;0.1522;-0.0526;
129.0000;0.1498;-0.0574;
129.3000;0.1506;-0.0597;
129.6000;0.1498;-0.0574;
129.9000;0.1506;-0.0574;
130.2000;0.1538;-0.0526;
130.5000;0.1433;-0.0717;
130.8000;0.1490;-0.0621;
131.1000;0.1530;-0.0550;
131.4000;0.1538;-0.0597;
131.7000;0.1506;-0.0621;
132.0000;0.1506;-0.0717;
132.3000;0.1538;-0.0550;
132.6000;0.1612;-0.0311;
132.9000;0.1498;-0.0597;
133.2000;0.1514;-0.0574;
133.5000;0.1449;-0.0669;
133.8000;0.1506;-0.0550;
134.1000;0.1506;-0.0454;
134.4000;0.1514;-0.0478;
134.7000;0.1506;-0.0454;
135.0000;0.1498;-0.0430;
135.3000;0.1449;-0.0550;
135.6000;0.1506;-0.0454;
135.9000;0.1514;-0.0430;
136.2000;0.1538;-0.0311;
136.5000;0.1522;-0.0358;
136.8000;0.1522;-0.0502;
137.1000;0.1522;-0.0502;
137.4000;0.1522;-0.0478;
137.7000;0.1587;-0.0358;
138.0000;0.1530;-0.0526;
138.3000;0.1571;-0.0358;
138.6000;0.1514;-0.0382;
138.9000;0.1465;-0.0526;
139.2000;0.1636;-0.0096;
139.5000;0.1506;-0.0550;
139.8000;0.1514;-0.0502;
140.1000;0.1490;-0.0550;
140.4000;0.1530;-0.0430;
140.7000;0.1514;-0.0502;
141.0000;0.1522;-0.0550;
141.3000;0.1538;-0.0526;
141.6000;0.1514;-0.0526;
141.9000;0.1506;-0.0526;
142.2000;0.1547;-0.0335;
142.5000;0.1498;-0.0478;
142.8000;0.1514;-0.0406;
143.1000;0.1538;-0.0263;
143.4000;0.1522;-0.0311;
143.7000;0.1498;-0.0311;
144.0000;0.1538;-0.0239;
144.3000;0.1530;-0.0358;
144.6000;0.1538;-0.0406;
144.9000;0.1514;-0.0550;
145.2000;0.1522;-0.0526;
145.5000;0.1547;-0.0502;
145.8000;0.1522;-0.0502;
146.1000;0.1620;-0.0191;
146.4000;0.1465;-0.0645;
146.7000;0.1522;-0.0574;
147.0000;0.1522;-0.0502;
147.3000;0.1530;-0.0430;
147.6000;0.1506;-0.0502;
147.9000;0.1530;-0.0478;
148.2000;0.1530;-0.0526;
148.5000;0.1506;-0.0645;
148.8000;0.1498;-0.0597;
149.1000;0.1522;-0.0502;
149.4000;0.1522;-0.0526;
149.7000;0.1514;-0.0645;
150.0000;0.1514;-0.0669;
150.3000;0.1498;-0.0693;
150.6000;0.1506;-0.0693;
150.9000;0.1457;-0.0717;
151.2000;0.1522;-0.0502;
151.5000;0.1547;-0.0382;
151.8000;0.1579;-0.0287;
152.1000;0.1506;-0.0454;
152.4000;0.1522;-0.0430;
152.7000;0.1538;-0.0335;
153.0000;0.1522;-0.0335;
153.3000;0.1514;-0.0358;
153.6000;0.1547;-0.0358;
153.9000;0.1473;-0.0550;
154.2000;0.1530;-0.0406;
154.5000;0.1465;-0.0574;
154.8000;0.1530;-0.0358;
155.1000;0.1498;-0.0430;
155.4000;0.1628;-0.0072;
155.7000;0.1514;-0.0454;
156.0000;0.1522;-0.0478;
156.3000;0.1457;-0.0574;
156.6000;0.1506;-0.0526;
156.9000;0.1384;-0.0812;
157.2000;0.1538;-0.0382;
157.5000;0.1563;-0.0406;
157.8000;0.1514;-0.0597;
158.1000;0.1538;-0.0502;
158.4000;0.1644;-0.0215;
158.7000;0.1514;-0.0502;
159.0000;0.1522;-0.0526;
159.3000;0.1522;-0.0526;
159.6000;0.1530;-0.0550;
159.9000;0.1514;-0.0717;
160.2000;0.1530;-0.0645;
160.5000;0.1522;-0.0597;
160.8000;0.1538;-0.0478;
161.1000;0.1506;-0.0502;
161.4000;0.1506;-0.0454;
161.7000;0.1449;-0.0621;
162.0000;0.1522;-0.0406;
162.3000;0.1538;-0.0358;
162.6000;0.1522;-0.0382;
162.9000;0.1514;-0.0454;
163.2000;0.1514;-0.0478;
163.5000;0.1514;-0.0597;
163.8000;0.1522;-0.0574;
164.1000;0.1522;-0.0502;
164.4000;0.1522;-0.0502;
164.7000;0.1514;-0.0430;
165.0000;0.1530;-0.0430;
165.3000;0.1522;-0.0502;
165.6000;0.1490;-0.0597;
165.9000;0.1506;-0.0645;
166.2000;0.1514;-0.0621;
166.5000;0.1514;-0.0669;
166.8000;0.1481;-0.0741;
167.1000;0.1514;-0.0645;
167.4000;0.1538;-0.0550;
167.7000;0.1530;-0.0574;
168.0000;0.1514;-0.0645;
168.3000;0.1506;-0.0669;
168.6000;0.1522;-0.0669;
168.9000;0.1530;-0.0693;
169.2000;0.1498;-0.0860;
169.5000;0.1522;-0.0836;
169.8000;0.1506;-0.0932;
170.1000;0.1538;-0.0884;
170.4000;0.1604;-0.0765;
170.7000;0.1490;-0.1051;
171.0000;0.1506;-0.0956;
171.3000;0.1522;-0.0932;
171.6000;0.1506;-0.0932;
171.9000;0.1506;-0.0884;
172.2000;0.1490;-0.0884;
172.5000;0.1457;-0.0812;
172.8000;0.1506;-0.0669;
173.1000;0.1522;-0.0597;
173.4000;0.1530;-0.0526;
173.7000;0.1514;-0.0454;
174.0000;0.1498;-0.0454;
174.3000;0.1530;-0.0358;
174.6000;0.1530;-0.0382;
174.9000;0.1522;-0.0358;
175.2000;0.1481;-0.0478;
175.5000;0.1530;-0.0406;
175.8000;0.1498;-0.0550;
176.1000;0.1514;-0.0454;
176.4000;0.1498;-0.0478;
176.7000;0.1522;-0.0454;
177.0000;0.1506;-0.0454;
177.3000;0.1498;-0.0478;
177.6000;0.1563;-0.0430;
177.9000;0.1506;-0.0574;
178.2000;0.1481;-0.0621;
178.5000;0.1498;-0.0502;
178.8000;0.1522;-0.0478;
179.1000;0.1514;-0.0550;
179.4000;0.1498;-0.0502;
179.7000;0.1506;-0.0454;
180.0000;0.1522;-0.0382;
180.3000;0.1530;-0.0406;
180.6000;0.1571;-0.0358;
180.9000;0.1514;-0.0454;
181.2000;0.1506;-0.0502;
181.5000;0.1522;-0.0478;
181.8000;0.1595;-0.0287;
182.1000;0.1481;-0.0526;
182.4000;0.1481;-0.0478;
182.7000;0.1522;-0.0358;
183.0000;0.1530;-0.0263;
183.3000;0.1514;-0.0335;
183.6000;0.1481;-0.0406;
183.9000;0.1506;-0.0430;
184.2000;0.1514;-0.0454;
184.5000;0.1514;-0.0478;
184.8000;0.1506;-0.0526;
185.1000;0.1473;-0.0621;
185.4000;0.1514;-0.0430;
185.7000;0.1514;-0.0478;
186.0000;0.1522;-0.0502;
186.3000;0.1506;-0.0574;
186.6000;0.1530;-0.0550;
186.9000;0.1530;-0.0526;
187.2000;0.1514;-0.0550;
187.5000;0.1530;-0.0502;
187.8000;0.1490;-0.0550;
188.1000;0.1514;-0.0478;
188.4000;0.1514;-0.0550;
188.7000;0.1522;-0.0454;
189.0000;0.1498;-0.0526;
189.3000;0.1506;-0.0478;
189.6000;0.1506;-0.0574;
189.9000;0.1498;-0.0574;
190.2000;0.1498;-0.0502;
190.5000;0.1644;-0.0167;
190.8000;0.1538;-0.0406;
191.1000;0.1514;-0.0502;
191.4000;0.1514;-0.0382;
191.7000;0.1530;-0.0358;
192.0000;0.1514;-0.0382;
192.3000;0.1506;-0.0358;
192.6000;0.1522;-0.0358;
192.9000;0.1506;-0.0382;
193.2000;0.1522;-0.0382;
193.5000;0.1433;-0.0717;
193.8000;0.1498;-0.0502;
194.1000;0.1498;-0.0526;
194.4000;0.1522;-0.0454;
194.7000;0.1506;-0.0430;
195.0000;0.1514;-0.0478;
195.3000;0.1514;-0.0382;
195.6000;0.1514;-0.0430;
195.9000;0.1514;-0.0335;
196.2000;0.1514;-0.0311;
196.5000;0.1522;-0.0358;
196.8000;0.1522;-0.0358;
197.1000;0.1514;-0.0406;
197.4000;0.1530;-0.0406;
197.7000;0.1514;-0.0430;
198.0000;0.1506;-0.0382;
198.3000;0.1514;-0.0382;
198.6000;0.1547;-0.0215;
198.9000;0.1522;-0.0287;
199.2000;0.1457;-0.0430;
199.5000;0.1547;-0.0263;
199.8000;0.1530;-0.0263;
200.1000;0.1514;-0.0335;
200.4000;0.1522;-0.0454;
200.7000;0.1514;-0.0502;
201.0000;0.1522;-0.0406;
201.3000;0.1506;-0.0526;
201.6000;0.1522;-0.0502;
201.9000;0.1538;-0.0382;
202.2000;0.1530;-0.0406;
202.5000;0.1538;-0.0335;
202.8000;0.1473;-0.0430;
203.1000;0.1636;-0.0096;
203.4000;0.1522;-0.0430;
203.7000;0.1481;-0.0574;
204.0000;0.1506;-0.0526;
204.3000;0.1490;-0.0574;
204.6000;0.1522;-0.0526;
204.9000;0.1514;-0.0550;
205.2000;0.1506;-0.0621;
205.5000;0.1481;-0.0669;
205.8000;0.1522;-0.0597;
206.1000;0.1392;-0.0908;
206.4000;0.1530;-0.0526;
206.7000;0.1514;-0.0550;
207.0000;0.1514;-0.0502;
207.3000;0.1530;-0.0478;
207.6000;0.1538;-0.0454;
207.9000;0.1522;-0.0358;
208.2000;0.1506;-0.0382;
208.5000;0.1514;-0.0406;
208.8000;0.1522;-0.0358;
209.1000;0.1563;-0.0239;
209.4000;0.1514;-0.0382;
209.7000;0.1490;-0.0430;
210.0000;0.1522;-0.0311;
210.3000;0.1530;-0.0311;
210.6000;0.1481;-0.0454;
210.9000;0.1522;-0.0311;
211.2000;0.1522;-0.0311;
211.5000;0.1498;-0.0263;
211.8000;0.1522;-0.0239;
212.1000;0.1587;-0.0167;
212.4000;0.1514;-0.0311;
212.7000;0.1522;-0.0239;
213.0000;0.1530;-0.0311;
213.3000;0.1538;-0.0335;
213.6000;0.1579;-0.0215;
213.9000;0.1514;-0.0382;
214.2000;0.1547;-0.0311;
214.5000;0.1433;-0.0621;
214.8000;0.1538;-0.0454;
215.1000;0.1522;-0.0550;
215.4000;0.1498;-0.0550;
215.7000;0.1514;-0.0550;
216.0000;0.1498;-0.0502;
216.3000;0.1514;-0.0502;
216.6000;0.1481;-0.0574;
216.9000;0.1490;-0.0645;
217.2000;0.1498;-0.0597;
217.5000;0.1547;-0.0502;
217.8000;0.1530;-0.0502;
218.1000;0.1514;-0.0621;
218.4000;0.1490;-0.0645;
218.7000;0.1522;-0.0597;
219.0000;0.1530;-0.0669;
219.3000;0.1392;-0.1051;
219.6000;0.1441;-0.1004;
219.9000;0.1555;-0.0669;
220.2000;0.1522;-0.0789;
220.5000;0.1481;-0.0884;
220.8000;0.1563;-0.0645;
221.1000;0.1514;-0.0741;
221.4000;0.1522;-0.0669;
221.7000;0.1498;-0.0693;
222.0000;0.1506;-0.0597;
222.3000;0.1490;-0.0597;
222.6000;0.1481;-0.0669;
222.9000;0.1506;-0.0550;
223.2000;0.1514;-0.0597;
223.5000;0.1538;-0.0502;
223.8000;0.1579;-0.0430;
224.1000;0.1538;-0.0478;
224.4000;0.1530;-0.0454;
224.7000;0.1506;-0.0574;
225.0000;0.1490;-0.0669;
225.3000;0.1457;-0.0693;
225.6000;0.1514;-0.0526;
225.9000;0.1506;-0.0526;
226.2000;0.1498;-0.0502;
226.5000;0.1514;-0.0502;
226.8000;0.1514;-0.0526;
227.1000;0.1587;-0.0239;
227.4000;0.1506;-0.0502;
227.7000;0.1506;-0.0550;
228.0000;0.1514;-0.0621;
228.3000;0.1579;-0.0382;
228.6000;0.1514;-0.0550;
228.9000;0.1498;-0.0550;
229.2000;0.1514;-0.0406;
229.5000;0.1620;-0.0143;
229.8000;0.1514;-0.0454;
230.1000;0.1506;-0.0502;
230.4000;0.1506;-0.0526;
230.7000;0.1538;-0.0406;
231.0000;0.1522;-0.0335;
231.3000;0.1522;-0.0335;
231.6000;0.1514;-0.0406;
231.9000;0.1522;-0.0478;
232.2000;0.1506;-0.0478;
232.5000;0.1481;-0.0478;
232.8000;0.1514;-0.0478;
233.1000;0.1506;-0.0597;
233.4000;0.1571;-0.0526;
233.7000;0.1506;-0.0717;
234.0000;0.1514;-0.0741;
234.3000;0.1522;-0.0765;
234.6000;0.1506;-0.0741;
234.9000;0.1514;-0.0765;
235.2000;0.1400;-0.1075;
235.5000;0.1506;-0.0812;
235.8000;0.1506;-0.0836;
236.1000;0.1481;-0.0812;
236.4000;0.1579;-0.0574;
236.7000;0.1506;-0.0741;
237.0000;0.1514;-0.0717;
237.3000;0.1490;-0.0717;
237.6000;0.1514;-0.0621;
237.9000;0.1522;-0.0597;
238.2000;0.1441;-0.0860;
238.5000;0.1425;-0.0836;
238.8000;0.1538;-0.0502;
239.1000;0.1514;-0.0502;
239.4000;0.1490;-0.0574;
239.7000;0.1506;-0.0478;
240.0000;0.1457;-0.0574;
240.3000;0.1490;-0.0526;
240.6000;0.1522;-0.0478;
240.9000;0.1522;-0.0430;
241.2000;0.1522;-0.0526;
241.5000;0.1490;-0.0502;
241.8000;0.1506;-0.0430;
242.1000;0.1514;-0.0454;
242.4000;0.1538;-0.0430;
242.7000;0.1538;-0.0454;
243.0000;0.1522;-0.0478;
243.3000;0.1514;-0.0478;
243.6000;0.1506;-0.0430;
243.9000;0.1538;-0.0335;
244.2000;0.1490;-0.0502;
244.5000;0.1522;-0.0406;
244.8000;0.1473;-0.0502;
245.1000;0.1636;-0.0072;
245.4000;0.1481;-0.0597;
245.7000;0.1498;-0.0621;
246.0000;0.1506;-0.0550;
246.3000;0.1514;-0.0454;
246.6000;0.1522;-0.0430;
246.9000;0.1473;-0.0550;
247.2000;0.1481;-0.0478;
247.5000;0.1506;-0.0478;
247.8000;0.1514;-0.0430;
248.1000;0.1563;-0.0311;
248.4000;0.1595;-0.0263;
248.7000;0.1514;-0.0454;
249.0000;0.1522;-0.0526;
249.3000;0.1506;-0.0550;
249.6000;0.1522;-0.0597;
249.9000;0.1514;-0.0502;
250.2000;0.1506;-0.0406;
250.5000;0.1498;-0.0382;
250.8000;0.1514;-0.0335;
251.1000;0.1530;-0.0335;
251.4000;0.1490;-0.0382;
251.7000;0.1547;-0.0263;
252.0000;0.1506;-0.0382;
252.3000;0.1506;-0.0335;
252.6000;0.1530;-0.0287;
252.9000;0.1506;-0.0358;
253.2000;0.1473;-0.0454;
253.5000;0.1522;-0.0335;
253.8000;0.1514;-0.0358;
254.1000;0.1506;-0.0406;
254.4000;0.1514;-0.0287;
254.7000;0.1506;-0.0287;
255.0000;0.1522;-0.0263;
255.3000;0.1514;-0.0215;
255.6000;0.1441;-0.0358;
255.9000;0.1538;-0.0096;
256.2000;0.1481;-0.0191;
256.5000;0.1514;-0.0167;
256.8000;0.1498;-0.0215;
257.1000;0.1522;-0.0191;
257.4000;0.1555;-0.0191;
257.7000;0.1514;-0.0358;
258.0000;0.1498;-0.0454;
258.3000;0.1514;-0.0478;
258.6000;0.1490;-0.0478;
258.9000;0.1530;-0.0406;
259.2000;0.1538;-0.0335;
259.5000;0.1514;-0.0358;
259.8000;0.1530;-0.0311;
260.1000;0.1522;-0.0287;
260.4000;0.1506;-0.0311;
260.7000;0.1514;-0.0311;
261.0000;0.1530;-0.0263;
261.3000;0.1498;-0.0311;
261.6000;0.1538;-0.0215;
261.9000;0.1538;-0.0239;
262.2000;0.1563;-0.0167;
262.5000;0.1506;-0.0358;
262.8000;0.1547;-0.0311;
263.1000;0.1514;-0.0382;
263.4000;0.1522;-0.0406;
263.7000;0.1490;-0.0454;
264.0000;0.1547;-0.0358;
264.3000;0.1514;-0.0454;
264.6000;0.1506;-0.0382;
264.9000;0.1514;-0.0406;
265.2000;0.1530;-0.0382;
265.5000;0.1514;-0.0382;
265.8000;0.1514;-0.0358;
266.1000;0.1506;-0.0382;
266.4000;0.1530;-0.0311;
266.7000;0.1530;-0.0287;
267.0000;0.1522;-0.0382;
267.3000;0.1514;-0.0311;
267.6000;0.1514;-0.0311;
267.9000;0.1498;-0.0311;
268.2000;0.1514;-0.0335;
268.5000;0.1392;-0.0669;
268.8000;0.1514;-0.0382;
269.1000;0.1481;-0.0454;
269.4000;0.1530;-0.0311;
269.7000;0.1522;-0.0382;
270.0000;0.1498;-0.0478;
270.3000;0.1530;-0.0358;
270.6000;0.1538;-0.0358;
270.9000;0.1506;-0.0406;
271.2000;0.1522;-0.0454;
271.5000;0.1506;-0.0406;
271.8000;0.1481;-0.0263;
272.1000;0.1604;0.0143;
272.4000;0.1522;-0.0143;
272.7000;0.1579;-0.0024;
273.0000;0.1530;-0.0143;
273.3000;0.1465;-0.0335;
273.6000;0.1514;-0.0215;
273.9000;0.1514;-0.0263;
274.2000;0.1547;-0.0119;
274.5000;0.1538;-0.0096;
274.8000;0.1506;-0.0119;
275.1000;0.1465;-0.0239;
275.4000;0.1522;-0.0119;
275.7000;0.1498;-0.0263;
276.0000;0.1538;-0.0239;
276.3000;0.1481;-0.0358;
276.6000;0.1481;-0.0335;
276.9000;0.1538;-0.0191;
277.2000;0.1530;-0.0119;
277.5000;0.1506;-0.0119;
277.8000;0.1506;-0.0143;
278.1000;0.1538;-0.0024;
278.4000;0.1514;-0.0072;
278.7000;0.1506;-0.0143;
279.0000;0.1612;0.0048;
279.3000;0.1498;-0.0239;
279.6000;0.1457;-0.0263;
279.9000;0.1506;-0.0096;
280.2000;0.1538;-0.0048;
280.5000;0.1441;-0.0263;
280.8000;0.1506;-0.0072;
281.1000;0.1522;-0.0119;
281.4000;0.1465;-0.0191;
281.7000;0.1506;-0.0119;
282.0000;0.1514;-0.0239;
282.3000;0.1522;-0.0263;
282.6000;0.1538;-0.0287;
282.9000;0.1498;-0.0382;
283.2000;0.1522;-0.0335;
283.5000;0.1490;-0.0406;
283.8000;0.1522;-0.0215;
284.1000;0.1490;-0.0215;
284.4000;0.1498;-0.0263;
284.7000;0.1522;-0.0215;
285.0000;0.1514;-0.0167;
285.3000;0.1530;-0.0096;
285.6000;0.1514;-0.0143;
285.9000;0.1498;-0.0263;
286.2000;0.1530;-0.0215;
286.5000;0.1522;-0.0239;
286.8000;0.1506;-0.0263;
287.1000;0.1506;-0.0239;
287.4000;0.1530;-0.0215;
287.7000;0.1514;-0.0311;
288.0000;0.1522;-0.0358;
288.3000;0.1547;-0.0263;
288.6000;0.1457;-0.0526;
288.9000;0.1514;-0.0335;
289.2000;0.1506;-0.0335;
289.5000;0.1563;-0.0311;
289.8000;0.1522;-0.0358;
290.1000;0.1530;-0.0287;
290.4000;0.1490;-0.0430;
290.7000;0.1457;-0.0478;
291.0000;0.1522;-0.0287;
291.3000;0.1506;-0.0263;
291.6000;0.1522;-0.0239;
291.9000;0.1514;-0.0382;
292.2000;0.1457;-0.0502;
292.5000;0.1498;-0.0430;
292.8000;0.1506;-0.0454;
293.1000;0.1490;-0.0406;
293.4000;0.1498;-0.0454;
293.7000;0.1498;-0.0478;
294.0000;0.1530;-0.0478;
294.3000;0.1522;-0.0502;
294.6000;0.1514;-0.0574;
294.9000;0.1522;-0.0550;
295.2000;0.1514;-0.0621;
295.5000;0.1473;-0.0717;
295.8000;0.1514;-0.0574;
296.1000;0.1571;-0.0287;
296.4000;0.1538;-0.0311;
296.7000;0.1514;-0.0406;
297.0000;0.1522;-0.0478;
297.3000;0.1538;-0.0406;
297.6000;0.1563;-0.0406;
297.9000;0.1506;-0.0550;
298.2000;0.1490;-0.0502;
298.5000;0.1498;-0.0597;
298.8000;0.1555;-0.0550;
299.1000;0.1473;-0.0717;
299.4000;0.1547;-0.0454;
299.7000;0.1538;-0.0550;
300.0000;0.1522;-0.0574;
300.3000;0.1530;-0.0526;
300.6000;0.1530;-0.0478;
300.9000;0.1490;-0.0597;
301.2000;0.1506;-0.0478;
301.5000;0.1547;-0.0311;
301.8000;0.1506;-0.0430;
302.1000;0.1547;-0.0263;
302.4000;0.1514;-0.0454;
302.7000;0.1514;-0.0502;
303.0000;0.1506;-0.0502;
303.3000;0.1498;-0.0502;
303.6000;0.1481;-0.0454;
303.9000;0.1506;-0.0406;
304.2000;0.1530;-0.0454;
304.5000;0.1522;-0.0550;
304.8000;0.1522;-0.0478;
305.1000;0.1506;-0.0478;
305.4000;0.1506;-0.0454;
305.7000;0.1506;-0.0478;
306.0000;0.1498;-0.0478;
306.3000;0.1506;-0.0430;
306.6000;0.1498;-0.0406;
306.9000;0.1514;-0.0406;
307.2000;0.1514;-0.0454;
307.5000;0.1490;-0.0550;
307.8000;0.1514;-0.0382;
308.1000;0.1522;-0.0382;
308.4000;0.1547;-0.0263;
308.7000;0.1530;-0.0215;
309.0000;0.1522;-0.0311;
309.3000;0.1538;-0.0239;
309.6000;0.1522;-0.0335;
309.9000;0.1514;-0.0311;
310.2000;0.1522;-0.0263;
310.5000;0.1522;-0.0239;
310.8000;0.1538;-0.0239;
311.1000;0.1530;-0.0263;
311.4000;0.1514;-0.0215;
311.7000;0.1449;-0.0382;
312.0000;0.1400;-0.0645;
312.3000;0.1506;-0.0358;
312.6000;0.1498;-0.0430;
312.9000;0.1498;-0.0454;
313.2000;0.1498;-0.0430;
313.5000;0.1498;-0.0430;
313.8000;0.1498;-0.0406;
314.1000;0.1498;-0.0406;
314.4000;0.1538;-0.0358;
314.7000;0.1555;-0.0382;
315.0000;0.1530;-0.0430;
315.3000;0.1506;-0.0430;
315.6000;0.1498;-0.0382;
315.9000;0.1522;-0.0287;
316.2000;0.1530;-0.0263;
316.5000;0.1498;-0.0335;
316.8000;0.1498;-0.0335;
317.1000;0.1514;-0.0358;
317.4000;0.1506;-0.0382;
317.7000;0.1498;-0.0358;
318.0000;0.1514;-0.0358;
318.3000;0.1506;-0.0311;
318.6000;0.1473;-0.0406;
318.9000;0.1506;-0.0335;
319.2000;0.1514;-0.0311;
319.5000;0.1538;-0.0287;
319.8000;0.1473;-0.0597;
320.1000;0.1514;-0.0382;
320.4000;0.1579;-0.0215;
320.7000;0.1530;-0.0382;
321.0000;0.1522;-0.0335;
321.3000;0.1514;-0.0454;
321.6000;0.1522;-0.0502;
321.9000;0.1506;-0.0526;
322.2000;0.1530;-0.0382;
322.5000;0.1530;-0.0335;
322.8000;0.1514;-0.0311;
323.1000;0.1490;-0.0311;
323.4000;0.1498;-0.0263;
323.7000;0.1538;-0.0191;
324.0000;0.1506;-0.0358;
324.3000;0.1506;-0.0430;
324.6000;0.1530;-0.0287;
324.9000;0.1514;-0.0263;
325.2000;0.1530;-0.0263;
325.5000;0.1514;-0.0239;
325.8000;0.1514;-0.0215;
326.1000;0.1514;-0.0239;
326.4000;0.1538;-0.0215;
326.7000;0.1490;-0.0335;
327.0000;0.1506;-0.0215;
327.3000;0.1522;-0.0143;
327.6000;0.1481;-0.0072;
327.9000;0.1506;0.0000;
328.2000;0.1514;-0.0024;
328.5000;0.1490;-0.0119;
328.8000;0.1514;-0.0072;
329.1000;0.1522;-0.0072;
329.4000;0.1473;-0.0167;
329.7000;0.1498;-0.0167;
330.0000;0.1522;-0.0143;
330.3000;0.1514;-0.0096;
330.6000;0.1701;0.0382;
330.9000;0.1604;0.0167;
331.2000;0.1522;-0.0096;
331.5000;0.1498;-0.0215;
331.8000;0.1514;-0.0191;
332.1000;0.1514;-0.0167;
332.4000;0.1506;-0.0143;
332.7000;0.1490;-0.0215;
333.0000;0.1530;-0.0239;
333.3000;0.1498;-0.0335;
333.6000;0.1530;-0.0358;
333.9000;0.1514;-0.0358;
334.2000;0.1522;-0.0335;
334.5000;0.1514;-0.0358;
334.8000;0.1522;-0.0239;
335.1000;0.1538;-0.0191;
335.4000;0.1498;-0.0191;
335.7000;0.1498;-0.0263;
336.0000;0.1498;-0.0263;
336.3000;0.1506;-0.0335;
336.6000;0.1522;-0.0382;
336.9000;0.1514;-0.0358;
337.2000;0.1392;-0.0621;
337.5000;0.1506;-0.0287;
337.8000;0.1522;-0.0263;
338.1000;0.1522;-0.0311;
338.4000;0.1506;-0.0335;
338.7000;0.1514;-0.0239;
339.0000;0.1538;-0.0215;
339.3000;0.1506;-0.0287;
339.6000;0.1498;-0.0311;
339.9000;0.1506;-0.0311;
340.2000;0.1514;-0.0358;
340.5000;0.1522;-0.0263;
340.8000;0.1522;-0.0358;
341.1000;0.1506;-0.0454;
341.4000;0.1522;-0.0454;
341.7000;0.1506;-0.0478;
342.0000;0.1514;-0.0358;
342.3000;0.1522;-0.0239;
342.6000;0.1408;-0.0526;
342.9000;0.1530;-0.0311;
343.2000;0.1343;-0.0884;
343.5000;0.1441;-0.0669;
343.8000;0.1522;-0.0454;
344.1000;0.1514;-0.0454;
344.4000;0.1441;-0.0574;
344.7000;0.1506;-0.0335;
345.0000;0.1514;-0.0382;
345.3000;0.1514;-0.0382;
345.6000;0.1522;-0.0335;
345.9000;0.1506;-0.0358;
346.2000;0.1490;-0.0335;
346.5000;0.1498;-0.0406;
346.8000;0.1530;-0.0311;
347.1000;0.1506;-0.0454;
347.4000;0.1506;-0.0406;
347.7000;0.1530;-0.0335;
348.0000;0.1490;-0.0406;
348.3000;0.1498;-0.0358;
348.6000;0.1530;-0.0215;
348.9000;0.1506;-0.0287;
349.2000;0.1498;-0.0335;
349.5000;0.1522;-0.0430;
349.8000;0.1506;-0.0478;
350.1000;0.1490;-0.0550;
350.4000;0.1522;-0.0550;
350.7000;0.1514;-0.0526;
351.0000;0.1514;-0.0550;
351.3000;0.1506;-0.0574;
351.6000;0.1457;-0.0741;
351.9000;0.1522;-0.0526;
352.2000;0.1514;-0.0478;
352.5000;0.1514;-0.0430;
352.8000;0.1514;-0.0382;
353.1000;0.1498;-0.0311;
353.4000;0.1498;-0.0239;
353.7000;0.1514;-0.0263;
354.0000;0.1514;-0.0311;
354.3000;0.1514;-0.0358;
354.6000;0.1522;-0.0430;
354.9000;0.1514;-0.0478;
355.2000;0.1522;-0.0454;
355.5000;0.1506;-0.0526;
355.8000;0.1506;-0.0502;
356.1000;0.1481;-0.0502;
356.4000;0.1514;-0.0502;
356.7000;0.1514;-0.0478;
357.0000;0.1457;-0.0621;
357.3000;0.1530;-0.0478;
357.6000;0.1522;-0.0478;
357.9000;0.1563;-0.0430;
358.2000;0.1530;-0.0574;
358.5000;0.1522;-0.0574;
358.8000;0.1522;-0.0669;
359.1000;0.1522;-0.0645;
359.4000;0.1628;-0.0215;
359.7000;0.1555;-0.0406;
360.0000;0.1498;-0.0526;
360.3000;0.1530;-0.0406;
360.6000;0.1530;-0.0406;
360.9000;0.1457;-0.0669;
361.2000;0.1498;-0.0502;
361.5000;0.1514;-0.0430;
361.8000;0.1506;-0.0382;
362.1000;0.1522;-0.0311;
362.4000;0.1506;-0.0430;
362.7000;0.1498;-0.0478;
363.0000;0.1490;-0.0478;
363.3000;0.1522;-0.0382;
363.6000;0.1522;-0.0358;
363.9000;0.1522;-0.0335;
364.2000;0.1514;-0.0406;
364.5000;0.1530;-0.0430;
364.8000;0.1530;-0.0502;
365.1000;0.1547;-0.0430;
365.4000;0.1465;-0.0526;
365.7000;0.1555;-0.0382;
366.0000;0.1555;-0.0358;
366.3000;0.1506;-0.0335;
366.6000;0.1530;-0.0239;
366.9000;0.1522;-0.0287;
367.2000;0.1604;-0.0024;
367.5000;0.1530;-0.0263;
367.8000;0.1514;-0.0287;
368.1000;0.1384;-0.0669;
368.4000;0.1498;-0.0454;
368.7000;0.1506;-0.0502;
369.0000;0.1514;-0.0478;
369.3000;0.1571;-0.0382;
369.6000;0.1506;-0.0597;
369.9000;0.1498;-0.0550;
370.2000;0.1579;-0.0335;
370.5000;0.1506;-0.0478;
370.8000;0.1547;-0.0335;
371.1000;0.1522;-0.0430;
371.4000;0.1506;-0.0311;
371.7000;0.1498;-0.0358;
372.0000;0.1530;-0.0287;
372.3000;0.1514;-0.0335;
372.6000;0.1514;-0.0358;
372.9000;0.1514;-0.0382;
373.2000;0.1498;-0.0382;
373.5000;0.1498;-0.0430;
373.8000;0.1530;-0.0311;
374.1000;0.1530;-0.0311;
374.4000;0.1530;-0.0239;
374.7000;0.1498;-0.0239;
375.0000;0.1514;-0.0215;
375.3000;0.1449;-0.0358;
375.6000;0.1514;-0.0215;
375.9000;0.1506;-0.0335;
376.2000;0.1490;-0.0406;
376.5000;0.1506;-0.0311;
376.8000;0.1514;-0.0263;
377.1000;0.1538;-0.0167;
377.4000;0.1514;-0.0191;
377.7000;0.1490;-0.0215;
378.0000;0.1514;-0.0191;
378.3000;0.1490;-0.0311;
378.6000;0.1498;-0.0335;
378.9000;0.1522;-0.0167;
379.2000;0.1514;-0.0191;
379.5000;0.1514;-0.0167;
379.8000;0.1506;-0.0239;
380.1000;0.1530;-0.0167;
380.4000;0.1530;-0.0167;
380.7000;0.1522;-0.0143;
381.0000;0.1522;-0.0167;
381.3000;0.1538;-0.0096;
381.6000;0.1514;-0.0191;
381.9000;0.1506;-0.0239;
382.2000;0.1530;-0.0191;
382.5000;0.1498;-0.0287;
382.8000;0.1498;-0.0167;
383.1000;0.1506;-0.0263;
383.4000;0.1408;-0.0597;
383.7000;0.1481;-0.0430;
384.0000;0.1473;-0.0454;
384.3000;0.1522;-0.0335;
384.6000;0.1490;-0.0335;
384.9000;0.1530;-0.0215;
385.2000;0.1514;-0.0287;
385.5000;0.1522;-0.0263;
385.8000;0.1514;-0.0263;
386.1000;0.1547;-0.0143;
386.4000;0.1555;-0.0167;
386.7000;0.1563;-0.0119;
387.0000;0.1506;-0.0287;
387.3000;0.1514;-0.0215;
387.6000;0.1506;-0.0239;
387.9000;0.1522;-0.0263;
388.2000;0.1514;-0.0382;
388.5000;0.1490;-0.0382;
388.8000;0.1481;-0.0358;
389.1000;0.1473;-0.0454;
389.4000;0.1506;-0.0311;
389.7000;0.1408;-0.0621;
390.0000;0.1514;-0.0263;
390.3000;0.1514;-0.0239;
390.6000;0.1555;-0.0167;
390.9000;0.1481;-0.0382;
391.2000;0.1425;-0.0454;
391.5000;0.1506;-0.0287;
391.8000;0.1538;-0.0167;
392.1000;0.1376;-0.0550;
392.4000;0.1538;-0.0096;
392.7000;0.1604;0.0048;
393.0000;0.1522;-0.0239;
393.3000;0.1587;-0.0072;
393.6000;0.1514;-0.0335;
393.9000;0.1506;-0.0263;
394.2000;0.1449;-0.0358;
394.5000;0.1449;-0.0454;
394.8000;0.1498;-0.0239;
395.1000;0.1530;-0.0167;
395.4000;0.1498;-0.0263;
395.7000;0.1530;-0.0167;
396.0000;0.1522;-0.0143;
396.3000;0.1530;-0.0239;
396.6000;0.1514;-0.0191;
396.9000;0.1514;-0.0311;
397.2000;0.1530;-0.0263;
397.5000;0.1522;-0.0215;
397.8000;0.1506;-0.0287;
398.1000;0.1481;-0.0358;
398.4000;0.1538;-0.0239;
398.7000;0.1530;-0.0263;
399.0000;0.1498;-0.0358;
399.3000;0.1506;-0.0287;
399.6000;0.1514;-0.0335;
399.9000;0.1490;-0.0406;
400.2000;0.1514;-0.0358;
400.5000;0.1530;-0.0263;
400.8000;0.1498;-0.0239;
401.1000;0.1522;-0.0215;
401.4000;0.1514;-0.0239;
401.7000;0.1506;-0.0311;
402.0000;0.1514;-0.0335;
402.3000;0.1506;-0.0311;
402.6000;0.1490;-0.0382;
402.9000;0.1514;-0.0358;
403.2000;0.1530;-0.0358;
403.5000;0.1498;-0.0358;
403.8000;0.1522;-0.0215;
404.1000;0.1498;-0.0335;
404.4000;0.1538;-0.0215;
404.7000;0.1530;-0.0215;
405.0000;0.1514;-0.0263;
405.3000;0.1506;-0.0311;
405.6000;0.1538;-0.0167;
405.9000;0.1530;-0.0191;
406.2000;0.1514;-0.0143;
406.5000;0.1498;-0.0167;
406.8000;0.1538;-0.0024;
407.1000;0.1522;-0.0072;
407.4000;0.1530;-0.0096;
407.7000;0.1481;-0.0096;
408.0000;0.1514;-0.0096;
408.3000;0.1481;-0.0287;
408.6000;0.1514;-0.0191;
408.9000;0.1498;-0.0167;
409.2000;0.1490;-0.0072;
409.5000;0.1498;-0.0072;
409.8000;0.1514;-0.0048;
410.1000;0.1506;-0.0024;
410.4000;0.1530;0.0048;
410.7000;0.1595;0.0167;
411.0000;0.1498;-0.0143;
411.3000;0.1522;-0.0143;
411.6000;0.1538;-0.0096;
411.9000;0.1514;-0.0191;
412.2000;0.1522;-0.0167;
412.5000;0.1498;-0.0143;
412.8000;0.1538;0.0000;
413.1000;0.1538;-0.0024;
413.4000;0.1530;-0.0143;
413.7000;0.1522;-0.0191;
414.0000;0.1547;-0.0143;
414.3000;0.1514;-0.0215;
414.6000;0.1490;-0.0287;
414.9000;0.1530;-0.0239;
415.2000;0.1522;-0.0263;
415.5000;0.1522;-0.0382;
415.8000;0.1514;-0.0454;
416.1000;0.1465;-0.0574;
416.4000;0.1498;-0.0430;
416.7000;0.1571;-0.0287;
417.0000;0.1506;-0.0454;
417.3000;0.1506;-0.0406;
417.6000;0.1547;-0.0311;
417.9000;0.1587;-0.0167;
418.2000;0.1498;-0.0358;
418.5000;0.1530;-0.0191;
418.8000;0.1522;-0.0215;
419.1000;0.1522;-0.0191;
419.4000;0.1530;-0.0215;
419.7000;0.1506;-0.0358;
420.0000;0.1538;-0.0191;
420.3000;0.1514;-0.0263;
420.6000;0.1514;-0.0167;
420.9000;0.1498;-0.0191;
421.2000;0.1506;-0.0143;
421.5000;0.1514;-0.0167;
421.8000;0.1522;-0.0191;
422.1000;0.1514;-0.0191;
422.4000;0.1473;-0.0311;
422.7000;0.1425;-0.0406;
423.0000;0.1522;-0.0167;
423.3000;0.1538;-0.0167;
423.6000;0.1595;0.0024;
423.9000;0.1530;-0.0191;
424.2000;0.1538;-0.0096;
424.5000;0.1547;0.0000;
424.8000;0.1522;-0.0072;
425.1000;0.1498;-0.0072;
425.4000;0.1522;-0.0048;
425.7000;0.1498;-0.0143;
426.0000;0.1514;-0.0072;
426.3000;0.1514;-0.0096;
426.6000;0.1392;-0.0358;
426.9000;0.1498;-0.0143;
427.2000;0.1490;-0.0191;
427.5000;0.1408;-0.0478;
427.8000;0.1481;-0.0287;
428.1000;0.1498;-0.0215;
428.4000;0.1522;-0.0215;
428.7000;0.1612;0.0000;
429.0000;0.1506;-0.0215;
429.3000;0.1441;-0.0358;
429.6000;0.1522;-0.0215;
429.9000;0.1506;-0.0143;
430.2000;0.1506;-0.0143;
430.5000;0.1530;-0.0096;
430.8000;0.1506;-0.0167;
431.1000;0.1514;-0.0167;
431.4000;0.1490;-0.0239;
431.7000;0.1563;0.0024;
432.0000;0.1587;0.0024;
432.3000;0.1506;-0.0311;
432.6000;0.1514;-0.0358;
432.9000;0.1506;-0.0335;
433.2000;0.1506;-0.0311;
433.5000;0.1530;-0.0358;
433.8000;0.1506;-0.0358;
434.1000;0.1481;-0.0550;
434.4000;0.1498;-0.0406;
434.7000;0.1506;-0.0287;
435.0000;0.1498;-0.0263;
435.3000;0.1522;-0.0143;
435.6000;0.1514;-0.0191;
435.9000;0.1498;-0.0215;
436.2000;0.1490;-0.0215;
436.5000;0.1490;-0.0191;
436.8000;0.1498;-0.0215;
437.1000;0.1408;-0.0478;
437.4000;0.1522;-0.0167;
437.7000;0.1514;-0.0167;
438.0000;0.1506;-0.0287;
438.3000;0.1530;-0.0143;
438.6000;0.1571;-0.0048;
438.9000;0.1506;-0.0263;
439.2000;0.1538;-0.0143;
439.5000;0.1530;-0.0096;
439.8000;0.1547;-0.0072;
440.1000;0.1530;-0.0119;
440.4000;0.1514;-0.0167;
440.7000;0.1522;-0.0143;
441.0000;0.1538;-0.0167;
441.3000;0.1514;-0.0454;
441.6000;0.1506;-0.0454;
441.9000;0.1506;-0.0382;
442.2000;0.1506;-0.0287;
442.5000;0.1506;-0.0263;
442.8000;0.1522;-0.0287;
443.1000;0.1481;-0.0478;
443.4000;0.1530;-0.0287;
443.7000;0.1506;-0.0335;
444.0000;0.1522;-0.0239;
444.3000;0.1530;-0.0239;
444.6000;0.1506;-0.0311;
444.9000;0.1530;-0.0287;
445.2000;0.1563;-0.0239;
445.5000;0.1530;-0.0287;
445.8000;0.1522;-0.0311;
446.1000;0.1514;-0.0335;
446.4000;0.1538;-0.0239;
446.7000;0.1506;-0.0335;
447.0000;0.1498;-0.0287;
447.3000;0.1530;-0.0215;
447.6000;0.1473;-0.0311;
447.9000;0.1522;-0.0239;
448.2000;0.1538;-0.0191;
448.5000;0.1514;-0.0239;
448.8000;0.1538;-0.0215;
449.1000;0.1498;-0.0311;
449.4000;0.1514;-0.0287;
449.7000;0.1530;-0.0263;
450.0000;0.1522;-0.0287;
450.3000;0.1538;-0.0239;
450.6000;0.1490;-0.0287;
450.9000;0.1522;-0.0239;
451.2000;0.1506;-0.0287;
451.5000;0.1498;-0.0263;
451.8000;0.1506;-0.0215;
452.1000;0.1522;-0.0191;
452.4000;0.1514;-0.0239;
452.7000;0.1563;-0.0167;
453.0000;0.1473;-0.0382;
453.3000;0.1506;-0.0311;
453.6000;0.1465;-0.0358;
453.9000;0.1498;-0.0239;
454.2000;0.1490;-0.0263;
454.5000;0.1522;-0.0239;
454.8000;0.1498;-0.0215;
455.1000;0.1522;-0.0167;
455.4000;0.1547;-0.0048;
455.7000;0.1522;-0.0143;
456.0000;0.1522;-0.0167;
456.3000;0.1514;-0.0143;
456.6000;0.1538;-0.0119;
456.9000;0.1579;-0.0024;
457.2000;0.1514;-0.0215;
457.5000;0.1514;-0.0191;
457.8000;0.1522;-0.0215;
458.1000;0.1441;-0.0550;
458.4000;0.1587;-0.0143;
458.7000;0.1481;-0.0454;
459.0000;0.1481;-0.0430;
459.3000;0.1514;-0.0430;
459.6000;0.1473;-0.0430;
459.9000;0.1514;-0.0358;
460.2000;0.1522;-0.0311;
460.5000;0.1514;-0.0430;
460.8000;0.1522;-0.0406;
461.1000;0.1433;-0.0645;
461.4000;0.1579;-0.0167;
461.7000;0.1563;-0.0215;
462.0000;0.1498;-0.0287;
462.3000;0.1538;-0.0143;
462.6000;0.1433;-0.0430;
462.9000;0.1514;-0.0263;
463.2000;0.1555;-0.0215;
463.5000;0.1579;-0.0119;
463.8000;0.1514;-0.0358;
464.1000;0.1514;-0.0239;
464.4000;0.1514;-0.0287;
464.7000;0.1506;-0.0311;
465.0000;0.1514;-0.0335;
465.3000;0.1547;-0.0287;
465.6000;0.1514;-0.0382;
465.9000;0.1490;-0.0478;
466.2000;0.1441;-0.0550;
466.5000;0.1587;-0.0167;
466.8000;0.1514;-0.0406;
467.1000;0.1522;-0.0358;
467.4000;0.1522;-0.0406;
467.7000;0.1522;-0.0358;
468.0000;0.1498;-0.0406;
468.3000;0.1538;-0.0358;
468.6000;0.1522;-0.0478;
468.9000;0.1514;-0.0478;
469.2000;0.1514;-0.0358;
469.5000;0.1522;-0.0335;
469.8000;0.1514;-0.0335;
470.1000;0.1498;-0.0454;
470.4000;0.1506;-0.0406;
470.7000;0.1514;-0.0311;
471.0000;0.1522;-0.0239;
471.3000;0.1498;-0.0311;
471.6000;0.1514;-0.0358;
471.9000;0.1514;-0.0263;
472.2000;0.1530;-0.0239;
472.5000;0.1530;-0.0287;
472.8000;0.1522;-0.0311;
473.1000;0.1547;-0.0215;
473.4000;0.1514;-0.0335;
473.7000;0.1547;-0.0382;
474.0000;0.1587;-0.0191;
474.3000;0.1498;-0.0382;
474.6000;0.1514;-0.0335;
474.9000;0.1514;-0.0311;
475.2000;0.1465;-0.0454;
475.5000;0.1506;-0.0239;
475.8000;0.1522;-0.0263;
476.1000;0.1514;-0.0311;
476.4000;0.1628;-0.0072;
476.7000;0.1522;-0.0311;
477.0000;0.1465;-0.0454;
477.3000;0.1522;-0.0358;
477.6000;0.1514;-0.0478;
477.9000;0.1506;-0.0502;
478.2000;0.1506;-0.0430;
478.5000;0.1530;-0.0382;
478.8000;0.1522;-0.0454;
479.1000;0.1457;-0.0597;
479.4000;0.1522;-0.0478;
479.7000;0.1514;-0.0526;
480.0000;0.1669;-0.0048;
480.3000;0.1514;-0.0526;
480.6000;0.1522;-0.0478;
480.9000;0.1490;-0.0574;
481.2000;0.1530;-0.0478;
481.5000;0.1506;-0.0526;
481.8000;0.1514;-0.0502;
482.1000;0.1522;-0.0454;
482.4000;0.1514;-0.0502;
482.7000;0.1514;-0.0502;
483.0000;0.1538;-0.0430;
483.3000;0.1498;-0.0502;
483.6000;0.1538;-0.0311;
483.9000;0.1481;-0.0430;
484.2000;0.1644;-0.0072;
484.5000;0.1555;-0.0358;
484.8000;0.1522;-0.0454;
485.1000;0.1538;-0.0335;
485.4000;0.1555;-0.0311;
485.7000;0.1571;-0.0287;
486.0000;0.1514;-0.0382;
486.3000;0.1490;-0.0382;
486.6000;0.1465;-0.0430;
486.9000;0.1506;-0.0430;
487.2000;0.1514;-0.0335;
487.5000;0.1514;-0.0335;
487.8000;0.1530;-0.0287;
488.1000;0.1514;-0.0263;
488.4000;0.1547;-0.0167;
488.7000;0.1522;-0.0143;
489.0000;0.1538;-0.0167;
489.3000;0.1530;-0.0143;
489.6000;0.1498;-0.0191;
489.9000;0.1530;-0.0143;
490.2000;0.1506;-0.0263;
490.5000;0.1522;-0.0239;
490.8000;0.1498;-0.0311;
491.1000;0.1514;-0.0287;
491.4000;0.1522;-0.0239;
491.7000;0.1514;-0.0215;
492.0000;0.1490;-0.0263;
492.3000;0.1490;-0.0287;
492.6000;0.1538;-0.0191;
492.9000;0.1514;-0.0335;
493.2000;0.1506;-0.0406;
493.5000;0.1506;-0.0358;
493.8000;0.1530;-0.0358;
494.1000;0.1498;-0.0430;
494.4000;0.1514;-0.0358;
494.7000;0.1514;-0.0287;
495.0000;0.1555;-0.0143;
495.3000;0.1547;-0.0143;
495.6000;0.1538;-0.0096;
495.9000;0.1506;-0.0143;
496.2000;0.1538;-0.0072;
496.5000;0.1514;-0.0119;
496.8000;0.1522;-0.0096;
497.1000;0.1514;-0.0119;
497.4000;0.1555;0.0024;
497.7000;0.1506;-0.0143;
498.0000;0.1514;-0.0096;
498.3000;0.1473;-0.0215;
498.6000;0.1538;-0.0096;
498.9000;0.1530;-0.0191;
499.2000;0.1514;-0.0239;
499.5000;0.1514;-0.0239;
499.8000;0.1514;-0.0119;
500.1000;0.1490;-0.0143;
500.4000;0.1441;-0.0287;
500.7000;0.1538;-0.0072;
501.0000;0.1522;-0.0143;
501.3000;0.1538;-0.0119;
501.6000;0.1392;-0.0478;
501.9000;0.1530;-0.0239;
502.2000;0.1522;-0.0215;
502.5000;0.1514;-0.0263;
502.8000;0.1628;0.0048;
503.1000;0.1579;-0.0096;
503.4000;0.1514;-0.0287;
503.7000;0.1595;-0.0096;
504.0000;0.1449;-0.0502;
504.3000;0.1522;-0.0287;
504.6000;0.1498;-0.0430;
504.9000;0.1506;-0.0478;
505.2000;0.1522;-0.0430;
505.5000;0.1522;-0.0406;
505.8000;0.1498;-0.0382;
506.1000;0.1506;-0.0263;
506.4000;0.1506;-0.0239;
506.7000;0.1490;-0.0287;
507.0000;0.1530;-0.0263;
507.3000;0.1490;-0.0311;
507.6000;0.1506;-0.0287;
507.9000;0.1506;-0.0239;
508.2000;0.1416;-0.0502;
508.5000;0.1595;0.0000;
508.8000;0.1506;-0.0263;
509.1000;0.1547;-0.0263;
509.4000;0.1538;-0.0382;
509.7000;0.1547;-0.0311;
510.0000;0.1522;-0.0382;
510.3000;0.1416;-0.0693;
510.6000;0.1530;-0.0335;
510.9000;0.1522;-0.0287;
511.2000;0.1530;-0.0287;
511.5000;0.1522;-0.0287;
511.8000;0.1506;-0.0287;
512.1000;0.1538;-0.0119;
512.4000;0.1547;-0.0096;
512.7000;0.1506;-0.0167;
513.0000;0.1514;-0.0239;
513.3000;0.1530;-0.0215;
513.6000;0.1538;-0.0358;
513.9000;0.1522;-0.0358;
514.2000;0.1490;-0.0406;
514.5000;0.1514;-0.0335;
514.8000;0.1522;-0.0335;
515.1000;0.1522;-0.0382;
515.4000;0.1498;-0.0406;
515.7000;0.1538;-0.0263;
516.0000;0.1506;-0.0311;
516.3000;0.1490;-0.0263;
516.6000;0.1547;-0.0239;
516.9000;0.1490;-0.0406;
517.2000;0.1530;-0.0335;
517.5000;0.1465;-0.0526;
517.8000;0.1490;-0.0478;
518.1000;0.1547;-0.0263;
518.4000;0.1498;-0.0406;
518.7000;0.1514;-0.0382;
519.0000;0.1481;-0.0430;
519.3000;0.1522;-0.0358;
519.6000;0.1506;-0.0430;
519.9000;0.1514;-0.0239;
520.2000;0.1514;-0.0287;
520.5000;0.1506;-0.0358;
520.8000;0.1498;-0.0358;
521.1000;0.1498;-0.0406;
521.4000;0.1490;-0.0430;
521.7000;0.1481;-0.0430;
522.0000;0.1514;-0.0335;
522.3000;0.1530;-0.0311;
522.6000;0.1514;-0.0382;
522.9000;0.1490;-0.0454;
523.2000;0.1498;-0.0430;
523.5000;0.1449;-0.0454;
523.8000;0.1490;-0.0358;
524.1000;0.1530;-0.0287;
524.4000;0.1538;-0.0239;
524.7000;0.1563;-0.0119;
525.0000;0.1514;-0.0215;
525.3000;0.1522;-0.0239;
525.6000;0.1522;-0.0215;
525.9000;0.1506;-0.0287;
526.2000;0.1530;-0.0263;
526.5000;0.1514;-0.0215;
526.8000;0.1522;-0.0239;
527.1000;0.1506;-0.0263;
527.4000;0.1506;-0.0287;
527.7000;0.1506;-0.0239;
528.0000;0.1555;-0.0072;
528.3000;0.1506;-0.0215;
528.6000;0.1538;-0.0143;
528.9000;0.1514;-0.0167;
529.2000;0.1506;-0.0311;
529.5000;0.1498;-0.0358;
529.8000;0.1514;-0.0263;
530.1000;0.1522;-0.0239;
530.4000;0.1514;-0.0263;
530.7000;0.1506;-0.0287;
531.0000;0.1538;-0.0167;
531.3000;0.1522;-0.0048;
531.6000;0.1481;-0.0072;
531.9000;0.1506;0.0000;
532.2000;0.1490;-0.0024;
532.5000;0.1498;-0.0048;
532.8000;0.1514;-0.0119;
533.1000;0.1522;-0.0072;
533.4000;0.1514;-0.0143;
533.7000;0.1530;-0.0072;
534.0000;0.1506;-0.0096;
534.3000;0.1498;-0.0191;
534.6000;0.1498;-0.0167;
534.9000;0.1530;-0.0119;
535.2000;0.1514;-0.0119;
535.5000;0.1490;-0.0191;
535.8000;0.1514;-0.0191;
536.1000;0.1481;-0.0335;
536.4000;0.1538;-0.0119;
536.7000;0.1538;-0.0119;
537.0000;0.1481;-0.0191;
537.3000;0.1481;-0.0215;
537.6000;0.1481;-0.0239;
537.9000;0.1530;-0.0191;
538.2000;0.1522;-0.0335;
538.5000;0.1514;-0.0406;
538.8000;0.1514;-0.0358;
539.1000;0.1490;-0.0311;
539.4000;0.1522;-0.0263;
539.7000;0.1490;-0.0406;
540.0000;0.1506;-0.0358;
540.3000;0.1506;-0.0287;
540.6000;0.1514;-0.0287;
540.9000;0.1498;-0.0311;
541.2000;0.1514;-0.0263;
541.5000;0.1392;-0.0550;
541.8000;0.1522;-0.0191;
542.1000;0.1514;-0.0239;
542.4000;0.1530;-0.0239;
542.7000;0.1514;-0.0287;
543.0000;0.1490;-0.0335;
543.3000;0.1514;-0.0382;
543.6000;0.1498;-0.0526;
543.9000;0.1514;-0.0502;
544.2000;0.1514;-0.0406;
544.5000;0.1530;-0.0478;
544.8000;0.1498;-0.0478;
545.1000;0.1490;-0.0621;
545.4000;0.1490;-0.0597;
545.7000;0.1498;-0.0621;
546.0000;0.1514;-0.0502;
546.3000;0.1514;-0.0550;
546.6000;0.1506;-0.0526;
546.9000;0.1522;-0.0478;
547.2000;0.1555;-0.0311;
547.5000;0.1538;-0.0382;
547.8000;0.1530;-0.0478;
548.1000;0.1538;-0.0550;
548.4000;0.1490;-0.0645;
548.7000;0.1490;-0.0669;
549.0000;0.1522;-0.0454;
549.3000;0.1481;-0.0550;
549.6000;0.1571;-0.0215;
549.9000;0.1514;-0.0430;
550.2000;0.1457;-0.0574;
550.5000;0.1490;-0.0454;
550.8000;0.1514;-0.0430;
551.1000;0.1506;-0.0454;
551.4000;0.1514;-0.0454;
551.7000;0.1514;-0.0502;
552.0000;0.1522;-0.0502;
552.3000;0.1522;-0.0454;
552.6000;0.1530;-0.0430;
552.9000;0.1563;-0.0311;
553.2000;0.1538;-0.0335;
553.5000;0.1555;-0.0239;
553.8000;0.1530;-0.0335;
554.1000;0.1530;-0.0335;
554.4000;0.1530;-0.0311;
554.7000;0.1514;-0.0311;
555.0000;0.1522;-0.0263;
555.3000;0.1514;-0.0239;
555.6000;0.1530;-0.0215;
555.9000;0.1506;-0.0335;
556.2000;0.1506;-0.0263;
556.5000;0.1498;-0.0311;
556.8000;0.1506;-0.0311;
557.1000;0.1506;-0.0358;
557.4000;0.1514;-0.0358;
557.7000;0.1530;-0.0406;
558.0000;0.1498;-0.0406;
558.3000;0.1530;-0.0454;
558.6000;0.1514;-0.0454;
558.9000;0.1522;-0.0358;
559.2000;0.1522;-0.0335;
559.5000;0.1506;-0.0358;
559.8000;0.1514;-0.0263;
560.1000;0.1498;-0.0311;
560.4000;0.1538;-0.0239;
560.7000;0.1514;-0.0287;
561.0000;0.1530;-0.0167;
561.3000;0.1530;-0.0191;
561.6000;0.1514;-0.0239;
561.9000;0.1498;-0.0263;
562.2000;0.1522;-0.0239;
562.5000;0.1514;-0.0287;
562.8000;0.1522;-0.0406;
563.1000;0.1498;-0.0550;
563.4000;0.1384;-0.0884;
563.7000;0.1636;-0.0167;
564.0000;0.1506;-0.0406;
564.3000;0.1498;-0.0335;
564.6000;0.1547;-0.0239;
564.9000;0.1522;-0.0358;
565.2000;0.1538;-0.0263;
565.5000;0.1498;-0.0263;
565.8000;0.1368;-0.0550;
566.1000;0.1514;-0.0119;
566.4000;0.1498;-0.0239;
566.7000;0.1498;-0.0335;
567.0000;0.1514;-0.0335;
567.3000;0.1522;-0.0406;
567.6000;0.1498;-0.0526;
567.9000;0.1506;-0.0454;
568.2000;0.1522;-0.0358;
568.5000;0.1490;-0.0382;
568.8000;0.1514;-0.0287;
569.1000;0.1506;-0.0287;
569.4000;0.1514;-0.0311;
569.7000;0.1457;-0.0526;
570.0000;0.1522;-0.0406;
570.3000;0.1522;-0.0478;
570.6000;0.1530;-0.0526;
570.9000;0.1506;-0.0574;
571.2000;0.1506;-0.0454;
571.5000;0.1498;-0.0382;
571.8000;0.1514;-0.0358;
572.1000;0.1522;-0.0311;
572.4000;0.1481;-0.0406;
572.7000;0.1522;-0.0311;
573.0000;0.1481;-0.0382;
573.3000;0.1498;-0.0406;
573.6000;0.1498;-0.0358;
573.9000;0.1538;-0.0215;
574.2000;0.1522;-0.0191;
574.5000;0.1514;-0.0263;
574.8000;0.1530;-0.0119;
575.1000;0.1547;-0.0119;
575.4000;0.1538;-0.0143;
575.7000;0.1498;-0.0239;
576.0000;0.1465;-0.0311;
576.3000;0.1473;-0.0239;
576.6000;0.1555;-0.0048;
576.9000;0.1514;-0.0191;
577.2000;0.1644;0.0215;
577.5000;0.1530;-0.0143;
577.8000;0.1652;0.0167;
578.1000;0.1522;-0.0191;
578.4000;0.1522;-0.0215;
578.7000;0.1579;-0.0119;
579.0000;0.1522;-0.0191;
579.3000;0.1595;0.0000;
579.6000;0.1628;0.0096;
579.9000;0.1522;-0.0191;
580.2000;0.1547;-0.0048;
580.5000;0.1506;-0.0263;
580.8000;0.1579;-0.0143;
581.1000;0.1628;-0.0024;
581.4000;0.1514;-0.0215;
581.7000;0.1514;-0.0263;
582.0000;0.1514;-0.0287;
582.3000;0.1555;-0.0215;
582.6000;0.1514;-0.0215;
582.9000;0.1522;-0.0191;
583.2000;0.1522;-0.0239;
583.5000;0.1498;-0.0287;
583.8000;0.1506;-0.0263;
584.1000;0.1530;-0.0311;
584.4000;0.1506;-0.0382;
584.7000;0.1506;-0.0430;
585.0000;0.1506;-0.0526;
585.3000;0.1514;-0.0502;
585.6000;0.1392;-0.0765;
585.9000;0.1498;-0.0502;
586.2000;0.1498;-0.0574;
586.5000;0.1636;-0.0263;
586.8000;0.1522;-0.0550;
587.1000;0.1563;-0.0430;
587.4000;0.1506;-0.0502;
587.7000;0.1514;-0.0478;
588.0000;0.1514;-0.0478;
588.3000;0.1522;-0.0478;
588.6000;0.1514;-0.0382;
588.9000;0.1506;-0.0335;
589.2000;0.1498;-0.0454;
589.5000;0.1522;-0.0382;
589.8000;0.1538;-0.0335;
590.1000;0.1457;-0.0550;
590.4000;0.1530;-0.0358;
590.7000;0.1514;-0.0430;
591.0000;0.1530;-0.0478;
591.3000;0.1530;-0.0478;
591.6000;0.1514;-0.0526;
591.9000;0.1538;-0.0454;
592.2000;0.1514;-0.0502;
592.5000;0.1481;-0.0526;
592.8000;0.1530;-0.0358;
593.1000;0.1522;-0.0358;
593.4000;0.1498;-0.0502;
593.7000;0.1498;-0.0478;
594.0000;0.1490;-0.0502;
594.3000;0.1530;-0.0430;
594.6000;0.1547;-0.0382;
594.9000;0.1506;-0.0550;
595.2000;0.1473;-0.0550;
595.5000;0.1514;-0.0478;
595.8000;0.1522;-0.0382;
596.1000;0.1538;-0.0430;
596.4000;0.1514;-0.0406;
596.7000;0.1506;-0.0430;
597.0000;0.1522;-0.0430;
597.3000;0.1522;-0.0406;
597.6000;0.1490;-0.0382;
597.9000;0.1490;-0.0406;
598.2000;0.1538;-0.0358;
598.5000;0.1514;-0.0502;
598.8000;0.1506;-0.0526;
599.1000;0.1473;-0.0574;
599.4000;0.1522;-0.0454;
599.7000;0.1530;-0.0406;
600.0000;0.1579;-0.0263;
600.3000;0.1425;-0.0693;
600.6000;0.1465;-0.0621;
600.9000;0.1604;-0.0406;
601.2000;0.1563;-0.0597;
601.5000;0.1490;-0.0765;
601.8000;0.1506;-0.0860;
602.1000;0.1490;-0.1051;
602.4000;0.1514;-0.1075;
602.7000;0.1571;-0.0956;
603.0000;0.1490;-0.1243;
603.3000;0.1481;-0.1314;
603.6000;0.1563;-0.1099;
603.9000;0.1522;-0.1338;
604.2000;0.1490;-0.1529;
604.5000;0.1506;-0.1529;
604.8000;0.1473;-0.1601;
605.1000;0.1506;-0.1434;
605.4000;0.1481;-0.1505;
605.7000;0.1473;-0.1553;
606.0000;0.1498;-0.1553;
606.3000;0.1571;-0.1243;
606.6000;0.1522;-0.1434;
606.9000;0.1498;-0.1529;
607.2000;0.1490;-0.1553;
607.5000;0.1457;-0.1744;
607.8000;0.1498;-0.1553;
608.1000;0.1506;-0.1529;
608.4000;0.1547;-0.1434;
608.7000;0.1457;-0.1744;
609.0000;0.1490;-0.1649;
609.3000;0.1490;-0.1744;
609.6000;0.1481;-0.1744;
609.9000;0.1498;-0.1673;
610.2000;0.1530;-0.1625;
610.5000;0.1538;-0.1505;
610.8000;0.1481;-0.1601;
611.1000;0.1433;-0.1673;
611.4000;0.1595;-0.1314;
611.7000;0.1506;-0.1553;
612.0000;0.1473;-0.1673;
612.3000;0.1441;-0.1697;
612.6000;0.1506;-0.1553;
612.9000;0.1490;-0.1553;
613.2000;0.1490;-0.1553;
613.5000;0.1498;-0.1721;
613.8000;0.1481;-0.1792;
614.1000;0.1522;-0.1792;
614.4000;0.1416;-0.1959;
614.7000;0.1498;-0.1816;
615.0000;0.1506;-0.1721;
615.3000;0.1506;-0.1673;
615.6000;0.1425;-0.1864;
615.9000;0.1481;-0.1744;
616.2000;0.1563;-0.1505;
616.5000;0.1433;-0.1792;
616.8000;0.1490;-0.1744;
617.1000;0.1441;-0.1888;
617.4000;0.1506;-0.1673;
617.7000;0.1498;-0.1601;
618.0000;0.1506;-0.1577;
618.3000;0.1449;-0.1673;
618.6000;0.1473;-0.1649;
618.9000;0.1481;-0.1625;
619.2000;0.1514;-0.1601;
619.5000;0.1465;-0.1721;
619.8000;0.1490;-0.1721;
620.1000;0.1498;-0.1744;
620.4000;0.1563;-0.1505;
620.7000;0.1498;-0.1697;
621.0000;0.1473;-0.1673;
621.3000;0.1441;-0.1768;
621.6000;0.1473;-0.1768;
621.9000;0.1481;-0.1697;
622.2000;0.1490;-0.1721;
622.5000;0.1481;-0.1673;
622.8000;0.1490;-0.1625;
623.1000;0.1498;-0.1697;
623.4000;0.1490;-0.1792;
623.7000;0.1457;-0.1840;
624.0000;0.1490;-0.1792;
624.3000;0.1498;-0.1721;
624.6000;0.1481;-0.1673;
624.9000;0.1498;-0.1649;
625.2000;0.1490;-0.1673;
625.5000;0.1506;-0.1673;
625.8000;0.1490;-0.1792;
626.1000;0.1506;-0.1768;
626.4000;0.1441;-0.1888;
626.7000;0.1490;-0.1721;
627.0000;0.1490;-0.1768;
627.3000;0.1498;-0.1792;
627.6000;0.1498;-0.1840;
627.9000;0.1465;-0.1792;
628.2000;0.1506;-0.1673;
628.5000;0.1498;-0.1721;
628.8000;0.1498;-0.1721;
629.1000;0.1490;-0.1673;
629.4000;0.1481;-0.1697;
629.7000;0.1498;-0.1625;
630.0000;0.1490;-0.1697;
630.3000;0.1481;-0.1792;
630.6000;0.1498;-0.1697;
630.9000;0.1498;-0.1721;
631.2000;0.1490;-0.1697;
631.5000;0.1514;-0.1697;
631.8000;0.1498;-0.1768;
632.1000;0.1522;-0.1721;
632.4000;0.1481;-0.1840;
632.7000;0.1498;-0.1792;
633.0000;0.1473;-0.1816;
633.3000;0.1514;-0.1673;
633.6000;0.1498;-0.1721;
633.9000;0.1465;-0.1792;
634.2000;0.1465;-0.1792;
634.5000;0.1465;-0.1888;
634.8000;0.1498;-0.1744;
635.1000;0.1514;-0.1721;
635.4000;0.1514;-0.1625;
635.7000;0.1425;-0.1936;
636.0000;0.1490;-0.1792;
636.3000;0.1498;-0.1721;
636.6000;0.1481;-0.1744;
636.9000;0.1514;-0.1577;
637.2000;0.1498;-0.1625;
637.5000;0.1481;-0.1768;
637.8000;0.1473;-0.1840;
638.1000;0.1465;-0.1888;
638.4000;0.1514;-0.1721;
638.7000;0.1481;-0.1744;
639.0000;0.1473;-0.1768;
639.3000;0.1441;-0.1912;
639.6000;0.1514;-0.1744;
639.9000;0.1465;-0.1744;
640.2000;0.1506;-0.1577;
640.5000;0.1473;-0.1577;
640.8000;0.1490;-0.1505;
641.1000;0.1506;-0.1577;
641.4000;0.1449;-0.1768;
641.7000;0.1481;-0.1744;
642.0000;0.1490;-0.1768;
642.3000;0.1506;-0.1721;
642.6000;0.1498;-0.1721;
642.9000;0.1473;-0.1721;
643.2000;0.1465;-0.1697;
643.5000;0.1457;-0.1744;
643.8000;0.1490;-0.1625;
644.1000;0.1465;-0.1768;
644.4000;0.1457;-0.1888;
644.7000;0.1481;-0.1840;
645.0000;0.1506;-0.1744;
645.3000;0.1490;-0.1673;
645.6000;0.1481;-0.1744;
645.9000;0.1498;-0.1697;
646.2000;0.1498;-0.1721;
646.5000;0.1506;-0.1768;
646.8000;0.1490;-0.1840;
647.1000;0.1481;-0.1936;
647.4000;0.1498;-0.1936;
647.7000;0.1490;-0.1959;
648.0000;0.1481;-0.1888;
648.3000;0.1522;-0.1744;
648.6000;0.1506;-0.1744;
648.9000;0.1490;-0.1649;
649.2000;0.1514;-0.1697;
649.5000;0.1571;-0.1458;
649.8000;0.1490;-0.1697;
650.1000;0.1498;-0.1792;
650.4000;0.1465;-0.1888;
650.7000;0.1473;-0.1888;
651.0000;0.1490;-0.1864;
651.3000;0.1416;-0.2103;
651.6000;0.1498;-0.2007;
651.9000;0.1416;-0.2127;
652.2000;0.1498;-0.1959;
652.5000;0.1473;-0.2031;
652.8000;0.1498;-0.1983;
653.1000;0.1490;-0.2079;
653.4000;0.1457;-0.2198;
653.7000;0.1498;-0.2103;
654.0000;0.1506;-0.2007;
654.3000;0.1490;-0.2079;
654.6000;0.1514;-0.2031;
654.9000;0.1490;-0.1983;
655.2000;0.1522;-0.1983;
655.5000;0.1571;-0.1840;
655.8000;0.1490;-0.2055;
656.1000;0.1400;-0.2342;
656.4000;0.1498;-0.1983;
656.7000;0.1506;-0.1888;
657.0000;0.1481;-0.1983;
657.3000;0.1490;-0.2031;
657.6000;0.1481;-0.1912;
657.9000;0.1490;-0.1864;
658.2000;0.1490;-0.1864;
658.5000;0.1481;-0.1912;
658.8000;0.1490;-0.1888;
659.1000;0.1473;-0.1912;
659.4000;0.1498;-0.1864;
659.7000;0.1457;-0.1888;
660.0000;0.1465;-0.1888;
660.3000;0.1481;-0.1936;
660.6000;0.1506;-0.1864;
660.9000;0.1441;-0.1983;
661.2000;0.1465;-0.1959;
661.5000;0.1490;-0.1816;
661.8000;0.1555;-0.1625;
662.1000;0.1473;-0.1840;
662.4000;0.1490;-0.1792;
662.7000;0.1498;-0.1744;
663.0000;0.1481;-0.1792;
663.3000;0.1473;-0.1768;
663.6000;0.1481;-0.1864;
663.9000;0.1555;-0.1553;
664.2000;0.1481;-0.1721;
664.5000;0.1498;-0.1697;
664.8000;0.1473;-0.1768;
665.1000;0.1473;-0.1792;
665.4000;0.1490;-0.1792;
665.7000;0.1498;-0.1840;
666.0000;0.1490;-0.1912;
666.3000;0.1490;-0.1912;
666.6000;0.1498;-0.1864;
666.9000;0.1506;-0.1744;
667.2000;0.1490;-0.1744;
667.5000;0.1457;-0.1697;
667.8000;0.1490;-0.1649;
668.1000;0.1457;-0.1768;
668.4000;0.1490;-0.1768;
668.7000;0.1498;-0.1744;
669.0000;0.1481;-0.1768;
669.3000;0.1457;-0.1697;
669.6000;0.1473;-0.1697;
669.9000;0.1481;-0.1649;
670.2000;0.1490;-0.1601;
670.5000;0.1481;-0.1625;
670.8000;0.1441;-0.1744;
671.1000;0.1473;-0.1744;
671.4000;0.1481;-0.1697;
671.7000;0.1490;-0.1721;
672.0000;0.1481;-0.1649;
672.3000;0.1473;-0.1673;
672.6000;0.1481;-0.1625;
672.9000;0.1490;-0.1649;
673.2000;0.1498;-0.1697;
673.5000;0.1481;-0.1768;
673.8000;0.1506;-0.1697;
674.1000;0.1490;-0.1697;
674.4000;0.1620;-0.1314;
674.7000;0.1441;-0.1744;
675.0000;0.1490;-0.1649;
675.3000;0.1465;-0.1744;
675.6000;0.1490;-0.1768;
675.9000;0.1490;-0.1744;
676.2000;0.1498;-0.1673;
676.5000;0.1490;-0.1601;
676.8000;0.1376;-0.1959;
677.1000;0.1473;-0.1649;
677.4000;0.1457;-0.1673;
677.7000;0.1351;-0.2031;
678.0000;0.1473;-0.1721;
678.3000;0.1514;-0.1649;
678.6000;0.1481;-0.1744;
678.9000;0.1522;-0.1649;
679.2000;0.1473;-0.1744;
679.5000;0.1441;-0.1888;
679.8000;0.1490;-0.1768;
680.1000;0.1490;-0.1864;
680.4000;0.1498;-0.1744;
680.7000;0.1465;-0.1768;
681.0000;0.1514;-0.1649;
681.3000;0.1522;-0.1601;
681.6000;0.1490;-0.1697;
681.9000;0.1579;-0.1505;
682.2000;0.1433;-0.1912;
682.5000;0.1498;-0.1721;
682.8000;0.1481;-0.1792;
683.1000;0.1457;-0.1816;
683.4000;0.1506;-0.1721;
683.7000;0.1498;-0.1768;
684.0000;0.1506;-0.1792;
684.3000;0.1498;-0.1768;
684.6000;0.1481;-0.1864;
684.9000;0.1481;-0.1888;
685.2000;0.1481;-0.1864;
685.5000;0.1522;-0.1744;
685.8000;0.1595;-0.1505;
686.1000;0.1498;-0.1864;
686.4000;0.1498;-0.1840;
686.7000;0.1490;-0.1816;
687.0000;0.1481;-0.1840;
687.3000;0.1400;-0.2031;
687.6000;0.1490;-0.1792;
687.9000;0.1481;-0.1840;
688.2000;0.1571;-0.1577;
688.5000;0.1481;-0.1816;
688.8000;0.1514;-0.1792;
689.1000;0.1433;-0.1983;
689.4000;0.1473;-0.1936;
689.7000;0.1579;-0.1721;
690.0000;0.1514;-0.1864;
690.3000;0.1530;-0.1816;
690.6000;0.1522;-0.1840;
690.9000;0.1498;-0.1912;
691.2000;0.1547;-0.1768;
691.5000;0.1481;-0.1768;
691.8000;0.1481;-0.1744;
692.1000;0.1481;-0.1816;
692.4000;0.1473;-0.1840;
692.7000;0.1481;-0.1744;
693.0000;0.1571;-0.1505;
693.3000;0.1547;-0.1721;
693.6000;0.1481;-0.1888;
693.9000;0.1506;-0.1840;
694.2000;0.1481;-0.2007;
694.5000;0.1538;-0.1864;
694.8000;0.1490;-0.1983;
695.1000;0.1506;-0.1959;
695.4000;0.1571;-0.1816;
695.7000;0.1368;-0.2342;
696.0000;0.1490;-0.1959;
696.3000;0.1514;-0.1888;
696.6000;0.1473;-0.1959;
696.9000;0.1490;-0.1768;
697.2000;0.1481;-0.1649;
697.5000;0.1498;-0.1673;
697.8000;0.1351;-0.2055;
698.1000;0.1473;-0.1768;
698.4000;0.1522;-0.1697;
698.7000;0.1425;-0.1888;
699.0000;0.1481;-0.1768;
699.3000;0.1514;-0.1768;
699.6000;0.1498;-0.1744;
699.9000;0.1481;-0.1768;
700.2000;0.1498;-0.1697;
700.5000;0.1490;-0.1721;
700.8000;0.1490;-0.1721;
701.1000;0.1538;-0.1601;
701.4000;0.1490;-0.1768;
701.7000;0.1498;-0.1912;
702.0000;0.1481;-0.2007;
702.3000;0.1449;-0.2031;
702.6000;0.1465;-0.1959;
702.9000;0.1498;-0.1816;
703.2000;0.1481;-0.1888;
703.5000;0.1465;-0.1912;
703.8000;0.1481;-0.1936;
704.1000;0.1481;-0.1983;
704.4000;0.1457;-0.2031;
704.7000;0.1522;-0.1816;
705.0000;0.1490;-0.1864;
705.3000;0.1514;-0.1840;
705.6000;0.1481;-0.1864;
705.9000;0.1579;-0.1649;
706.2000;0.1522;-0.1816;
706.5000;0.1490;-0.1888;
706.8000;0.1490;-0.1888;
707.1000;0.1490;-0.1983;
707.4000;0.1490;-0.1912;
707.7000;0.1481;-0.1840;
708.0000;0.1506;-0.1721;
708.3000;0.1449;-0.1840;
708.6000;0.1433;-0.1959;
708.9000;0.1498;-0.1816;
709.2000;0.1498;-0.1816;
709.5000;0.1498;-0.1816;
709.8000;0.1498;-0.1792;
710.1000;0.1498;-0.1816;
710.4000;0.1506;-0.1792;
710.7000;0.1506;-0.1840;
711.0000;0.1498;-0.1792;
711.3000;0.1522;-0.1697;
711.6000;0.1433;-0.1912;
711.9000;0.1498;-0.1864;
712.2000;0.1416;-0.2055;
712.5000;0.1465;-0.1912;
712.8000;0.1481;-0.1912;
713.1000;0.1490;-0.1912;
713.4000;0.1490;-0.1936;
713.7000;0.1473;-0.2079;
714.0000;0.1547;-0.1936;
714.3000;0.1490;-0.2103;
714.6000;0.1473;-0.2151;
714.9000;0.1490;-0.2031;
715.2000;0.1392;-0.2366;
715.5000;0.1490;-0.2007;
715.8000;0.1498;-0.1936;
716.1000;0.1571;-0.1673;
716.4000;0.1473;-0.1888;
716.7000;0.1473;-0.1864;
717.0000;0.1522;-0.1697;
717.3000;0.1522;-0.1625;
717.6000;0.1481;-0.1744;
717.9000;0.1481;-0.1744;
718.2000;0.1473;-0.1840;
718.5000;0.1481;-0.1816;
718.8000;0.1498;-0.1744;
719.1000;0.1490;-0.1792;
719.4000;0.1563;-0.1601;
719.7000;0.1465;-0.1816;
720.0000;0.1465;-0.1912;
720.3000;0.1441;-0.2079;
720.6000;0.1498;-0.1959;
720.9000;0.1473;-0.1983;
721.2000;0.1473;-0.1959;
721.5000;0.1473;-0.2031;
721.8000;0.1481;-0.2007;
722.1000;0.1498;-0.1983;
722.4000;0.1498;-0.1983;
722.7000;0.1498;-0.1983;
723.0000;0.1481;-0.2007;
723.3000;0.1481;-0.1983;
723.6000;0.1514;-0.1888;
723.9000;0.1514;-0.1959;
724.2000;0.1473;-0.2031;
724.5000;0.1498;-0.1888;
724.8000;0.1481;-0.1864;
725.1000;0.1506;-0.1816;
725.4000;0.1384;-0.2151;
725.7000;0.1490;-0.1912;
726.0000;0.1465;-0.2031;
726.3000;0.1490;-0.1983;
726.6000;0.1530;-0.1864;
726.9000;0.1481;-0.2007;
727.2000;0.1498;-0.2007;
727.5000;0.1457;-0.2079;
727.8000;0.1449;-0.2198;
728.1000;0.1506;-0.2151;
728.4000;0.1498;-0.2175;
728.7000;0.1490;-0.2127;
729.0000;0.1481;-0.2198;
729.3000;0.1473;-0.2127;
729.6000;0.1465;-0.2079;
729.9000;0.1514;-0.1792;
730.2000;0.1490;-0.1912;
730.5000;0.1563;-0.1673;
730.8000;0.1473;-0.1936;
731.1000;0.1498;-0.1864;
731.4000;0.1449;-0.2055;
731.7000;0.1473;-0.2055;
732.0000;0.1473;-0.2055;
732.3000;0.1473;-0.2055;
732.6000;0.1498;-0.1936;
732.9000;0.1481;-0.1983;
733.2000;0.1538;-0.1840;
733.5000;0.1514;-0.1888;
733.8000;0.1506;-0.1864;
734.1000;0.1490;-0.1864;
734.4000;0.1481;-0.1840;
734.7000;0.1490;-0.1816;
735.0000;0.1498;-0.1864;
735.3000;0.1498;-0.1816;
735.6000;0.1481;-0.1816;
735.9000;0.1473;-0.1816;
736.2000;0.1473;-0.1816;
736.5000;0.1490;-0.1816;
736.8000;0.1465;-0.1864;
737.1000;0.1449;-0.1912;
737.4000;0.1465;-0.1840;
737.7000;0.1425;-0.1959;
738.0000;0.1506;-0.1744;
738.3000;0.1514;-0.1601;
738.6000;0.1481;-0.1792;
738.9000;0.1481;-0.1792;
739.2000;0.1506;-0.1744;
739.5000;0.1498;-0.1673;
739.8000;0.1465;-0.1840;
740.1000;0.1506;-0.1744;
740.4000;0.1481;-0.1840;
740.7000;0.1473;-0.1792;
741.0000;0.1481;-0.1744;
741.3000;0.1490;-0.1697;
741.6000;0.1514;-0.1649;
741.9000;0.1490;-0.1792;
742.2000;0.1498;-0.1816;
742.5000;0.1498;-0.1840;
742.8000;0.1498;-0.1816;
743.1000;0.1498;-0.1840;
743.4000;0.1522;-0.1792;
743.7000;0.1514;-0.1840;
744.0000;0.1506;-0.1888;
744.3000;0.1514;-0.1936;
744.6000;0.1506;-0.2055;
744.9000;0.1481;-0.2127;
745.2000;0.1481;-0.2103;
745.5000;0.1490;-0.2031;
745.8000;0.1441;-0.2103;
746.1000;0.1481;-0.2031;
746.4000;0.1473;-0.2055;
746.7000;0.1490;-0.2031;
747.0000;0.1481;-0.2055;
747.3000;0.1490;-0.2079;
747.6000;0.1506;-0.2055;
747.9000;0.1457;-0.2175;
748.2000;0.1506;-0.2079;
748.5000;0.1506;-0.2007;
748.8000;0.1473;-0.2079;
749.1000;0.1481;-0.2103;
749.4000;0.1457;-0.2246;
749.7000;0.1433;-0.2318;
750.0000;0.1490;-0.2175;
750.3000;0.1514;-0.2127;
750.6000;0.1465;-0.2222;
750.9000;0.1473;-0.2198;
751.2000;0.1490;-0.2151;
751.5000;0.1490;-0.2103;
751.8000;0.1571;-0.1888;
752.1000;0.1416;-0.2151;
752.4000;0.1506;-0.2007;
752.7000;0.1481;-0.2127;
753.0000;0.1481;-0.2127;
753.3000;0.1465;-0.2198;
753.6000;0.1481;-0.2031;
753.9000;0.1473;-0.2007;
754.2000;0.1498;-0.2007;
754.5000;0.1376;-0.2366;
754.8000;0.1481;-0.2055;
755.1000;0.1514;-0.2007;
755.4000;0.1498;-0.1983;
755.7000;0.1506;-0.1983;
756.0000;0.1465;-0.2079;
756.3000;0.1433;-0.2127;
756.6000;0.1481;-0.2031;
756.9000;0.1490;-0.1959;
757.2000;0.1490;-0.1864;
757.5000;0.1416;-0.2127;
757.8000;0.1481;-0.1959;
758.1000;0.1490;-0.1888;
758.4000;0.1498;-0.1888;
758.7000;0.1530;-0.1721;
759.0000;0.1481;-0.1816;
759.3000;0.1547;-0.1673;
759.6000;0.1441;-0.1864;
759.9000;0.1498;-0.1792;
760.2000;0.1481;-0.1768;
760.5000;0.1481;-0.1744;
760.8000;0.1490;-0.1792;
761.1000;0.1514;-0.1768;
761.4000;0.1498;-0.1888;
761.7000;0.1498;-0.1888;
762.0000;0.1481;-0.1888;
762.3000;0.1351;-0.2175;
762.6000;0.1506;-0.1744;
762.9000;0.1498;-0.1816;
763.2000;0.1490;-0.1888;
763.5000;0.1555;-0.1744;
763.8000;0.1481;-0.1936;
764.1000;0.1571;-0.1649;
764.4000;0.1481;-0.1816;
764.7000;0.1481;-0.1816;
765.0000;0.1481;-0.1959;
765.3000;0.1490;-0.1959;
765.6000;0.1457;-0.1959;
765.9000;0.1498;-0.1912;
766.2000;0.1490;-0.1936;
766.5000;0.1522;-0.1864;
766.8000;0.1457;-0.1959;
767.1000;0.1490;-0.1983;
767.4000;0.1620;-0.1697;
767.7000;0.1473;-0.2127;
768.0000;0.1490;-0.2079;
768.3000;0.1465;-0.2175;
768.6000;0.1481;-0.2103;
768.9000;0.1514;-0.2007;
769.2000;0.1457;-0.2055;
769.5000;0.1490;-0.2079;
769.8000;0.1473;-0.2198;
770.1000;0.1506;-0.2031;
770.4000;0.1473;-0.2103;
770.7000;0.1481;-0.2031;
771.0000;0.1514;-0.1983;
771.3000;0.1498;-0.1936;
771.6000;0.1498;-0.2031;
771.9000;0.1490;-0.2055;
772.2000;0.1465;-0.2079;
772.5000;0.1473;-0.2127;
772.8000;0.1457;-0.2175;
773.1000;0.1473;-0.2031;
773.4000;0.1490;-0.2007;
773.7000;0.1457;-0.2079;
774.0000;0.1490;-0.2055;
774.3000;0.1498;-0.2055;
774.6000;0.1473;-0.2055;
774.9000;0.1490;-0.1888;
775.2000;0.1506;-0.1768;
775.5000;0.1490;-0.1864;
775.8000;0.1498;-0.1864;
776.1000;0.1506;-0.1840;
776.4000;0.1465;-0.1983;
776.7000;0.1481;-0.1983;
777.0000;0.1473;-0.2007;
777.3000;0.1490;-0.1936;
777.6000;0.1481;-0.1959;
777.9000;0.1465;-0.1959;
778.2000;0.1465;-0.1983;
778.5000;0.1473;-0.1936;
778.8000;0.1490;-0.1864;
779.1000;0.1481;-0.1864;
779.4000;0.1514;-0.1816;
779.7000;0.1547;-0.1768;
780.0000;0.1490;-0.1983;
780.3000;0.1473;-0.2055;
780.6000;0.1498;-0.1959;
780.9000;0.1481;-0.2079;
781.2000;0.1498;-0.2055;
781.5000;0.1498;-0.2103;
781.8000;0.1465;-0.2151;
782.1000;0.1555;-0.2007;
782.4000;0.1481;-0.2175;
782.7000;0.1433;-0.2342;
783.0000;0.1473;-0.2127;
783.3000;0.1498;-0.2055;
783.6000;0.1449;-0.2198;
783.9000;0.1481;-0.2055;
784.2000;0.1498;-0.2079;
784.5000;0.1522;-0.2055;
784.8000;0.1514;-0.2055;
785.1000;0.1604;-0.1697;
785.4000;0.1490;-0.2031;
785.7000;0.1498;-0.2055;
786.0000;0.1522;-0.1959;
786.3000;0.1514;-0.1936;
786.6000;0.1490;-0.1912;
786.9000;0.1498;-0.1816;
787.2000;0.1498;-0.1768;
787.5000;0.1465;-0.1840;
787.8000;0.1498;-0.1768;
788.1000;0.1481;-0.1888;
788.4000;0.1425;-0.2103;
788.7000;0.1498;-0.1936;
789.0000;0.1481;-0.1983;
789.3000;0.1481;-0.1912;
789.6000;0.1457;-0.2007;
789.9000;0.1506;-0.2031;
790.2000;0.1490;-0.2055;
790.5000;0.1514;-0.1983;
790.8000;0.1514;-0.2079;
791.1000;0.1498;-0.2079;
791.4000;0.1400;-0.2342;
791.7000;0.1506;-0.1936;
792.0000;0.1490;-0.1912;
792.3000;0.1490;-0.1936;
792.6000;0.1498;-0.1959;
792.9000;0.1392;-0.2222;
793.2000;0.1473;-0.1840;
793.5000;0.1481;-0.1792;
793.8000;0.1457;-0.1768;
794.1000;0.1490;-0.1649;
794.4000;0.1538;-0.1529;
794.7000;0.1481;-0.1673;
795.0000;0.1506;-0.1744;
795.3000;0.1457;-0.1840;
795.6000;0.1506;-0.1697;
795.9000;0.1481;-0.1792;
796.2000;0.1490;-0.1721;
796.5000;0.1441;-0.1888;
796.8000;0.1490;-0.1697;
797.1000;0.1498;-0.1721;
797.4000;0.1473;-0.1792;
797.7000;0.1506;-0.1744;
798.0000;0.1490;-0.1864;
798.3000;0.1514;-0.1792;
798.6000;0.1498;-0.1888;
798.9000;0.1481;-0.1936;
799.2000;0.1490;-0.1864;
799.5000;0.1416;-0.2103;
799.8000;0.1473;-0.1983;
800.1000;0.1441;-0.2055;
800.4000;0.1457;-0.1959;
800.7000;0.1473;-0.1959;
801.0000;0.1498;-0.1936;
801.3000;0.1514;-0.1959;
801.6000;0.1473;-0.1983;
801.9000;0.1506;-0.1816;
802.2000;0.1498;-0.1840;
802.5000;0.1490;-0.1792;
802.8000;0.1498;-0.1768;
803.1000;0.1473;-0.1816;
803.4000;0.1498;-0.1768;
803.7000;0.1595;-0.1529;
804.0000;0.1481;-0.1816;
804.3000;0.1506;-0.1744;
804.6000;0.1473;-0.1936;
804.9000;0.1481;-0.1912;
805.2000;0.1490;-0.1864;
805.5000;0.1473;-0.1936;
805.8000;0.1498;-0.1840;
806.1000;0.1441;-0.2007;
806.4000;0.1449;-0.1912;
806.7000;0.1490;-0.1792;
807.0000;0.1416;-0.1936;
807.3000;0.1498;-0.1721;
807.6000;0.1506;-0.1721;
807.9000;0.1481;-0.1768;
808.2000;0.1522;-0.1601;
808.5000;0.1481;-0.1721;
808.8000;0.1506;-0.1649;
809.1000;0.1425;-0.1936;
809.4000;0.1457;-0.1912;
809.7000;0.1473;-0.1959;
810.0000;0.1490;-0.1959;
810.3000;0.1490;-0.1959;
810.6000;0.1465;-0.1959;
810.9000;0.1465;-0.1864;
811.2000;0.1612;-0.1458;
811.5000;0.1433;-0.1840;
811.8000;0.1490;-0.1673;
812.1000;0.1441;-0.1792;
812.4000;0.1498;-0.1744;
812.7000;0.1498;-0.1768;
813.0000;0.1473;-0.1816;
813.3000;0.1490;-0.1840;
813.6000;0.1481;-0.1649;
813.9000;0.1498;-0.1721;
814.2000;0.1481;-0.1625;
814.5000;0.1490;-0.1673;
814.8000;0.1506;-0.1768;
815.1000;0.1481;-0.1768;
815.4000;0.1465;-0.1816;
815.7000;0.1481;-0.1840;
816.0000;0.1473;-0.1912;
816.3000;0.1457;-0.1936;
816.6000;0.1514;-0.1697;
816.9000;0.1506;-0.1697;
817.2000;0.1465;-0.1816;
817.5000;0.1498;-0.1744;
817.8000;0.1498;-0.1768;
818.1000;0.1522;-0.1768;
818.4000;0.1473;-0.1864;
818.7000;0.1449;-0.1959;
819.0000;0.1514;-0.1768;
819.3000;0.1498;-0.1816;
819.6000;0.1506;-0.1816;
819.9000;0.1490;-0.1792;
820.2000;0.1498;-0.1744;
820.5000;0.1490;-0.1864;
820.8000;0.1481;-0.1888;
821.1000;0.1498;-0.1792;
821.4000;0.1547;-0.1673;
821.7000;0.1506;-0.1816;
822.0000;0.1481;-0.1864;
822.3000;0.1555;-0.1697;
822.6000;0.1457;-0.1983;
822.9000;0.1481;-0.1959;
823.2000;0.1481;-0.1959;
823.5000;0.1506;-0.1816;
823.8000;0.1481;-0.1768;
824.1000;0.1514;-0.1744;
824.4000;0.1481;-0.1888;
824.7000;0.1490;-0.1792;
825.0000;0.1506;-0.1840;
825.3000;0.1514;-0.1792;
825.6000;0.1506;-0.1721;
825.9000;0.1490;-0.1744;
826.2000;0.1465;-0.1792;
826.5000;0.1490;-0.1768;
826.8000;0.1490;-0.1864;
827.1000;0.1514;-0.1792;
827.4000;0.1481;-0.1983;
827.7000;0.1400;-0.2151;
828.0000;0.1433;-0.2103;
828.3000;0.1481;-0.1959;
828.6000;0.1587;-0.1697;
828.9000;0.1506;-0.1912;
829.2000;0.1514;-0.1912;
829.5000;0.1465;-0.1959;
829.8000;0.1490;-0.1816;
830.1000;0.1481;-0.1840;
830.4000;0.1490;-0.1697;
830.7000;0.1563;-0.1529;
831.0000;0.1465;-0.1816;
831.3000;0.1465;-0.1840;
831.6000;0.1481;-0.1768;
831.9000;0.1506;-0.1697;
832.2000;0.1481;-0.1792;
832.5000;0.1481;-0.1840;
832.8000;0.1481;-0.1816;
833.1000;0.1473;-0.1959;
833.4000;0.1490;-0.1912;
833.7000;0.1506;-0.1936;
834.0000;0.1481;-0.2007;
834.3000;0.1490;-0.2055;
834.6000;0.1514;-0.1936;
834.9000;0.1498;-0.1959;
835.2000;0.1490;-0.1959;
835.5000;0.1490;-0.1864;
835.8000;0.1506;-0.1816;
836.1000;0.1522;-0.1768;
836.4000;0.1555;-0.1744;
836.7000;0.1490;-0.1936;
837.0000;0.1465;-0.2031;
837.3000;0.1473;-0.1983;
837.6000;0.1506;-0.1864;
837.9000;0.1473;-0.1959;
838.2000;0.1498;-0.1888;
838.5000;0.1555;-0.1744;
838.8000;0.1481;-0.2031;
839.1000;0.1481;-0.2103;
839.4000;0.1481;-0.2055;
839.7000;0.1473;-0.1888;
840.0000;0.1490;-0.1744;
840.3000;0.1473;-0.1816;
840.6000;0.1498;-0.1792;
840.9000;0.1481;-0.1816;
841.2000;0.1506;-0.1864;
841.5000;0.1506;-0.1888;
841.8000;0.1465;-0.2007;
842.1000;0.1498;-0.1888;
842.4000;0.1490;-0.1983;
842.7000;0.1498;-0.2031;
843.0000;0.1498;-0.1983;
843.3000;0.1498;-0.1864;
843.6000;0.1498;-0.1816;
843.9000;0.1465;-0.1864;
844.2000;0.1498;-0.1768;
844.5000;0.1498;-0.1792;
844.8000;0.1368;-0.2175;
845.1000;0.1490;-0.1768;
845.4000;0.1481;-0.1768;
845.7000;0.1506;-0.1697;
846.0000;0.1490;-0.1697;
846.3000;0.1506;-0.1721;
846.6000;0.1522;-0.1721;
846.9000;0.1490;-0.1864;
847.2000;0.1473;-0.1864;
847.5000;0.1522;-0.1673;
847.8000;0.1473;-0.1792;
848.1000;0.1408;-0.1959;
848.4000;0.1498;-0.1816;
848.7000;0.1490;-0.1840;
849.0000;0.1490;-0.1792;
849.3000;0.1425;-0.1959;
849.6000;0.1506;-0.1744;
849.9000;0.1481;-0.1912;
850.2000;0.1490;-0.1888;
850.5000;0.1506;-0.1912;
850.8000;0.1506;-0.1912;
851.1000;0.1498;-0.1816;
851.4000;0.1514;-0.1816;
851.7000;0.1481;-0.1864;
852.0000;0.1506;-0.1840;
852.3000;0.1473;-0.1912;
852.6000;0.1514;-0.1816;
852.9000;0.1514;-0.1721;
853.2000;0.1465;-0.1840;
853.5000;0.1563;-0.1625;
853.8000;0.1368;-0.2151;
854.1000;0.1473;-0.1888;
854.4000;0.1441;-0.2007;
854.7000;0.1538;-0.1744;
855.0000;0.1490;-0.1816;
855.3000;0.1481;-0.1768;
855.6000;0.1490;-0.1792;
855.9000;0.1481;-0.1792;
856.2000;0.1506;-0.1768;
856.5000;0.1514;-0.1721;
856.8000;0.1465;-0.1840;
857.1000;0.1465;-0.1864;
857.4000;0.1555;-0.1744;
857.7000;0.1481;-0.1936;
858.0000;0.1506;-0.1864;
858.3000;0.1490;-0.1959;
858.6000;0.1514;-0.1840;
858.9000;0.1481;-0.1983;
859.2000;0.1457;-0.2031;
859.5000;0.1530;-0.1792;
859.8000;0.1490;-0.1936;
860.1000;0.1481;-0.1912;
860.4000;0.1498;-0.1912;
860.7000;0.1522;-0.1864;
861.0000;0.1498;-0.1864;
861.3000;0.1498;-0.1888;
861.6000;0.1465;-0.1959;
861.9000;0.1498;-0.1864;
862.2000;0.1473;-0.1888;
862.5000;0.1481;-0.1888;
862.8000;0.1498;-0.1936;
863.1000;0.1530;-0.1983;
863.4000;0.1514;-0.1983;
863.7000;0.1490;-0.1983;
864.0000;0.1490;-0.1983;
864.3000;0.1498;-0.1912;
864.6000;0.1563;-0.1744;
864.9000;0.1473;-0.1888;
865.2000;0.1473;-0.1864;
865.5000;0.1400;-0.2175;
865.8000;0.1384;-0.2246;
866.1000;0.1481;-0.1959;
866.4000;0.1490;-0.1912;
866.7000;0.1481;-0.1888;
867.0000;0.1465;-0.2007;
867.3000;0.1481;-0.2007;
867.6000;0.1547;-0.1888;
867.9000;0.1595;-0.1840;
868.2000;0.1498;-0.2079;
868.5000;0.1481;-0.2079;
868.8000;0.1506;-0.2103;
869.1000;0.1506;-0.2031;
869.4000;0.1538;-0.1912;
869.7000;0.1490;-0.2031;
870.0000;0.1490;-0.2079;
870.3000;0.1514;-0.2079;
870.6000;0.1481;-0.2127;
870.9000;0.1473;-0.2175;
871.2000;0.1481;-0.2151;
871.5000;0.1498;-0.2198;
871.8000;0.1506;-0.2103;
872.1000;0.1441;-0.2270;
872.4000;0.1587;-0.1816;
872.7000;0.1473;-0.1983;
873.0000;0.1506;-0.1936;
873.3000;0.1547;-0.1888;
873.6000;0.1490;-0.2031;
873.9000;0.1473;-0.2103;
874.2000;0.1498;-0.2079;
874.5000;0.1384;-0.2390;
874.8000;0.1498;-0.1959;
875.1000;0.1481;-0.1912;
875.4000;0.1441;-0.2055;
875.7000;0.1498;-0.1959;
876.0000;0.1490;-0.2031;
876.3000;0.1506;-0.2079;
876.6000;0.1481;-0.2127;
876.9000;0.1481;-0.2031;
877.2000;0.1514;-0.1983;
877.5000;0.1465;-0.2055;
877.8000;0.1490;-0.2055;
878.1000;0.1457;-0.2055;
878.4000;0.1392;-0.2246;
878.7000;0.1457;-0.2079;
879.0000;0.1481;-0.1912;
879.3000;0.1490;-0.1864;
879.6000;0.1514;-0.1792;
879.9000;0.1506;-0.1768;
880.2000;0.1498;-0.1792;
880.5000;0.1441;-0.2031;
880.8000;0.1498;-0.1912;
881.1000;0.1490;-0.1959;
881.4000;0.1473;-0.2127;
881.7000;0.1490;-0.1959;
882.0000;0.1490;-0.2055;
882.3000;0.1490;-0.2007;
882.6000;0.1498;-0.2079;
882.9000;0.1579;-0.1864;
883.2000;0.1522;-0.2007;
883.5000;0.1490;-0.2127;
883.8000;0.1498;-0.2079;
884.1000;0.1481;-0.2031;
884.4000;0.1416;-0.2246;
884.7000;0.1506;-0.1959;
885.0000;0.1481;-0.1983;
885.3000;0.1465;-0.2055;
885.6000;0.1473;-0.2103;
885.9000;0.1490;-0.2007;
886.2000;0.1473;-0.2007;
886.5000;0.1506;-0.1936;
886.8000;0.1465;-0.1983;
887.1000;0.1481;-0.2103;
887.4000;0.1465;-0.2151;
887.7000;0.1547;-0.1959;
888.0000;0.1498;-0.2079;
888.3000;0.1465;-0.2127;
888.6000;0.1514;-0.2031;
888.9000;0.1498;-0.2031;
889.2000;0.1498;-0.2055;
889.5000;0.1465;-0.2127;
889.8000;0.1579;-0.1816;
890.1000;0.1498;-0.2031;
890.4000;0.1514;-0.1936;
890.7000;0.1457;-0.2127;
891.0000;0.1481;-0.2103;
891.3000;0.1506;-0.2198;
891.6000;0.1481;-0.2246;
891.9000;0.1481;-0.2222;
892.2000;0.1490;-0.2175;
892.5000;0.1563;-0.1936;
892.8000;0.1490;-0.2103;
893.1000;0.1514;-0.2007;
893.4000;0.1498;-0.2127;
893.7000;0.1498;-0.2222;
894.0000;0.1473;-0.2198;
894.3000;0.1490;-0.2103;
894.6000;0.1587;-0.1912;
894.9000;0.1498;-0.1983;
895.2000;0.1498;-0.1959;
895.5000;0.1490;-0.1959;
895.8000;0.1490;-0.1959;
896.1000;0.1481;-0.1912;
896.4000;0.1490;-0.1864;
896.7000;0.1490;-0.1888;
897.0000;0.1473;-0.1840;
897.3000;0.1547;-0.1768;
897.6000;0.1490;-0.1983;
897.9000;0.1514;-0.1983;
898.2000;0.1506;-0.2055;
898.5000;0.1490;-0.2055;
898.8000;0.1457;-0.2127;
899.1000;0.1506;-0.1936;
899.4000;0.1449;-0.2055;
899.7000;0.1498;-0.2007;
900.0000;0.1498;-0.2103;
900.3000;0.1481;-0.2175;
900.6000;0.1465;-0.2294;
900.9000;0.1473;-0.2175;
901.2000;0.1547;-0.2007;
901.5000;0.1481;-0.2151;
901.8000;0.1481;-0.2198;
902.1000;0.1498;-0.2175;
902.4000;0.1408;-0.2413;
902.7000;0.1498;-0.2127;
903.0000;0.1547;-0.1983;
903.3000;0.1490;-0.2151;
903.6000;0.1473;-0.2127;
903.9000;0.1490;-0.2151;
904.2000;0.1425;-0.2294;
904.5000;0.1498;-0.2055;
904.8000;0.1522;-0.2007;
905.1000;0.1522;-0.1888;
905.4000;0.1481;-0.2031;
905.7000;0.1473;-0.2055;
906.0000;0.1490;-0.2007;
906.3000;0.1481;-0.1959;
906.6000;0.1473;-0.1959;
906.9000;0.1481;-0.2007;
907.2000;0.1498;-0.2007;
907.5000;0.1490;-0.2055;
907.8000;0.1481;-0.1912;
908.1000;0.1457;-0.1959;
908.4000;0.1433;-0.2151;
908.7000;0.1490;-0.2151;
909.0000;0.1514;-0.2055;
909.3000;0.1538;-0.1959;
909.6000;0.1481;-0.2055;
909.9000;0.1481;-0.2055;
910.2000;0.1481;-0.2055;
910.5000;0.1530;-0.1840;
910.8000;0.1490;-0.2007;
911.1000;0.1473;-0.1983;
911.4000;0.1490;-0.1936;
911.7000;0.1490;-0.1864;
912.0000;0.1498;-0.1864;
912.3000;0.1481;-0.1888;
912.6000;0.1481;-0.1792;
912.9000;0.1490;-0.1768;
913.2000;0.1498;-0.1816;
913.5000;0.1498;-0.1912;
913.8000;0.1457;-0.1888;
914.1000;0.1465;-0.1888;
914.4000;0.1473;-0.1888;
914.7000;0.1514;-0.1840;
915.0000;0.1433;-0.1959;
915.3000;0.1587;-0.1601;
915.6000;0.1555;-0.1697;
915.9000;0.1449;-0.2007;
916.2000;0.1490;-0.1959;
916.5000;0.1498;-0.1888;
916.8000;0.1514;-0.1792;
917.1000;0.1490;-0.1864;
917.4000;0.1473;-0.1816;
917.7000;0.1490;-0.1816;
918.0000;0.1449;-0.1840;
918.3000;0.1498;-0.1816;
918.6000;0.1473;-0.1816;
918.9000;0.1473;-0.1840;
919.2000;0.1514;-0.1744;
919.5000;0.1530;-0.1816;
919.8000;0.1490;-0.1959;
920.1000;0.1490;-0.2031;
920.4000;0.1498;-0.1936;
920.7000;0.1587;-0.1649;
921.0000;0.1490;-0.1864;
921.3000;0.1490;-0.1840;
921.6000;0.1473;-0.1816;
921.9000;0.1449;-0.1912;
922.2000;0.1490;-0.1816;
922.5000;0.1522;-0.1792;
922.8000;0.1506;-0.1792;
923.1000;0.1506;-0.1864;
923.4000;0.1465;-0.1936;
923.7000;0.1441;-0.1983;
924.0000;0.1498;-0.1959;
924.3000;0.1481;-0.1912;
924.6000;0.1490;-0.1936;
924.9000;0.1481;-0.1983;
925.2000;0.1490;-0.1912;
925.5000;0.1473;-0.1912;
925.8000;0.1514;-0.1792;
926.1000;0.1498;-0.1912;
926.4000;0.1481;-0.1936;
926.7000;0.1522;-0.1744;
927.0000;0.1514;-0.1768;
927.3000;0.1514;-0.1697;
927.6000;0.1530;-0.1697;
927.9000;0.1530;-0.1673;
928.2000;0.1425;-0.1983;
928.5000;0.1498;-0.1840;
928.8000;0.1506;-0.1864;
929.1000;0.1571;-0.1649;
929.4000;0.1490;-0.1888;
929.7000;0.1506;-0.1888;
930.0000;0.1481;-0.1912;
930.3000;0.1490;-0.1840;
930.6000;0.1498;-0.1888;
930.9000;0.1498;-0.1816;
931.2000;0.1506;-0.1744;
931.5000;0.1530;-0.1744;
931.8000;0.1498;-0.1936;
932.1000;0.1498;-0.1959;
932.4000;0.1498;-0.1959;
932.7000;0.1498;-0.1959;
933.0000;0.1457;-0.2055;
933.3000;0.1490;-0.2031;
933.6000;0.1490;-0.2079;
933.9000;0.1473;-0.2103;
934.2000;0.1481;-0.2079;
934.5000;0.1490;-0.2007;
934.8000;0.1481;-0.2031;
935.1000;0.1481;-0.1983;
935.4000;0.1538;-0.1840;
935.7000;0.1522;-0.1864;
936.0000;0.1408;-0.2151;
936.3000;0.1481;-0.1936;
936.6000;0.1433;-0.2055;
936.9000;0.1498;-0.1840;
937.2000;0.1522;-0.1697;
937.5000;0.1498;-0.1697;
937.8000;0.1416;-0.1912;
938.1000;0.1473;-0.1697;
938.4000;0.1465;-0.1792;
938.7000;0.1473;-0.1959;
939.0000;0.1563;-0.1721;
939.3000;0.1481;-0.1864;
939.6000;0.1547;-0.1625;
939.9000;0.1514;-0.1840;
940.2000;0.1498;-0.1840;
940.5000;0.1490;-0.1888;
940.8000;0.1481;-0.1864;
941.1000;0.1506;-0.1864;
941.4000;0.1473;-0.1912;
941.7000;0.1481;-0.2031;
942.0000;0.1490;-0.2007;
942.3000;0.1563;-0.1792;
942.6000;0.1555;-0.1792;
942.9000;0.1490;-0.1888;
943.2000;0.1498;-0.1864;
943.5000;0.1473;-0.1888;
943.8000;0.1481;-0.1864;
944.1000;0.1490;-0.1816;
944.4000;0.1530;-0.1744;
944.7000;0.1457;-0.2007;
945.0000;0.1465;-0.1959;
945.3000;0.1481;-0.1888;
945.6000;0.1498;-0.1912;
945.9000;0.1506;-0.1912;
946.2000;0.1473;-0.1983;
946.5000;0.1506;-0.2007;
946.8000;0.1481;-0.2175;
947.1000;0.1473;-0.2198;
947.4000;0.1498;-0.2151;
947.7000;0.1530;-0.1983;
948.0000;0.1425;-0.2390;
948.3000;0.1498;-0.2127;
948.6000;0.1473;-0.2151;
948.9000;0.1498;-0.2031;
949.2000;0.1481;-0.2055;
949.5000;0.1490;-0.2103;
949.8000;0.1490;-0.2055;
950.1000;0.1498;-0.2007;
950.4000;0.1498;-0.2031;
950.7000;0.1506;-0.2031;
951.0000;0.1490;-0.2103;
951.3000;0.1449;-0.2151;
951.6000;0.1465;-0.2175;
951.9000;0.1481;-0.2103;
952.2000;0.1506;-0.2031;
952.5000;0.1473;-0.2175;
952.8000;0.1514;-0.2079;
953.1000;0.1514;-0.2151;
953.4000;0.1473;-0.2127;
953.7000;0.1490;-0.2151;
954.0000;0.1481;-0.2055;
954.3000;0.1514;-0.1959;
954.6000;0.1498;-0.2079;
954.9000;0.1538;-0.2007;
955.2000;0.1481;-0.2198;
955.5000;0.1498;-0.2198;
955.8000;0.1490;-0.2222;
956.1000;0.1473;-0.2318;
956.4000;0.1490;-0.2318;
956.7000;0.1538;-0.2175;
957.0000;0.1555;-0.2127;
957.3000;0.1481;-0.2294;
957.6000;0.1498;-0.2270;
957.9000;0.1481;-0.2294;
958.2000;0.1514;-0.2175;
958.5000;0.1506;-0.2270;
958.8000;0.1481;-0.2390;
959.1000;0.1465;-0.2390;
959.4000;0.1547;-0.2222;
959.7000;0.1498;-0.2366;
960.0000;0.1514;-0.2342;
960.3000;0.1481;-0.2390;
960.6000;0.1335;-0.2796;
960.9000;0.1644;-0.1936;
961.2000;0.1498;-0.2246;
961.5000;0.1522;-0.2198;
961.8000;0.1498;-0.2175;
962.1000;0.1498;-0.2222;
962.4000;0.1498;-0.2246;
962.7000;0.1400;-0.2581;
963.0000;0.1473;-0.2366;
963.3000;0.1522;-0.2294;
963.6000;0.1481;-0.2318;
963.9000;0.1490;-0.2270;
964.2000;0.1490;-0.2222;
964.5000;0.1490;-0.2151;
964.8000;0.1498;-0.2151;
965.1000;0.1522;-0.2031;
965.4000;0.1473;-0.2127;
965.7000;0.1481;-0.2175;
966.0000;0.1490;-0.2127;
966.3000;0.1490;-0.2151;
966.6000;0.1538;-0.1936;
966.9000;0.1490;-0.2151;
967.2000;0.1473;-0.2222;
967.5000;0.1498;-0.2198;
967.8000;0.1490;-0.2151;
968.1000;0.1481;-0.2151;
968.4000;0.1433;-0.2366;
968.7000;0.1498;-0.2175;
969.0000;0.1506;-0.2151;
969.3000;0.1522;-0.2103;
969.6000;0.1498;-0.2270;
969.9000;0.1547;-0.2055;
970.2000;0.1498;-0.2222;
970.5000;0.1514;-0.2055;
970.8000;0.1473;-0.2055;
971.1000;0.1481;-0.2007;
971.4000;0.1490;-0.2103;
971.7000;0.1498;-0.2055;
972.0000;0.1506;-0.2007;
972.3000;0.1481;-0.2103;
972.6000;0.1465;-0.2175;
972.9000;0.1490;-0.2103;
973.2000;0.1498;-0.2103;
973.5000;0.1481;-0.2127;
973.8000;0.1465;-0.2294;
974.1000;0.1490;-0.2270;
974.4000;0.1522;-0.2151;
974.7000;0.1514;-0.2246;
975.0000;0.1481;-0.2270;
975.3000;0.1490;-0.2270;
975.6000;0.1498;-0.2007;
975.9000;0.1473;-0.2127;
976.2000;0.1490;-0.2175;
976.5000;0.1555;-0.1983;
976.8000;0.1490;-0.2151;
977.1000;0.1473;-0.2079;
977.4000;0.1473;-0.2055;
977.7000;0.1506;-0.1936;
978.0000;0.1490;-0.1888;
978.3000;0.1498;-0.1912;
978.6000;0.1481;-0.1983;
978.9000;0.1490;-0.2007;
979.2000;0.1465;-0.2055;
979.5000;0.1498;-0.1983;
979.8000;0.1473;-0.2007;
980.1000;0.1490;-0.2055;
980.4000;0.1457;-0.2198;
980.7000;0.1514;-0.2103;
981.0000;0.1481;-0.2175;
981.3000;0.1473;-0.2222;
981.6000;0.1498;-0.2151;
981.9000;0.1514;-0.2127;
982.2000;0.1490;-0.2270;
982.5000;0.1481;-0.2318;
982.8000;0.1506;-0.2270;
983.1000;0.1481;-0.2366;
983.4000;0.1498;-0.2270;
983.7000;0.1514;-0.2246;
984.0000;0.1506;-0.2270;
984.3000;0.1506;-0.2127;
984.6000;0.1530;-0.2007;
984.9000;0.1433;-0.2270;
985.2000;0.1481;-0.2031;
985.5000;0.1506;-0.1983;
985.8000;0.1498;-0.1936;
986.1000;0.1416;-0.2127;
986.4000;0.1490;-0.1959;
986.7000;0.1481;-0.2007;
987.0000;0.1481;-0.2055;
987.3000;0.1481;-0.2103;
987.6000;0.1490;-0.2007;
987.9000;0.1490;-0.1959;
988.2000;0.1530;-0.1840;
988.5000;0.1490;-0.2031;
988.8000;0.1465;-0.2175;
989.1000;0.1490;-0.1936;
989.4000;0.1490;-0.2007;
989.7000;0.1481;-0.2055;
990.0000;0.1481;-0.1983;
990.3000;0.1490;-0.1983;
990.6000;0.1530;-0.2007;
990.9000;0.1490;-0.2127;
991.2000;0.1506;-0.2103;
991.5000;0.1490;-0.2055;
991.8000;0.1490;-0.2079;
992.1000;0.1498;-0.1959;
992.4000;0.1514;-0.1912;
992.7000;0.1490;-0.1912;
993.0000;0.1595;-0.1625;
993.3000;0.1441;-0.2079;
993.6000;0.1522;-0.1912;
993.9000;0.1498;-0.1912;
994.2000;0.1449;-0.1959;
994.5000;0.1498;-0.1792;
994.8000;0.1490;-0.1864;
995.1000;0.1473;-0.1983;
995.4000;0.1498;-0.1936;
995.7000;0.1465;-0.2127;
996.0000;0.1481;-0.2103;
996.3000;0.1490;-0.2103;
996.6000;0.1490;-0.2103;
996.9000;0.1498;-0.2055;
997.2000;0.1498;-0.1983;
997.5000;0.1433;-0.2103;
997.8000;0.1481;-0.2079;
998.1000;0.1490;-0.2103;
998.4000;0.1506;-0.2103;
998.7000;0.1481;-0.2151;
999.0000;0.1465;-0.2175;
999.3000;0.1506;-0.2079;
999.6000;0.1481;-0.2103;
999.9000;0.1481;-0.2079;
1000.2000;0.1481;-0.2031;
1000.5000;0.1441;-0.2222;
1000.8000;0.1473;-0.2175;
1001.1000;0.1473;-0.2103;
1001.4000;0.1433;-0.2151;
1001.7000;0.1490;-0.1983;
1002.0000;0.1498;-0.1888;
1002.3000;0.1530;-0.1744;
1002.6000;0.1490;-0.1840;
1002.9000;0.1498;-0.1840;
1003.2000;0.1498;-0.1816;
1003.5000;0.1490;-0.1840;
1003.8000;0.1465;-0.1912;
1004.1000;0.1465;-0.1864;
1004.4000;0.1481;-0.1768;
1004.7000;0.1506;-0.1744;
1005.0000;0.1490;-0.1768;
1005.3000;0.1473;-0.1936;
1005.6000;0.1481;-0.1959;
1005.9000;0.1498;-0.1959;
1006.2000;0.1506;-0.1888;
1006.5000;0.1490;-0.1864;
1006.8000;0.1522;-0.1816;
1007.1000;0.1490;-0.1864;
1007.4000;0.1490;-0.1840;
1007.7000;0.1481;-0.1936;
1008.0000;0.1490;-0.1864;
1008.3000;0.1465;-0.1888;
1008.6000;0.1490;-0.1840;
1008.9000;0.1481;-0.1864;
1009.2000;0.1481;-0.1864;
1009.5000;0.1481;-0.1983;
1009.8000;0.1514;-0.1959;
1010.1000;0.1425;-0.2127;
1010.4000;0.1490;-0.1768;
1010.7000;0.1481;-0.1673;
1011.0000;0.1506;-0.1625;
1011.3000;0.1490;-0.1601;
1011.6000;0.1481;-0.1721;
1011.9000;0.1449;-0.1792;
1012.2000;0.1449;-0.1744;
1012.5000;0.1481;-0.1721;
1012.8000;0.1506;-0.1721;
1013.1000;0.1506;-0.1744;
1013.4000;0.1473;-0.1840;
1013.7000;0.1490;-0.1912;
1014.0000;0.1538;-0.1721;
1014.3000;0.1506;-0.1864;
1014.6000;0.1481;-0.1888;
1014.9000;0.1506;-0.1864;
1015.2000;0.1579;-0.1697;
1015.5000;0.1498;-0.1888;
1015.8000;0.1506;-0.1864;
1016.1000;0.1481;-0.1983;
1016.4000;0.1587;-0.1697;
1016.7000;0.1481;-0.1959;
1017.0000;0.1473;-0.1959;
1017.3000;0.1481;-0.1983;
1017.6000;0.1441;-0.2127;
1017.9000;0.1498;-0.2031;
1018.2000;0.1465;-0.2127;
1018.5000;0.1465;-0.2103;
1018.8000;0.1481;-0.2055;
1019.1000;0.1522;-0.1983;
1019.4000;0.1506;-0.2031;
1019.7000;0.1506;-0.2031;
1020.0000;0.1538;-0.1959;
1020.3000;0.1514;-0.2007;
1020.6000;0.1571;-0.1840;
1020.9000;0.1490;-0.2031;
1021.2000;0.1465;-0.2151;
1021.5000;0.1465;-0.2175;
1021.8000;0.1490;-0.2007;
1022.1000;0.1506;-0.2031;
1022.4000;0.1465;-0.2151;
1022.7000;0.1506;-0.2079;
1023.0000;0.1481;-0.2007;
1023.3000;0.1425;-0.2175;
1023.6000;0.1481;-0.2031;
1023.9000;0.1473;-0.2007;
1024.2000;0.1465;-0.2079;
1024.5000;0.1400;-0.2246;
1024.8000;0.1498;-0.2031;
1025.1000;0.1473;-0.2127;
1025.4000;0.1481;-0.2127;
1025.7000;0.1481;-0.2055;
1026.0000;0.1481;-0.2103;
1026.3000;0.1498;-0.2079;
1026.6000;0.1481;-0.2031;
1026.9000;0.1490;-0.2031;
1027.2000;0.1490;-0.2151;
1027.5000;0.1498;-0.2103;
1027.8000;0.1473;-0.2151;
1028.1000;0.1490;-0.2103;
1028.4000;0.1481;-0.2055;
1028.7000;0.1498;-0.2007;
1029.0000;0.1490;-0.1936;
1029.3000;0.1506;-0.1816;
1029.6000;0.1498;-0.1792;
1029.9000;0.1498;-0.1744;
1030.2000;0.1506;-0.1744;
1030.5000;0.1506;-0.1816;
1030.8000;0.1530;-0.1697;
1031.1000;0.1498;-0.1816;
1031.4000;0.1498;-0.1936;
1031.7000;0.1465;-0.2175;
1032.0000;0.1473;-0.2175;
1032.3000;0.1514;-0.2127;
1032.6000;0.1481;-0.2175;
1032.9000;0.1547;-0.1983;
1033.2000;0.1473;-0.2103;
1033.5000;0.1490;-0.2031;
1033.8000;0.1498;-0.1959;
1034.1000;0.1490;-0.1959;
1034.4000;0.1490;-0.1888;
1034.7000;0.1538;-0.1744;
1035.0000;0.1490;-0.1864;
1035.3000;0.1490;-0.1888;
1035.6000;0.1490;-0.1888;
1035.9000;0.1506;-0.1864;
1036.2000;0.1547;-0.1792;
1036.5000;0.1481;-0.1959;
1036.8000;0.1490;-0.1840;
1037.1000;0.1490;-0.1792;
1037.4000;0.1530;-0.1721;
1037.7000;0.1473;-0.1864;
1038.0000;0.1481;-0.1864;
1038.3000;0.1481;-0.1912;
1038.6000;0.1506;-0.1840;
1038.9000;0.1498;-0.1912;
1039.2000;0.1481;-0.1959;
1039.5000;0.1498;-0.1936;
1039.8000;0.1473;-0.1983;
1040.1000;0.1490;-0.1888;
1040.4000;0.1498;-0.1912;
1040.7000;0.1490;-0.1912;
1041.0000;0.1506;-0.1840;
1041.3000;0.1490;-0.1888;
1041.6000;0.1514;-0.1888;
1041.9000;0.1473;-0.1959;
1042.2000;0.1514;-0.1888;
1042.5000;0.1490;-0.1936;
1042.8000;0.1481;-0.1983;
1043.1000;0.1465;-0.1983;
1043.4000;0.1506;-0.1816;
1043.7000;0.1498;-0.1864;
1044.0000;0.1481;-0.1912;
1044.3000;0.1498;-0.1816;
1044.6000;0.1457;-0.1864;
1044.9000;0.1490;-0.1768;
1045.2000;0.1506;-0.1744;
1045.5000;0.1449;-0.1936;
1045.8000;0.1481;-0.1936;
1046.1000;0.1506;-0.1792;
1046.4000;0.1506;-0.1792;
1046.7000;0.1490;-0.1840;
1047.0000;0.1433;-0.1912;
1047.3000;0.1506;-0.1673;
1047.6000;0.1563;-0.1601;
1047.9000;0.1490;-0.1721;
1048.2000;0.1506;-0.1673;
1048.5000;0.1498;-0.1792;
1048.8000;0.1465;-0.1840;
1049.1000;0.1473;-0.1912;
1049.4000;0.1490;-0.1959;
1049.7000;0.1481;-0.1912;
1050.0000;0.1595;-0.1649;
1050.3000;0.1481;-0.2007;
1050.6000;0.1498;-0.2031;
1050.9000;0.1498;-0.2079;
1051.2000;0.1498;-0.2055;
1051.5000;0.1465;-0.2079;
1051.8000;0.1457;-0.2055;
1052.1000;0.1481;-0.1983;
1052.4000;0.1465;-0.2055;
1052.7000;0.1490;-0.1959;
1053.0000;0.1481;-0.2055;
1053.3000;0.1473;-0.2079;
1053.6000;0.1612;-0.1721;
1053.9000;0.1506;-0.2151;
1054.2000;0.1579;-0.1983;
1054.5000;0.1481;-0.2270;
1054.8000;0.1490;-0.2270;
1055.1000;0.1547;-0.2151;
1055.4000;0.1506;-0.2246;
1055.7000;0.1368;-0.2629;
1056.0000;0.1563;-0.2103;
1056.3000;0.1473;-0.2198;
1056.6000;0.1547;-0.1888;
1056.9000;0.1604;-0.1792;
1057.2000;0.1547;-0.2007;
1057.5000;0.1538;-0.2055;
1057.8000;0.1490;-0.2151;
1058.1000;0.1498;-0.2055;
1058.4000;0.1457;-0.2079;
1058.7000;0.1490;-0.2031;
1059.0000;0.1514;-0.1959;
1059.3000;0.1359;-0.2342;
1059.6000;0.1490;-0.1983;
1059.9000;0.1490;-0.1983;
1060.2000;0.1555;-0.1768;
1060.5000;0.1506;-0.1888;
1060.8000;0.1514;-0.1840;
1061.1000;0.1416;-0.2055;
1061.4000;0.1481;-0.1888;
1061.7000;0.1498;-0.1888;
1062.0000;0.1555;-0.1744;
1062.3000;0.1481;-0.2007;
1062.6000;0.1498;-0.1840;
1062.9000;0.1481;-0.1959;
1063.2000;0.1579;-0.1721;
1063.5000;0.1490;-0.1936;
1063.8000;0.1481;-0.1816;
1064.1000;0.1506;-0.1792;
1064.4000;0.1514;-0.1768;
1064.7000;0.1481;-0.1864;
1065.0000;0.1490;-0.1888;
1065.3000;0.1506;-0.1840;
1065.6000;0.1481;-0.1888;
1065.9000;0.1498;-0.1888;
1066.2000;0.1433;-0.2031;
1066.5000;0.1506;-0.1959;
1066.8000;0.1498;-0.2007;
1067.1000;0.1490;-0.2127;
1067.4000;0.1498;-0.2127;
1067.7000;0.1490;-0.2103;
1068.0000;0.1514;-0.2031;
1068.3000;0.1425;-0.2294;
1068.6000;0.1514;-0.2007;
1068.9000;0.1481;-0.2055;
1069.2000;0.1498;-0.2031;
1069.5000;0.1449;-0.2079;
1069.8000;0.1481;-0.2031;
1070.1000;0.1498;-0.1912;
1070.4000;0.1498;-0.1936;
1070.7000;0.1481;-0.1888;
1071.0000;0.1490;-0.1864;
1071.3000;0.1465;-0.2031;
1071.6000;0.1490;-0.1912;
1071.9000;0.1506;-0.1864;
1072.2000;0.1490;-0.1840;
1072.5000;0.1473;-0.1768;
1072.8000;0.1514;-0.1697;
1073.1000;0.1498;-0.1840;
1073.4000;0.1473;-0.1888;
1073.7000;0.1506;-0.1936;
1074.0000;0.1498;-0.1936;
1074.3000;0.1514;-0.1840;
1074.6000;0.1490;-0.1959;
1074.9000;0.1433;-0.2127;
1075.2000;0.1481;-0.2007;
1075.5000;0.1481;-0.1912;
1075.8000;0.1514;-0.1768;
1076.1000;0.1498;-0.1792;
1076.4000;0.1408;-0.2007;
1076.7000;0.1522;-0.1744;
1077.0000;0.1457;-0.1936;
1077.3000;0.1498;-0.1864;
1077.6000;0.1522;-0.1744;
1077.9000;0.1498;-0.1912;
1078.2000;0.1506;-0.1936;
1078.5000;0.1481;-0.1983;
1078.8000;0.1490;-0.1936;
1079.1000;0.1449;-0.2031;
1079.4000;0.1490;-0.1888;
1079.7000;0.1498;-0.1840;
1080.0000;0.1473;-0.2031;
1080.3000;0.1449;-0.1983;
1080.6000;0.1498;-0.1888;
1080.9000;0.1547;-0.1649;
1081.2000;0.1481;-0.1840;
1081.5000;0.1465;-0.1888;
1081.8000;0.1490;-0.1888;
1082.1000;0.1481;-0.1864;
1082.4000;0.1490;-0.1936;
1082.7000;0.1425;-0.2103;
1083.0000;0.1490;-0.1959;
1083.3000;0.1498;-0.1912;
1083.6000;0.1490;-0.1936;
1083.9000;0.1522;-0.1721;
1084.2000;0.1522;-0.1721;
1084.5000;0.1481;-0.1864;
1084.8000;0.1514;-0.1840;
1085.1000;0.1481;-0.1936;
1085.4000;0.1514;-0.1912;
1085.7000;0.1473;-0.2055;
1086.0000;0.1473;-0.2079;
1086.3000;0.1506;-0.2007;
1086.6000;0.1473;-0.2031;
1086.9000;0.1449;-0.2055;
1087.2000;0.1490;-0.1959;
1087.5000;0.1490;-0.1840;
1087.8000;0.1473;-0.1888;
1088.1000;0.1465;-0.1959;
1088.4000;0.1498;-0.1864;
1088.7000;0.1506;-0.1792;
1089.0000;0.1490;-0.1697;
1089.3000;0.1514;-0.1673;
1089.6000;0.1465;-0.1864;
1089.9000;0.1490;-0.1840;
1090.2000;0.1522;-0.1744;
1090.5000;0.1498;-0.1816;
1090.8000;0.1514;-0.1864;
1091.1000;0.1490;-0.1840;
1091.4000;0.1481;-0.1840;
1091.7000;0.1538;-0.1697;
1092.0000;0.1530;-0.1697;
1092.3000;0.1433;-0.2079;
1092.6000;0.1522;-0.1816;
1092.9000;0.1457;-0.2007;
1093.2000;0.1498;-0.1959;
1093.5000;0.1547;-0.1792;
1093.8000;0.1538;-0.1816;
1094.1000;0.1481;-0.1959;
1094.4000;0.1457;-0.1959;
1094.7000;0.1498;-0.1864;
1095.0000;0.1547;-0.1721;
1095.3000;0.1481;-0.1768;
1095.6000;0.1457;-0.1912;
1095.9000;0.1481;-0.1792;
1096.2000;0.1522;-0.1768;
1096.5000;0.1555;-0.1721;
1096.8000;0.1490;-0.1840;
1097.1000;0.1490;-0.1792;
1097.4000;0.1506;-0.1768;
1097.7000;0.1498;-0.1744;
1098.0000;0.1522;-0.1649;
1098.3000;0.1506;-0.1721;
1098.6000;0.1457;-0.1744;
1098.9000;0.1490;-0.1601;
1099.2000;0.1506;-0.1625;
1099.5000;0.1490;-0.1625;
1099.8000;0.1481;-0.1601;
1100.1000;0.1490;-0.1577;
1100.4000;0.1498;-0.1721;
1100.7000;0.1433;-0.1840;
1101.0000;0.1490;-0.1697;
1101.3000;0.1514;-0.1601;
1101.6000;0.1506;-0.1697;
1101.9000;0.1490;-0.1768;
1102.2000;0.1441;-0.1936;
1102.5000;0.1481;-0.1816;
1102.8000;0.1506;-0.1744;
1103.1000;0.1530;-0.1649;
1103.4000;0.1547;-0.1673;
1103.7000;0.1490;-0.1816;
1104.0000;0.1506;-0.1768;
1104.3000;0.1522;-0.1721;
1104.6000;0.1481;-0.1792;
1104.9000;0.1498;-0.1768;
1105.2000;0.1506;-0.1816;
1105.5000;0.1498;-0.1840;
1105.8000;0.1490;-0.1888;
1106.1000;0.1498;-0.1936;
1106.4000;0.1506;-0.1864;
1106.7000;0.1514;-0.1864;
1107.0000;0.1473;-0.1936;
1107.3000;0.1343;-0.2246;
1107.6000;0.1441;-0.2079;
1107.9000;0.1498;-0.1983;
1108.2000;0.1376;-0.2270;
1108.5000;0.1449;-0.1983;
1108.8000;0.1457;-0.1936;
1109.1000;0.1506;-0.1912;
1109.4000;0.1498;-0.1912;
1109.7000;0.1481;-0.1840;
1110.0000;0.1490;-0.1673;
1110.3000;0.1425;-0.1959;
1110.6000;0.1498;-0.1792;
1110.9000;0.1473;-0.1840;
1111.2000;0.1514;-0.1792;
1111.5000;0.1514;-0.1744;
1111.8000;0.1490;-0.1816;
1112.1000;0.1514;-0.1744;
1112.4000;0.1522;-0.1792;
1112.7000;0.1490;-0.1816;
1113.0000;0.1465;-0.1744;
1113.3000;0.1481;-0.1673;
1113.6000;0.1514;-0.1577;
1113.9000;0.1490;-0.1649;
1114.2000;0.1547;-0.1577;
1114.5000;0.1473;-0.1744;
1114.8000;0.1473;-0.1768;
1115.1000;0.1473;-0.1768;
1115.4000;0.1359;-0.2007;
1115.7000;0.1490;-0.1553;
1116.0000;0.1465;-0.1673;
1116.3000;0.1425;-0.1744;
1116.6000;0.1481;-0.1601;
1116.9000;0.1465;-0.1673;
1117.2000;0.1441;-0.1864;
1117.5000;0.1490;-0.1721;
1117.8000;0.1481;-0.1816;
1118.1000;0.1498;-0.1768;
1118.4000;0.1530;-0.1721;
1118.7000;0.1498;-0.1864;
1119.0000;0.1490;-0.1888;
1119.3000;0.1506;-0.1768;
1119.6000;0.1522;-0.1816;
1119.9000;0.1465;-0.1888;
1120.2000;0.1465;-0.1936;
1120.5000;0.1473;-0.1792;
1120.8000;0.1416;-0.2103;
1121.1000;0.1506;-0.1888;
1121.4000;0.1498;-0.1912;
1121.7000;0.1481;-0.2031;
1122.0000;0.1555;-0.1864;
1122.3000;0.1514;-0.1983;
1122.6000;0.1449;-0.2127;
1122.9000;0.1490;-0.2079;
1123.2000;0.1481;-0.2079;
1123.5000;0.1514;-0.1959;
1123.8000;0.1481;-0.1983;
1124.1000;0.1481;-0.2031;
1124.4000;0.1490;-0.1983;
1124.7000;0.1498;-0.1959;
1125.0000;0.1498;-0.1983;
1125.3000;0.1473;-0.2079;
1125.6000;0.1498;-0.1936;
1125.9000;0.1490;-0.1959;
1126.2000;0.1514;-0.1840;
1126.5000;0.1481;-0.2031;
1126.8000;0.1514;-0.1888;
1127.1000;0.1490;-0.1912;
1127.4000;0.1522;-0.1888;
1127.7000;0.1514;-0.1959;
1128.0000;0.1498;-0.2031;
1128.3000;0.1506;-0.2031;
1128.6000;0.1579;-0.1816;
1128.9000;0.1481;-0.1936;
1129.2000;0.1530;-0.1840;
1129.5000;0.1449;-0.2031;
1129.8000;0.1490;-0.2007;
1130.1000;0.1490;-0.2127;
1130.4000;0.1498;-0.2079;
1130.7000;0.1441;-0.2294;
1131.0000;0.1490;-0.2175;
1131.3000;0.1506;-0.2007;
1131.6000;0.1465;-0.2103;
1131.9000;0.1498;-0.2079;
1132.2000;0.1490;-0.2103;
1132.5000;0.1530;-0.1864;
1132.8000;0.1547;-0.1816;
1133.1000;0.1490;-0.1936;
1133.4000;0.1490;-0.2007;
1133.7000;0.1498;-0.2031;
1134.0000;0.1490;-0.2031;
1134.3000;0.1457;-0.2127;
1134.6000;0.1490;-0.2007;
1134.9000;0.1498;-0.1888;
1135.2000;0.1547;-0.1840;
1135.5000;0.1490;-0.1936;
1135.8000;0.1490;-0.2007;
1136.1000;0.1498;-0.1936;
1136.4000;0.1481;-0.1959;
1136.7000;0.1457;-0.1983;
1137.0000;0.1473;-0.1912;
1137.3000;0.1514;-0.1768;
1137.6000;0.1481;-0.1768;
1137.9000;0.1514;-0.1697;
1138.2000;0.1522;-0.1625;
1138.5000;0.1473;-0.1864;
1138.8000;0.1481;-0.1840;
1139.1000;0.1490;-0.1792;
1139.4000;0.1481;-0.1912;
1139.7000;0.1587;-0.1697;
1140.0000;0.1555;-0.1840;
1140.3000;0.1384;-0.2222;
1140.6000;0.1481;-0.1936;
1140.9000;0.1498;-0.1912;
1141.2000;0.1473;-0.1912;
1141.5000;0.1490;-0.1888;
1141.8000;0.1457;-0.2031;
1142.1000;0.1481;-0.1888;
1142.4000;0.1473;-0.1959;
1142.7000;0.1473;-0.2055;
1143.0000;0.1433;-0.2198;
1143.3000;0.1473;-0.2055;
1143.6000;0.1506;-0.2007;
1143.9000;0.1514;-0.1888;
1144.2000;0.1498;-0.1912;
1144.5000;0.1490;-0.1888;
1144.8000;0.1530;-0.1792;
1145.1000;0.1506;-0.1912;
1145.4000;0.1473;-0.1864;
1145.7000;0.1506;-0.1864;
1146.0000;0.1441;-0.2031;
1146.3000;0.1473;-0.1888;
1146.6000;0.1498;-0.1816;
1146.9000;0.1473;-0.1840;
1147.2000;0.1449;-0.1936;
1147.5000;0.1481;-0.1840;
1147.8000;0.1514;-0.1721;
1148.1000;0.1498;-0.1721;
1148.4000;0.1425;-0.1864;
1148.7000;0.1481;-0.1744;
1149.0000;0.1433;-0.1888;
1149.3000;0.1457;-0.1888;
1149.6000;0.1465;-0.1864;
1149.9000;0.1433;-0.1888;
1150.2000;0.1490;-0.1792;
1150.5000;0.1490;-0.1864;
1150.8000;0.1490;-0.1840;
1151.1000;0.1514;-0.1888;
1151.4000;0.1465;-0.1983;
1151.7000;0.1506;-0.1840;
1152.0000;0.1490;-0.1888;
1152.3000;0.1498;-0.1864;
1152.6000;0.1473;-0.1912;
1152.9000;0.1514;-0.1792;
1153.2000;0.1571;-0.1673;
1153.5000;0.1481;-0.1936;
1153.8000;0.1514;-0.1792;
1154.1000;0.1530;-0.1721;
1154.4000;0.1498;-0.1864;
1154.7000;0.1506;-0.1959;
1155.0000;0.1490;-0.2031;
1155.3000;0.1457;-0.2198;
1155.6000;0.1498;-0.2151;
1155.9000;0.1506;-0.2151;
1156.2000;0.1490;-0.2103;
1156.5000;0.1522;-0.1912;
1156.8000;0.1481;-0.2079;
1157.1000;0.1473;-0.2079;
1157.4000;0.1530;-0.1936;
1157.7000;0.1481;-0.2127;
1158.0000;0.1465;-0.2127;
1158.3000;0.1473;-0.2031;
1158.6000;0.1441;-0.2198;
1158.9000;0.1481;-0.2079;
1159.2000;0.1490;-0.2055;
1159.5000;0.1490;-0.2007;
1159.8000;0.1481;-0.2079;
1160.1000;0.1481;-0.2103;
1160.4000;0.1481;-0.2127;
1160.7000;0.1506;-0.2103;
1161.0000;0.1506;-0.2031;
1161.3000;0.1522;-0.1983;
1161.6000;0.1481;-0.2103;
1161.9000;0.1490;-0.2103;
1162.2000;0.1490;-0.2103;
1162.5000;0.1522;-0.2031;
1162.8000;0.1490;-0.2079;
1163.1000;0.1506;-0.2055;
1163.4000;0.1490;-0.2031;
1163.7000;0.1547;-0.1864;
1164.0000;0.1490;-0.2007;
1164.3000;0.1473;-0.2055;
1164.6000;0.1595;-0.1840;
1164.9000;0.1506;-0.2079;
1165.2000;0.1514;-0.2151;
1165.5000;0.1481;-0.2222;
1165.8000;0.1506;-0.2103;
1166.1000;0.1481;-0.2127;
1166.4000;0.1392;-0.2342;
1166.7000;0.1506;-0.2055;
1167.0000;0.1498;-0.2031;
1167.3000;0.1490;-0.2103;
1167.6000;0.1490;-0.2055;
1167.9000;0.1514;-0.2031;
1168.2000;0.1498;-0.2007;
1168.5000;0.1481;-0.2031;
1168.8000;0.1490;-0.2031;
1169.1000;0.1563;-0.1816;
1169.4000;0.1408;-0.2198;
1169.7000;0.1506;-0.1983;
1170.0000;0.1555;-0.1864;
1170.3000;0.1473;-0.2055;
1170.6000;0.1490;-0.2103;
1170.9000;0.1490;-0.2198;
1171.2000;0.1506;-0.2103;
1171.5000;0.1473;-0.2103;
1171.8000;0.1506;-0.1983;
1172.1000;0.1392;-0.2294;
1172.4000;0.1465;-0.2031;
1172.7000;0.1498;-0.1936;
1173.0000;0.1538;-0.1816;
1173.3000;0.1473;-0.1959;
1173.6000;0.1481;-0.1912;
1173.9000;0.1514;-0.1936;
1174.2000;0.1587;-0.1744;
1174.5000;0.1506;-0.1983;
1174.8000;0.1408;-0.2151;
1175.1000;0.1441;-0.2031;
1175.4000;0.1506;-0.1816;
1175.7000;0.1506;-0.1864;
1176.0000;0.1481;-0.1840;
1176.3000;0.1473;-0.1816;
1176.6000;0.1490;-0.1840;
1176.9000;0.1506;-0.1768;
1177.2000;0.1490;-0.1888;
1177.5000;0.1498;-0.1888;
1177.8000;0.1473;-0.1959;
1178.1000;0.1514;-0.1912;
1178.4000;0.1481;-0.2007;
1178.7000;0.1473;-0.2055;
1179.0000;0.1506;-0.1912;
1179.3000;0.1473;-0.1912;
1179.6000;0.1490;-0.1888;
1179.9000;0.1514;-0.1768;
1180.2000;0.1441;-0.1983;
1180.5000;0.1490;-0.1840;
1180.8000;0.1490;-0.1936;
1181.1000;0.1457;-0.2103;
1181.4000;0.1481;-0.2079;
1181.7000;0.1481;-0.2055;
1182.0000;0.1481;-0.1983;
1182.3000;0.1433;-0.2055;
1182.6000;0.1490;-0.1912;
1182.9000;0.1473;-0.1936;
1183.2000;0.1481;-0.1840;
1183.5000;0.1498;-0.1864;
1183.8000;0.1498;-0.1840;
1184.1000;0.1506;-0.1816;
1184.4000;0.1490;-0.1936;
1184.7000;0.1514;-0.1912;
1185.0000;0.1530;-0.1888;
1185.3000;0.1490;-0.1959;
1185.6000;0.1490;-0.1983;
1185.9000;0.1481;-0.1936;
1186.2000;0.1498;-0.1864;
1186.5000;0.1506;-0.1912;
1186.8000;0.1457;-0.2079;
1187.1000;0.1555;-0.1816;
1187.4000;0.1481;-0.1983;
1187.7000;0.1522;-0.1864;
1188.0000;0.1498;-0.1959;
1188.3000;0.1555;-0.1864;
1188.6000;0.1530;-0.1864;
1188.9000;0.1490;-0.2031;
1189.2000;0.1473;-0.1983;
1189.5000;0.1498;-0.1936;
1189.8000;0.1481;-0.1983;
1190.1000;0.1481;-0.2055;
1190.4000;0.1571;-0.1792;
1190.7000;0.1514;-0.1840;
1191.0000;0.1522;-0.1816;
1191.3000;0.1465;-0.1864;
1191.6000;0.1498;-0.1840;
1191.9000;0.1481;-0.1912;
1192.2000;0.1490;-0.1864;
1192.5000;0.1481;-0.1983;
1192.8000;0.1498;-0.1959;
1193.1000;0.1571;-0.1792;
1193.4000;0.1481;-0.1936;
1193.7000;0.1408;-0.2079;
1194.0000;0.1457;-0.1936;
1194.3000;0.1498;-0.1744;
1194.6000;0.1498;-0.1721;
1194.9000;0.1433;-0.1936;
1195.2000;0.1506;-0.1816;
1195.5000;0.1506;-0.1840;
1195.8000;0.1481;-0.1912;
1196.1000;0.1555;-0.1721;
1196.4000;0.1433;-0.1959;
1196.7000;0.1490;-0.1888;
1197.0000;0.1506;-0.1888;
1197.3000;0.1571;-0.1697;
1197.6000;0.1555;-0.1721;
1197.9000;0.1490;-0.1864;
1198.2000;0.1506;-0.1744;
1198.5000;0.1490;-0.1744;
1198.8000;0.1481;-0.1697;
1199.1000;0.1473;-0.1721;
1199.4000;0.1481;-0.1673;
1199.7000;0.1481;-0.1649;
1200.0000;0.1490;-0.1673;
1200.3000;0.1514;-0.1721;
1200.6000;0.1481;-0.1864;
1200.9000;0.1498;-0.1864;
1201.2000;0.1563;-0.1744;
1201.5000;0.1473;-0.1792;
1201.8000;0.1473;-0.1744;
1202.1000;0.1498;-0.1768;
1202.4000;0.1490;-0.1840;
1202.7000;0.1481;-0.1888;
1203.0000;0.1498;-0.1840;
1203.3000;0.1498;-0.1792;
1203.6000;0.1530;-0.1768;
1203.9000;0.1498;-0.1864;
1204.2000;0.1498;-0.1912;
1204.5000;0.1506;-0.1959;
1204.8000;0.1481;-0.2031;
1205.1000;0.1498;-0.2007;
1205.4000;0.1465;-0.2103;
1205.7000;0.1498;-0.2031;
1206.0000;0.1506;-0.2079;
1206.3000;0.1522;-0.1912;
1206.6000;0.1490;-0.2007;
1206.9000;0.1498;-0.1959;
1207.2000;0.1498;-0.2031;
1207.5000;0.1506;-0.2031;
1207.8000;0.1506;-0.1959;
1208.1000;0.1530;-0.1936;
1208.4000;0.1441;-0.2127;
1208.7000;0.1457;-0.2103;
1209.0000;0.1522;-0.1959;
1209.3000;0.1473;-0.2079;
1209.6000;0.1530;-0.1888;
1209.9000;0.1506;-0.1888;
1210.2000;0.1506;-0.1840;
1210.5000;0.1490;-0.1912;
1210.8000;0.1481;-0.1888;
1211.1000;0.1449;-0.2079;
1211.4000;0.1547;-0.1936;
1211.7000;0.1571;-0.1912;
1212.0000;0.1490;-0.2151;
1212.3000;0.1579;-0.1792;
1212.6000;0.1449;-0.2127;
1212.9000;0.1465;-0.2031;
1213.2000;0.1481;-0.1959;
1213.5000;0.1490;-0.1888;
1213.8000;0.1506;-0.1888;
1214.1000;0.1481;-0.1959;
1214.4000;0.1506;-0.1983;
1214.7000;0.1433;-0.2198;
1215.0000;0.1498;-0.2007;
1215.3000;0.1473;-0.2007;
1215.6000;0.1473;-0.1959;
1215.9000;0.1465;-0.2055;
1216.2000;0.1498;-0.2031;
1216.5000;0.1490;-0.2055;
1216.8000;0.1481;-0.1936;
1217.1000;0.1490;-0.1959;
1217.4000;0.1481;-0.1959;
1217.7000;0.1506;-0.1959;
1218.0000;0.1514;-0.2007;
1218.3000;0.1465;-0.2103;
1218.6000;0.1490;-0.2007;
1218.9000;0.1506;-0.1959;
1219.2000;0.1490;-0.1983;
1219.5000;0.1490;-0.2055;
1219.8000;0.1498;-0.2007;
1220.1000;0.1514;-0.1959;
1220.4000;0.1498;-0.2031;
1220.7000;0.1514;-0.2031;
1221.0000;0.1506;-0.2127;
1221.3000;0.1473;-0.2151;
1221.6000;0.1481;-0.2175;
1221.9000;0.1481;-0.2127;
1222.2000;0.1465;-0.2246;
1222.5000;0.1595;-0.1840;
1222.8000;0.1490;-0.2103;
1223.1000;0.1481;-0.2055;
1223.4000;0.1465;-0.2079;
1223.7000;0.1481;-0.2007;
1224.0000;0.1498;-0.2055;
1224.3000;0.1498;-0.2151;
1224.6000;0.1490;-0.2127;
1224.9000;0.1490;-0.2055;
1225.2000;0.1530;-0.2007;
1225.5000;0.1465;-0.2175;
1225.8000;0.1416;-0.2366;
1226.1000;0.1490;-0.2222;
1226.4000;0.1465;-0.2246;
1226.7000;0.1481;-0.2127;
1227.0000;0.1465;-0.2103;
1227.3000;0.1473;-0.1983;
1227.6000;0.1473;-0.1888;
1227.9000;0.1498;-0.1840;
1228.2000;0.1498;-0.1888;
1228.5000;0.1522;-0.1840;
1228.8000;0.1481;-0.1888;
1229.1000;0.1498;-0.1816;
1229.4000;0.1490;-0.1840;
1229.7000;0.1490;-0.1768;
1230.0000;0.1473;-0.1792;
1230.3000;0.1506;-0.1721;
1230.6000;0.1416;-0.2007;
1230.9000;0.1473;-0.1816;
1231.2000;0.1498;-0.1840;
1231.5000;0.1506;-0.1888;
1231.8000;0.1498;-0.1864;
1232.1000;0.1498;-0.1816;
1232.4000;0.1473;-0.1816;
1232.7000;0.1571;-0.1601;
1233.0000;0.1490;-0.1816;
1233.3000;0.1522;-0.1768;
1233.6000;0.1498;-0.1840;
1233.9000;0.1481;-0.1792;
1234.2000;0.1473;-0.1816;
1234.5000;0.1514;-0.1673;
1234.8000;0.1498;-0.1697;
1235.1000;0.1490;-0.1721;
1235.4000;0.1506;-0.1697;
1235.7000;0.1506;-0.1649;
1236.0000;0.1425;-0.1936;
1236.3000;0.1571;-0.1577;
1236.6000;0.1498;-0.1768;
1236.9000;0.1506;-0.1816;
1237.2000;0.1498;-0.1840;
1237.5000;0.1498;-0.1816;
1237.8000;0.1481;-0.1912;
1238.1000;0.1538;-0.1744;
1238.4000;0.1481;-0.1840;
1238.7000;0.1490;-0.1840;
1239.0000;0.1563;-0.1601;
1239.3000;0.1481;-0.1816;
1239.6000;0.1490;-0.1721;
1239.9000;0.1481;-0.1816;
1240.2000;0.1481;-0.1792;
1240.5000;0.1506;-0.1721;
1240.8000;0.1506;-0.1697;
1241.1000;0.1498;-0.1840;
1241.4000;0.1514;-0.1840;
1241.7000;0.1506;-0.1840;
1242.0000;0.1490;-0.1888;
1242.3000;0.1522;-0.1864;
1242.6000;0.1506;-0.1959;
1242.9000;0.1514;-0.1936;
1243.2000;0.1522;-0.1912;
1243.5000;0.1490;-0.1983;
1243.8000;0.1506;-0.1840;
1244.1000;0.1514;-0.1840;
1244.4000;0.1498;-0.1983;
1244.7000;0.1376;-0.2342;
1245.0000;0.1498;-0.1959;
1245.3000;0.1563;-0.1768;
1245.6000;0.1490;-0.1983;
1245.9000;0.1498;-0.1959;
1246.2000;0.1498;-0.1936;
1246.5000;0.1473;-0.1959;
1246.8000;0.1490;-0.1888;
1247.1000;0.1514;-0.1792;
1247.4000;0.1465;-0.1912;
1247.7000;0.1498;-0.1864;
1248.0000;0.1490;-0.1864;
1248.3000;0.1555;-0.1697;
1248.6000;0.1490;-0.1864;
1248.9000;0.1490;-0.1959;
1249.2000;0.1465;-0.1959;
1249.5000;0.1490;-0.1912;
1249.8000;0.1514;-0.1959;
1250.1000;0.1490;-0.2007;
1250.4000;0.1514;-0.1912;
1250.7000;0.1481;-0.2007;
1251.0000;0.1498;-0.1959;
1251.3000;0.1481;-0.1888;
1251.6000;0.1498;-0.1888;
1251.9000;0.1465;-0.2007;
1252.2000;0.1506;-0.1983;
1252.5000;0.1481;-0.1959;
1252.8000;0.1506;-0.1936;
1253.1000;0.1465;-0.1936;
1253.4000;0.1490;-0.1840;
1253.7000;0.1498;-0.1888;
1254.0000;0.1481;-0.1864;
1254.3000;0.1481;-0.1888;
1254.6000;0.1498;-0.1959;
1254.9000;0.1473;-0.1936;
1255.2000;0.1490;-0.1936;
1255.5000;0.1498;-0.1888;
1255.8000;0.1490;-0.1864;
1256.1000;0.1481;-0.1888;
1256.4000;0.1514;-0.1816;
1256.7000;0.1433;-0.1936;
1257.0000;0.1498;-0.1792;
1257.3000;0.1506;-0.1840;
1257.6000;0.1498;-0.1840;
1257.9000;0.1473;-0.1888;
1258.2000;0.1490;-0.1792;
1258.5000;0.1498;-0.1768;
1258.8000;0.1498;-0.1744;
1259.1000;0.1506;-0.1816;
1259.4000;0.1604;-0.1625;
1259.7000;0.1441;-0.2031;
1260.0000;0.1498;-0.1912;
1260.3000;0.1506;-0.1888;
1260.6000;0.1490;-0.1888;
1260.9000;0.1530;-0.1816;
1261.2000;0.1481;-0.1936;
1261.5000;0.1465;-0.1983;
1261.8000;0.1506;-0.1936;
1262.1000;0.1433;-0.2079;
1262.4000;0.1563;-0.1649;
1262.7000;0.1506;-0.1792;
1263.0000;0.1449;-0.1936;
1263.3000;0.1481;-0.1864;
1263.6000;0.1473;-0.1888;
1263.9000;0.1490;-0.1744;
1264.2000;0.1481;-0.1721;
1264.5000;0.1547;-0.1553;
1264.8000;0.1449;-0.1840;
1265.1000;0.1514;-0.1673;
1265.4000;0.1473;-0.1816;
1265.7000;0.1506;-0.1744;
1266.0000;0.1571;-0.1697;
1266.3000;0.1457;-0.1912;
1266.6000;0.1481;-0.1936;
1266.9000;0.1555;-0.1721;
1267.2000;0.1457;-0.2007;
1267.5000;0.1457;-0.2007;
1267.8000;0.1490;-0.1864;
1268.1000;0.1473;-0.1983;
1268.4000;0.1514;-0.1864;
1268.7000;0.1473;-0.2007;
1269.0000;0.1498;-0.1936;
1269.3000;0.1473;-0.1983;
1269.6000;0.1498;-0.2007;
1269.9000;0.1376;-0.2294;
1270.2000;0.1441;-0.2031;
1270.5000;0.1457;-0.1959;
1270.8000;0.1457;-0.1912;
1271.1000;0.1481;-0.1816;
1271.4000;0.1490;-0.1744;
1271.7000;0.1490;-0.1697;
1272.0000;0.1538;-0.1553;
1272.3000;0.1530;-0.1577;
1272.6000;0.1498;-0.1697;
1272.9000;0.1498;-0.1768;
1273.2000;0.1376;-0.2031;
1273.5000;0.1490;-0.1768;
1273.8000;0.1490;-0.1744;
1274.1000;0.1506;-0.1768;
1274.4000;0.1457;-0.1983;
1274.7000;0.1514;-0.1840;
1275.0000;0.1481;-0.1888;
1275.3000;0.1514;-0.1816;
1275.6000;0.1514;-0.1792;
1275.9000;0.1522;-0.1792;
1276.2000;0.1498;-0.1816;
1276.5000;0.1506;-0.1864;
1276.8000;0.1522;-0.1816;
1277.1000;0.1465;-0.1912;
1277.4000;0.1481;-0.1959;
1277.7000;0.1498;-0.1864;
1278.0000;0.1490;-0.1816;
1278.3000;0.1473;-0.1816;
1278.6000;0.1563;-0.1601;
1278.9000;0.1490;-0.1792;
1279.2000;0.1473;-0.1792;
1279.5000;0.1514;-0.1744;
1279.8000;0.1506;-0.1888;
1280.1000;0.1481;-0.1983;
1280.4000;0.1441;-0.2127;
1280.7000;0.1506;-0.2127;
1281.0000;0.1547;-0.2055;
1281.3000;0.1481;-0.2222;
1281.6000;0.1433;-0.2437;
1281.9000;0.1514;-0.2390;
1282.2000;0.1506;-0.2390;
1282.5000;0.1481;-0.2342;
1282.8000;0.1473;-0.2366;
1283.1000;0.1490;-0.2270;
1283.4000;0.1514;-0.2151;
1283.7000;0.1457;-0.2294;
1284.0000;0.1498;-0.2079;
1284.3000;0.1498;-0.2103;
1284.6000;0.1473;-0.2103;
1284.9000;0.1506;-0.2079;
1285.2000;0.1498;-0.2175;
1285.5000;0.1481;-0.2198;
1285.8000;0.1587;-0.1864;
1286.1000;0.1481;-0.2079;
1286.4000;0.1481;-0.2103;
1286.7000;0.1506;-0.1983;
1287.0000;0.1490;-0.2031;
1287.3000;0.1481;-0.2127;
1287.6000;0.1425;-0.2246;
1287.9000;0.1490;-0.2103;
1288.2000;0.1490;-0.2055;
1288.5000;0.1481;-0.2007;
1288.8000;0.1481;-0.2055;
1289.1000;0.1506;-0.2055;
1289.4000;0.1457;-0.2103;
1289.7000;0.1514;-0.1888;
1290.0000;0.1481;-0.2031;
1290.3000;0.1490;-0.1959;
1290.6000;0.1465;-0.1936;
1290.9000;0.1449;-0.1959;
1291.2000;0.1498;-0.1864;
1291.5000;0.1530;-0.1744;
1291.8000;0.1457;-0.1864;
1292.1000;0.1481;-0.1792;
1292.4000;0.1490;-0.1768;
1292.7000;0.1506;-0.1744;
1293.0000;0.1481;-0.1768;
1293.3000;0.1490;-0.1840;
1293.6000;0.1481;-0.1936;
1293.9000;0.1449;-0.2007;
1294.2000;0.1490;-0.1888;
1294.5000;0.1498;-0.1840;
1294.8000;0.1465;-0.1888;
1295.1000;0.1457;-0.1936;
1295.4000;0.1547;-0.1697;
1295.7000;0.1457;-0.1936;
1296.0000;0.1498;-0.1816;
1296.3000;0.1514;-0.1864;
1296.6000;0.1481;-0.1912;
1296.9000;0.1490;-0.1840;
1297.2000;0.1441;-0.1983;
1297.5000;0.1514;-0.1744;
1297.8000;0.1465;-0.1792;
1298.1000;0.1514;-0.1792;
1298.4000;0.1498;-0.1888;
1298.7000;0.1498;-0.1864;
1299.0000;0.1490;-0.1816;
1299.3000;0.1465;-0.1888;
1299.6000;0.1506;-0.1768;
1299.9000;0.1506;-0.1721;
1300.2000;0.1490;-0.1768;
1300.5000;0.1465;-0.1936;
1300.8000;0.1465;-0.1888;
1301.1000;0.1514;-0.1792;
1301.4000;0.1514;-0.1768;
1301.7000;0.1465;-0.1912;
1302.0000;0.1473;-0.1959;
1302.3000;0.1481;-0.1936;
1302.6000;0.1506;-0.1912;
1302.9000;0.1498;-0.1864;
1303.2000;0.1465;-0.1912;
1303.5000;0.1481;-0.1959;
1303.8000;0.1506;-0.1959;
1304.1000;0.1514;-0.2031;
1304.4000;0.1538;-0.2007;
1304.7000;0.1392;-0.2342;
1305.0000;0.1481;-0.2127;
1305.3000;0.1433;-0.2198;
1305.6000;0.1604;-0.1792;
1305.9000;0.1514;-0.2079;
1306.2000;0.1490;-0.2198;
1306.5000;0.1392;-0.2342;
1306.8000;0.1490;-0.2007;
1307.1000;0.1506;-0.1959;
1307.4000;0.1457;-0.2007;
1307.7000;0.1490;-0.1936;
1308.0000;0.1490;-0.1888;
1308.3000;0.1506;-0.1840;
1308.6000;0.1481;-0.1936;
1308.9000;0.1473;-0.1983;
1309.2000;0.1473;-0.1912;
1309.5000;0.1473;-0.1936;
1309.8000;0.1490;-0.1888;
1310.1000;0.1490;-0.1840;
1310.4000;0.1490;-0.1816;
1310.7000;0.1481;-0.1888;
1311.0000;0.1506;-0.1816;
1311.3000;0.1506;-0.1888;
1311.6000;0.1498;-0.1959;
1311.9000;0.1506;-0.1816;
1312.2000;0.1490;-0.1840;
1312.5000;0.1490;-0.1888;
1312.8000;0.1490;-0.1912;
1313.1000;0.1522;-0.1912;
1313.4000;0.1506;-0.1983;
1313.7000;0.1490;-0.2031;
1314.0000;0.1498;-0.1983;
1314.3000;0.1457;-0.2127;
1314.6000;0.1490;-0.2031;
1314.9000;0.1498;-0.2007;
1315.2000;0.1498;-0.1983;
1315.5000;0.1514;-0.1959;
1315.8000;0.1384;-0.2390;
1316.1000;0.1490;-0.2103;
1316.4000;0.1514;-0.2103;
1316.7000;0.1547;-0.2055;
1317.0000;0.1498;-0.2198;
1317.3000;0.1465;-0.2246;
1317.6000;0.1579;-0.1936;
1317.9000;0.1481;-0.2198;
1318.2000;0.1498;-0.2055;
1318.5000;0.1481;-0.2127;
1318.8000;0.1481;-0.2007;
1319.1000;0.1473;-0.2007;
1319.4000;0.1514;-0.1936;
1319.7000;0.1490;-0.1912;
1320.0000;0.1490;-0.1840;
1320.3000;0.1490;-0.1888;
1320.6000;0.1481;-0.1983;
1320.9000;0.1481;-0.2031;
1321.2000;0.1514;-0.2007;
1321.5000;0.1465;-0.2103;
1321.8000;0.1481;-0.2055;
1322.1000;0.1498;-0.2055;
1322.4000;0.1522;-0.1936;
1322.7000;0.1612;-0.1649;
1323.0000;0.1490;-0.2007;
1323.3000;0.1514;-0.2055;
1323.6000;0.1506;-0.1959;
1323.9000;0.1490;-0.1983;
1324.2000;0.1506;-0.1983;
1324.5000;0.1490;-0.1959;
1324.8000;0.1514;-0.1840;
1325.1000;0.1498;-0.1959;
1325.4000;0.1449;-0.2175;
1325.7000;0.1498;-0.2127;
1326.0000;0.1327;-0.2581;
1326.3000;0.1481;-0.2151;
1326.6000;0.1506;-0.2007;
1326.9000;0.1506;-0.2007;
1327.2000;0.1522;-0.1983;
1327.5000;0.1449;-0.2198;
1327.8000;0.1465;-0.2079;
1328.1000;0.1506;-0.1959;
1328.4000;0.1490;-0.2007;
1328.7000;0.1490;-0.2079;
1329.0000;0.1522;-0.1959;
1329.3000;0.1425;-0.2246;
1329.6000;0.1481;-0.2103;
1329.9000;0.1449;-0.2103;
1330.2000;0.1481;-0.2055;
1330.5000;0.1425;-0.2127;
1330.8000;0.1473;-0.1983;
1331.1000;0.1506;-0.1959;
1331.4000;0.1514;-0.2055;
1331.7000;0.1498;-0.2151;
1332.0000;0.1490;-0.2079;
1332.3000;0.1481;-0.2055;
1332.6000;0.1481;-0.2151;
1332.9000;0.1490;-0.2103;
1333.2000;0.1473;-0.2175;
1333.5000;0.1498;-0.2031;
1333.8000;0.1498;-0.1936;
1334.1000;0.1498;-0.1888;
1334.4000;0.1498;-0.1936;
1334.7000;0.1498;-0.1959;
1335.0000;0.1506;-0.1864;
1335.3000;0.1506;-0.1888;
1335.6000;0.1490;-0.1888;
1335.9000;0.1498;-0.1864;
1336.2000;0.1490;-0.1912;
1336.5000;0.1522;-0.1912;
1336.8000;0.1506;-0.2007;
1337.1000;0.1506;-0.1983;
1337.4000;0.1506;-0.1912;
1337.7000;0.1473;-0.2007;
1338.0000;0.1514;-0.1983;
1338.3000;0.1498;-0.1983;
1338.6000;0.1490;-0.1864;
1338.9000;0.1522;-0.1840;
1339.2000;0.1538;-0.1864;
1339.5000;0.1498;-0.1936;
1339.8000;0.1498;-0.1912;
1340.1000;0.1498;-0.1840;
1340.4000;0.1514;-0.1816;
1340.7000;0.1498;-0.1744;
1341.0000;0.1530;-0.1673;
1341.3000;0.1351;-0.2151;
1341.6000;0.1506;-0.1721;
1341.9000;0.1506;-0.1744;
1342.2000;0.1481;-0.1768;
1342.5000;0.1490;-0.1744;
1342.8000;0.1514;-0.1697;
1343.1000;0.1481;-0.1721;
1343.4000;0.1457;-0.1864;
1343.7000;0.1498;-0.1744;
1344.0000;0.1514;-0.1768;
1344.3000;0.1498;-0.1864;
1344.6000;0.1481;-0.1912;
1344.9000;0.1490;-0.1936;
1345.2000;0.1514;-0.1864;
1345.5000;0.1514;-0.1840;
1345.8000;0.1498;-0.1816;
1346.1000;0.1514;-0.1816;
1346.4000;0.1490;-0.1959;
1346.7000;0.1473;-0.1936;
1347.0000;0.1506;-0.1792;
1347.3000;0.1473;-0.1959;
1347.6000;0.1473;-0.1983;
1347.9000;0.1506;-0.1936;
1348.2000;0.1514;-0.1912;
1348.5000;0.1506;-0.1912;
1348.8000;0.1473;-0.1959;
1349.1000;0.1490;-0.1912;
1349.4000;0.1506;-0.1864;
1349.7000;0.1465;-0.2055;
1350.0000;0.1481;-0.1936;
1350.3000;0.1506;-0.1864;
1350.6000;0.1506;-0.1864;
1350.9000;0.1522;-0.1792;
1351.2000;0.1473;-0.1864;
1351.5000;0.1449;-0.1912;
1351.8000;0.1481;-0.1792;
1352.1000;0.1498;-0.1744;
1352.4000;0.1490;-0.1721;
1352.7000;0.1457;-0.1792;
1353.0000;0.1498;-0.1768;
1353.3000;0.1490;-0.1936;
1353.6000;0.1506;-0.1983;
1353.9000;0.1490;-0.2007;
1354.2000;0.1514;-0.1936;
1354.5000;0.1514;-0.1912;
1354.8000;0.1433;-0.2198;
1355.1000;0.1498;-0.2055;
1355.4000;0.1481;-0.2103;
1355.7000;0.1498;-0.2127;
1356.0000;0.1498;-0.2079;
1356.3000;0.1498;-0.2079;
1356.6000;0.1392;-0.2342;
1356.9000;0.1490;-0.2103;
1357.2000;0.1506;-0.2055;
1357.5000;0.1473;-0.2079;
1357.8000;0.1473;-0.2079;
1358.1000;0.1498;-0.2031;
1358.4000;0.1514;-0.1936;
1358.7000;0.1457;-0.2007;
1359.0000;0.1481;-0.2055;
1359.3000;0.1522;-0.1912;
1359.6000;0.1498;-0.1912;
1359.9000;0.1498;-0.1864;
1360.2000;0.1481;-0.1936;
1360.5000;0.1465;-0.2031;
1360.8000;0.1538;-0.1840;
1361.1000;0.1514;-0.1840;
1361.4000;0.1490;-0.1768;
1361.7000;0.1473;-0.1864;
1362.0000;0.1506;-0.1792;
1362.3000;0.1416;-0.2031;
1362.6000;0.1498;-0.1768;
1362.9000;0.1490;-0.1744;
1363.2000;0.1457;-0.1864;
1363.5000;0.1481;-0.1816;
1363.8000;0.1490;-0.1744;
1364.1000;0.1481;-0.1792;
1364.4000;0.1506;-0.1649;
1364.7000;0.1481;-0.1673;
1365.0000;0.1465;-0.1768;
1365.3000;0.1465;-0.1864;
1365.6000;0.1498;-0.1936;
1365.9000;0.1498;-0.2055;
1366.2000;0.1481;-0.2055;
1366.5000;0.1498;-0.2055;
1366.8000;0.1498;-0.1983;
1367.1000;0.1473;-0.2175;
1367.4000;0.1498;-0.2079;
1367.7000;0.1506;-0.1983;
1368.0000;0.1490;-0.2007;
1368.3000;0.1514;-0.2031;
1368.6000;0.1498;-0.2127;
1368.9000;0.1481;-0.2055;
1369.2000;0.1481;-0.2055;
1369.5000;0.1498;-0.2175;
1369.8000;0.1522;-0.2031;
1370.1000;0.1498;-0.2079;
1370.4000;0.1481;-0.1959;
1370.7000;0.1490;-0.1912;
1371.0000;0.1490;-0.1936;
1371.3000;0.1498;-0.1983;
1371.6000;0.1506;-0.1959;
1371.9000;0.1481;-0.2103;
1372.2000;0.1490;-0.2103;
1372.5000;0.1481;-0.2055;
1372.8000;0.1498;-0.2031;
1373.1000;0.1481;-0.2031;
1373.4000;0.1473;-0.2031;
1373.7000;0.1490;-0.1983;
1374.0000;0.1465;-0.2007;
1374.3000;0.1481;-0.2031;
1374.6000;0.1384;-0.2318;
1374.9000;0.1514;-0.1912;
1375.2000;0.1530;-0.1864;
1375.5000;0.1498;-0.1959;
1375.8000;0.1490;-0.1936;
1376.1000;0.1506;-0.1888;
1376.4000;0.1490;-0.1959;
1376.7000;0.1555;-0.1768;
1377.0000;0.1506;-0.1959;
1377.3000;0.1481;-0.1936;
1377.6000;0.1514;-0.1840;
1377.9000;0.1538;-0.1744;
1378.2000;0.1498;-0.1864;
1378.5000;0.1473;-0.1912;
1378.8000;0.1416;-0.2031;
1379.1000;0.1481;-0.1816;
1379.4000;0.1490;-0.1792;
1379.7000;0.1498;-0.1792;
1380.0000;0.1490;-0.1816;
1380.3000;0.1498;-0.1816;
1380.6000;0.1490;-0.1840;
1380.9000;0.1490;-0.1864;
1381.2000;0.1498;-0.1816;
1381.5000;0.1506;-0.1840;
1381.8000;0.1498;-0.1864;
1382.1000;0.1473;-0.1816;
1382.4000;0.1473;-0.1912;
1382.7000;0.1481;-0.1959;
1383.0000;0.1473;-0.1936;
1383.3000;0.1498;-0.1912;
1383.6000;0.1490;-0.1888;
1383.9000;0.1457;-0.2031;
1384.2000;0.1449;-0.2055;
1384.5000;0.1498;-0.1864;
1384.8000;0.1441;-0.1936;
1385.1000;0.1481;-0.1864;
1385.4000;0.1514;-0.1673;
1385.7000;0.1473;-0.1697;
1386.0000;0.1506;-0.1625;
1386.3000;0.1481;-0.1768;
1386.6000;0.1506;-0.1721;
1386.9000;0.1481;-0.1816;
1387.2000;0.1547;-0.1673;
1387.5000;0.1481;-0.1840;
1387.8000;0.1481;-0.1816;
1388.1000;0.1514;-0.1768;
1388.4000;0.1473;-0.1888;
1388.7000;0.1490;-0.1816;
1389.0000;0.1498;-0.1840;
1389.3000;0.1490;-0.1792;
1389.6000;0.1506;-0.1744;
1389.9000;0.1473;-0.1816;
1390.2000;0.1408;-0.2007;
1390.5000;0.1481;-0.1864;
1390.8000;0.1465;-0.1864;
1391.1000;0.1530;-0.1697;
1391.4000;0.1498;-0.1816;
1391.7000;0.1490;-0.1816;
1392.0000;0.1481;-0.1936;
1392.3000;0.1522;-0.1864;
1392.6000;0.1490;-0.1959;
1392.9000;0.1481;-0.1959;
1393.2000;0.1522;-0.1888;
1393.5000;0.1498;-0.1912;
1393.8000;0.1514;-0.1864;
1394.1000;0.1506;-0.1864;
1394.4000;0.1530;-0.1816;
1394.7000;0.1530;-0.1816;
1395.0000;0.1506;-0.1816;
1395.3000;0.1465;-0.1936;
1395.6000;0.1481;-0.1840;
1395.9000;0.1498;-0.1840;
1396.2000;0.1498;-0.1816;
1396.5000;0.1490;-0.1840;
1396.8000;0.1522;-0.1697;
1397.1000;0.1506;-0.1673;
1397.4000;0.1506;-0.1721;
1397.7000;0.1530;-0.1553;
1398.0000;0.1522;-0.1553;
1398.3000;0.1490;-0.1697;
1398.6000;0.1506;-0.1673;
1398.9000;0.1490;-0.1673;
1399.2000;0.1490;-0.1673;
1399.5000;0.1514;-0.1577;
1399.8000;0.1498;-0.1601;
