time/ms;Fluo/V;P700 deltaI/I x10³;
-199.8000;0.1514;-0.1649;
-199.5000;0.1481;-0.1697;
-199.2000;0.1490;-0.1649;
-198.9000;0.1490;-0.1649;
-198.6000;0.1498;-0.1625;
-198.3000;0.1490;-0.1625;
-198.0000;0.1506;-0.1577;
-197.7000;0.1498;-0.1625;
-197.4000;0.1538;-0.1577;
-197.1000;0.1498;-0.1577;
-196.8000;0.1506;-0.1458;
-196.5000;0.1514;-0.1505;
-196.2000;0.1522;-0.1553;
-195.9000;0.1514;-0.1577;
-195.6000;0.1522;-0.1697;
-195.3000;0.1506;-0.1697;
-195.0000;0.1473;-0.1792;
-194.7000;0.1481;-0.1816;
-194.4000;0.1498;-0.1768;
-194.1000;0.1490;-0.1792;
-193.8000;0.1498;-0.1744;
-193.5000;0.1490;-0.1697;
-193.2000;0.1522;-0.1577;
-192.9000;0.1595;-0.1410;
-192.6000;0.1587;-0.1386;
-192.3000;0.1506;-0.1625;
-192.0000;0.1514;-0.1649;
-191.7000;0.1498;-0.1625;
-191.4000;0.1530;-0.1625;
-191.1000;0.1514;-0.1625;
-190.8000;0.1506;-0.1697;
-190.5000;0.1490;-0.1768;
-190.2000;0.1506;-0.1744;
-189.9000;0.1506;-0.1744;
-189.6000;0.1620;-0.1458;
-189.3000;0.1490;-0.1744;
-189.0000;0.1498;-0.1721;
-188.7000;0.1522;-0.1625;
-188.4000;0.1498;-0.1673;
-188.1000;0.1514;-0.1601;
-187.8000;0.1490;-0.1697;
-187.5000;0.1522;-0.1625;
-187.2000;0.1514;-0.1577;
-186.9000;0.1498;-0.1577;
-186.6000;0.1530;-0.1529;
-186.3000;0.1522;-0.1505;
-186.0000;0.1490;-0.1625;
-185.7000;0.1522;-0.1553;
-185.4000;0.1457;-0.1744;
-185.1000;0.1514;-0.1577;
-184.8000;0.1481;-0.1673;
-184.5000;0.1433;-0.1792;
-184.2000;0.1514;-0.1577;
-183.9000;0.1514;-0.1697;
-183.6000;0.1506;-0.1721;
-183.3000;0.1481;-0.1768;
-183.0000;0.1498;-0.1697;
-182.7000;0.1392;-0.2055;
-182.4000;0.1441;-0.1936;
-182.1000;0.1514;-0.1768;
-181.8000;0.1563;-0.1601;
-181.5000;0.1490;-0.1792;
-181.2000;0.1514;-0.1697;
-180.9000;0.1506;-0.1744;
-180.6000;0.1506;-0.1792;
-180.3000;0.1498;-0.1792;
-180.0000;0.1506;-0.1792;
-179.7000;0.1506;-0.1888;
-179.4000;0.1506;-0.1936;
-179.1000;0.1498;-0.1864;
-178.8000;0.1506;-0.1768;
-178.5000;0.1498;-0.1768;
-178.2000;0.1473;-0.1744;
-177.9000;0.1481;-0.1697;
-177.6000;0.1490;-0.1792;
-177.3000;0.1506;-0.1744;
-177.0000;0.1514;-0.1697;
-176.7000;0.1514;-0.1673;
-176.4000;0.1490;-0.1625;
-176.1000;0.1498;-0.1529;
-175.8000;0.1514;-0.1529;
-175.5000;0.1506;-0.1553;
-175.2000;0.1490;-0.1625;
-174.9000;0.1514;-0.1625;
-174.6000;0.1522;-0.1625;
-174.3000;0.1514;-0.1721;
-174.0000;0.1498;-0.1744;
-173.7000;0.1490;-0.1816;
-173.4000;0.1498;-0.1888;
-173.1000;0.1514;-0.1840;
-172.8000;0.1481;-0.1888;
-172.5000;0.1498;-0.1864;
-172.2000;0.1522;-0.1721;
-171.9000;0.1530;-0.1553;
-171.6000;0.1481;-0.1577;
-171.3000;0.1400;-0.1792;
-171.0000;0.1490;-0.1577;
-170.7000;0.1571;-0.1362;
-170.4000;0.1481;-0.1553;
-170.1000;0.1490;-0.1482;
-169.8000;0.1595;-0.1219;
-169.5000;0.1506;-0.1577;
-169.2000;0.1506;-0.1601;
-168.9000;0.1506;-0.1601;
-168.6000;0.1481;-0.1673;
-168.3000;0.1522;-0.1625;
-168.0000;0.1514;-0.1673;
-167.7000;0.1530;-0.1577;
-167.4000;0.1498;-0.1601;
-167.1000;0.1506;-0.1625;
-166.8000;0.1563;-0.1553;
-166.5000;0.1506;-0.1697;
-166.2000;0.1506;-0.1673;
-165.9000;0.1498;-0.1697;
-165.6000;0.1514;-0.1601;
-165.3000;0.1514;-0.1625;
-165.0000;0.1506;-0.1625;
-164.7000;0.1506;-0.1625;
-164.4000;0.1522;-0.1529;
-164.1000;0.1522;-0.1553;
-163.8000;0.1514;-0.1625;
-163.5000;0.1449;-0.1697;
-163.2000;0.1498;-0.1577;
-162.9000;0.1498;-0.1529;
-162.6000;0.1473;-0.1601;
-162.3000;0.1498;-0.1482;
-162.0000;0.1612;-0.1195;
-161.7000;0.1490;-0.1458;
-161.4000;0.1530;-0.1458;
-161.1000;0.1498;-0.1577;
-160.8000;0.1498;-0.1577;
-160.5000;0.1327;-0.2055;
-160.2000;0.1449;-0.1721;
-159.9000;0.1514;-0.1577;
-159.6000;0.1490;-0.1577;
-159.3000;0.1571;-0.1338;
-159.0000;0.1506;-0.1482;
-158.7000;0.1522;-0.1458;
-158.4000;0.1604;-0.1171;
-158.1000;0.1514;-0.1458;
-157.8000;0.1530;-0.1410;
-157.5000;0.1547;-0.1434;
-157.2000;0.1514;-0.1434;
-156.9000;0.1506;-0.1482;
-156.6000;0.1522;-0.1410;
-156.3000;0.1555;-0.1410;
-156.0000;0.1538;-0.1482;
-155.7000;0.1498;-0.1649;
-155.4000;0.1498;-0.1505;
-155.1000;0.1498;-0.1505;
-154.8000;0.1498;-0.1529;
-154.5000;0.1514;-0.1458;
-154.2000;0.1514;-0.1386;
-153.9000;0.1538;-0.1314;
-153.6000;0.1530;-0.1338;
-153.3000;0.1522;-0.1362;
-153.0000;0.1498;-0.1434;
-152.7000;0.1506;-0.1505;
-152.4000;0.1514;-0.1529;
-152.1000;0.1506;-0.1505;
-151.8000;0.1490;-0.1505;
-151.5000;0.1514;-0.1529;
-151.2000;0.1506;-0.1601;
-150.9000;0.1498;-0.1697;
-150.6000;0.1498;-0.1601;
-150.3000;0.1481;-0.1601;
-150.0000;0.1490;-0.1673;
-149.7000;0.1425;-0.1792;
-149.4000;0.1514;-0.1601;
-149.1000;0.1498;-0.1577;
-148.8000;0.1425;-0.1697;
-148.5000;0.1490;-0.1410;
-148.2000;0.1514;-0.1410;
-147.9000;0.1498;-0.1505;
-147.6000;0.1498;-0.1529;
-147.3000;0.1498;-0.1529;
-147.0000;0.1506;-0.1505;
-146.7000;0.1530;-0.1458;
-146.4000;0.1490;-0.1601;
-146.1000;0.1514;-0.1601;
-145.8000;0.1595;-0.1362;
-145.5000;0.1530;-0.1482;
-145.2000;0.1514;-0.1529;
-144.9000;0.1473;-0.1625;
-144.6000;0.1547;-0.1458;
-144.3000;0.1514;-0.1482;
-144.0000;0.1506;-0.1553;
-143.7000;0.1522;-0.1529;
-143.4000;0.1522;-0.1601;
-143.1000;0.1441;-0.1768;
-142.8000;0.1514;-0.1529;
-142.5000;0.1506;-0.1577;
-142.2000;0.1506;-0.1673;
-141.9000;0.1498;-0.1768;
-141.6000;0.1498;-0.1816;
-141.3000;0.1498;-0.1673;
-141.0000;0.1514;-0.1529;
-140.7000;0.1490;-0.1553;
-140.4000;0.1514;-0.1482;
-140.1000;0.1498;-0.1505;
-139.8000;0.1441;-0.1625;
-139.5000;0.1498;-0.1386;
-139.2000;0.1490;-0.1482;
-138.9000;0.1481;-0.1529;
-138.6000;0.1498;-0.1529;
-138.3000;0.1498;-0.1482;
-138.0000;0.1514;-0.1482;
-137.7000;0.1490;-0.1529;
-137.4000;0.1530;-0.1505;
-137.1000;0.1465;-0.1649;
-136.8000;0.1490;-0.1553;
-136.5000;0.1514;-0.1649;
-136.2000;0.1506;-0.1697;
-135.9000;0.1514;-0.1649;
-135.6000;0.1473;-0.1673;
-135.3000;0.1498;-0.1505;
-135.0000;0.1449;-0.1697;
-134.7000;0.1522;-0.1458;
-134.4000;0.1498;-0.1505;
-134.1000;0.1433;-0.1744;
-133.8000;0.1506;-0.1529;
-133.5000;0.1522;-0.1577;
-133.2000;0.1498;-0.1673;
-132.9000;0.1506;-0.1697;
-132.6000;0.1514;-0.1673;
-132.3000;0.1522;-0.1577;
-132.0000;0.1522;-0.1505;
-131.7000;0.1514;-0.1529;
-131.4000;0.1506;-0.1529;
-131.1000;0.1620;-0.1243;
-130.8000;0.1498;-0.1505;
-130.5000;0.1514;-0.1410;
-130.2000;0.1514;-0.1434;
-129.9000;0.1498;-0.1434;
-129.6000;0.1498;-0.1410;
-129.3000;0.1530;-0.1338;
-129.0000;0.1490;-0.1410;
-128.7000;0.1490;-0.1386;
-128.4000;0.1506;-0.1505;
-128.1000;0.1498;-0.1505;
-127.8000;0.1636;-0.1075;
-127.5000;0.1498;-0.1434;
-127.2000;0.1481;-0.1410;
-126.9000;0.1522;-0.1434;
-126.6000;0.1498;-0.1529;
-126.3000;0.1522;-0.1505;
-126.0000;0.1530;-0.1505;
-125.7000;0.1498;-0.1529;
-125.4000;0.1498;-0.1529;
-125.1000;0.1498;-0.1553;
-124.8000;0.1465;-0.1697;
-124.5000;0.1506;-0.1482;
-124.2000;0.1498;-0.1482;
-123.9000;0.1498;-0.1410;
-123.6000;0.1514;-0.1386;
-123.3000;0.1457;-0.1529;
-123.0000;0.1506;-0.1410;
-122.7000;0.1498;-0.1505;
-122.4000;0.1425;-0.1792;
-122.1000;0.1498;-0.1529;
-121.8000;0.1506;-0.1410;
-121.5000;0.1522;-0.1434;
-121.2000;0.1498;-0.1482;
-120.9000;0.1498;-0.1482;
-120.6000;0.1514;-0.1482;
-120.3000;0.1514;-0.1458;
-120.0000;0.1506;-0.1458;
-119.7000;0.1490;-0.1529;
-119.4000;0.1506;-0.1505;
-119.1000;0.1490;-0.1458;
-118.8000;0.1481;-0.1458;
-118.5000;0.1490;-0.1482;
-118.2000;0.1514;-0.1458;
-117.9000;0.1506;-0.1458;
-117.6000;0.1514;-0.1458;
-117.3000;0.1514;-0.1529;
-117.0000;0.1522;-0.1601;
-116.7000;0.1522;-0.1625;
-116.4000;0.1490;-0.1744;
-116.1000;0.1506;-0.1744;
-115.8000;0.1514;-0.1744;
-115.5000;0.1465;-0.1768;
-115.2000;0.1498;-0.1625;
-114.9000;0.1514;-0.1673;
-114.6000;0.1506;-0.1792;
-114.3000;0.1498;-0.1721;
-114.0000;0.1644;-0.1243;
-113.7000;0.1538;-0.1529;
-113.4000;0.1498;-0.1625;
-113.1000;0.1506;-0.1577;
-112.8000;0.1538;-0.1505;
-112.5000;0.1400;-0.1840;
-112.2000;0.1522;-0.1410;
-111.9000;0.1587;-0.1171;
-111.6000;0.1457;-0.1505;
-111.3000;0.1506;-0.1482;
-111.0000;0.1522;-0.1482;
-110.7000;0.1506;-0.1601;
-110.4000;0.1498;-0.1673;
-110.1000;0.1465;-0.1792;
-109.8000;0.1498;-0.1649;
-109.5000;0.1506;-0.1529;
-109.2000;0.1449;-0.1673;
-108.9000;0.1506;-0.1553;
-108.6000;0.1514;-0.1505;
-108.3000;0.1555;-0.1386;
-108.0000;0.1441;-0.1673;
-107.7000;0.1514;-0.1505;
-107.4000;0.1506;-0.1625;
-107.1000;0.1481;-0.1601;
-106.8000;0.1490;-0.1649;
-106.5000;0.1514;-0.1601;
-106.2000;0.1506;-0.1673;
-105.9000;0.1498;-0.1673;
-105.6000;0.1514;-0.1673;
-105.3000;0.1490;-0.1673;
-105.0000;0.1522;-0.1625;
-104.7000;0.1514;-0.1649;
-104.4000;0.1506;-0.1721;
-104.1000;0.1506;-0.1721;
-103.8000;0.1514;-0.1673;
-103.5000;0.1506;-0.1721;
-103.2000;0.1498;-0.1744;
-102.9000;0.1498;-0.1625;
-102.6000;0.1490;-0.1721;
-102.3000;0.1490;-0.1792;
-102.0000;0.1498;-0.1768;
-101.7000;0.1400;-0.1983;
-101.4000;0.1514;-0.1649;
-101.1000;0.1498;-0.1601;
-100.8000;0.1522;-0.1529;
-100.5000;0.1498;-0.1553;
-100.2000;0.1433;-0.1840;
-99.9000;0.1571;-0.1434;
-99.6000;0.1514;-0.1577;
-99.3000;0.1530;-0.1529;
-99.0000;0.1465;-0.1625;
-98.7000;0.1571;-0.1434;
-98.4000;0.1506;-0.1625;
-98.1000;0.1506;-0.1601;
-97.8000;0.1530;-0.1577;
-97.5000;0.1506;-0.1673;
-97.2000;0.1498;-0.1744;
-96.9000;0.1538;-0.1673;
-96.6000;0.1498;-0.1816;
-96.3000;0.1498;-0.1792;
-96.0000;0.1498;-0.1768;
-95.7000;0.1522;-0.1673;
-95.4000;0.1498;-0.1625;
-95.1000;0.1481;-0.1625;
-94.8000;0.1506;-0.1601;
-94.5000;0.1449;-0.1768;
-94.2000;0.1506;-0.1553;
-93.9000;0.1490;-0.1625;
-93.6000;0.1522;-0.1601;
-93.3000;0.1530;-0.1601;
-93.0000;0.1522;-0.1553;
-92.7000;0.1506;-0.1553;
-92.4000;0.1506;-0.1601;
-92.1000;0.1498;-0.1625;
-91.8000;0.1498;-0.1625;
-91.5000;0.1481;-0.1673;
-91.2000;0.1465;-0.1744;
-90.9000;0.1506;-0.1744;
-90.6000;0.1465;-0.1864;
-90.3000;0.1506;-0.1864;
-90.0000;0.1481;-0.1840;
-89.7000;0.1498;-0.1744;
-89.4000;0.1449;-0.1792;
-89.1000;0.1547;-0.1482;
-88.8000;0.1498;-0.1577;
-88.5000;0.1530;-0.1410;
-88.2000;0.1587;-0.1290;
-87.9000;0.1506;-0.1505;
-87.6000;0.1571;-0.1410;
-87.3000;0.1506;-0.1529;
-87.0000;0.1555;-0.1458;
-86.7000;0.1498;-0.1577;
-86.4000;0.1490;-0.1673;
-86.1000;0.1490;-0.1697;
-85.8000;0.1522;-0.1625;
-85.5000;0.1522;-0.1577;
-85.2000;0.1490;-0.1577;
-84.9000;0.1498;-0.1458;
-84.6000;0.1506;-0.1458;
-84.3000;0.1498;-0.1529;
-84.0000;0.1506;-0.1505;
-83.7000;0.1522;-0.1434;
-83.4000;0.1465;-0.1553;
-83.1000;0.1522;-0.1434;
-82.8000;0.1522;-0.1386;
-82.5000;0.1490;-0.1482;
-82.2000;0.1481;-0.1601;
-81.9000;0.1506;-0.1625;
-81.6000;0.1506;-0.1673;
-81.3000;0.1498;-0.1697;
-81.0000;0.1490;-0.1744;
-80.7000;0.1506;-0.1792;
-80.4000;0.1514;-0.1697;
-80.1000;0.1498;-0.1721;
-79.8000;0.1506;-0.1721;
-79.5000;0.1457;-0.1792;
-79.2000;0.1408;-0.1888;
-78.9000;0.1506;-0.1577;
-78.6000;0.1498;-0.1601;
-78.3000;0.1522;-0.1577;
-78.0000;0.1571;-0.1410;
-77.7000;0.1473;-0.1768;
-77.4000;0.1538;-0.1458;
-77.1000;0.1506;-0.1482;
-76.8000;0.1425;-0.1649;
-76.5000;0.1522;-0.1386;
-76.2000;0.1506;-0.1553;
-75.9000;0.1514;-0.1482;
-75.6000;0.1498;-0.1529;
-75.3000;0.1449;-0.1721;
-75.0000;0.1490;-0.1649;
-74.7000;0.1514;-0.1529;
-74.4000;0.1481;-0.1601;
-74.1000;0.1522;-0.1553;
-73.8000;0.1571;-0.1386;
-73.5000;0.1498;-0.1482;
-73.2000;0.1498;-0.1553;
-72.9000;0.1514;-0.1458;
-72.6000;0.1555;-0.1338;
-72.3000;0.1506;-0.1505;
-72.0000;0.1506;-0.1577;
-71.7000;0.1481;-0.1744;
-71.4000;0.1522;-0.1697;
-71.1000;0.1514;-0.1697;
-70.8000;0.1473;-0.1816;
-70.5000;0.1522;-0.1744;
-70.2000;0.1376;-0.2031;
-69.9000;0.1530;-0.1625;
-69.6000;0.1514;-0.1673;
-69.3000;0.1490;-0.1792;
-69.0000;0.1490;-0.1792;
-68.7000;0.1465;-0.1816;
-68.4000;0.1514;-0.1744;
-68.1000;0.1498;-0.1744;
-67.8000;0.1506;-0.1673;
-67.5000;0.1514;-0.1649;
-67.2000;0.1563;-0.1529;
-66.9000;0.1449;-0.1864;
-66.6000;0.1457;-0.1888;
-66.3000;0.1490;-0.1721;
-66.0000;0.1555;-0.1553;
-65.7000;0.1514;-0.1625;
-65.4000;0.1506;-0.1625;
-65.1000;0.1506;-0.1529;
-64.8000;0.1522;-0.1458;
-64.5000;0.1441;-0.1649;
-64.2000;0.1506;-0.1482;
-63.9000;0.1498;-0.1505;
-63.6000;0.1498;-0.1673;
-63.3000;0.1449;-0.1816;
-63.0000;0.1498;-0.1649;
-62.7000;0.1498;-0.1673;
-62.4000;0.1498;-0.1673;
-62.1000;0.1530;-0.1601;
-61.8000;0.1514;-0.1625;
-61.5000;0.1522;-0.1601;
-61.2000;0.1506;-0.1458;
-60.9000;0.1514;-0.1505;
-60.6000;0.1506;-0.1553;
-60.3000;0.1506;-0.1649;
-60.0000;0.1579;-0.1458;
-59.7000;0.1514;-0.1649;
-59.4000;0.1498;-0.1792;
-59.1000;0.1506;-0.1768;
-58.8000;0.1498;-0.1721;
-58.5000;0.1514;-0.1721;
-58.2000;0.1514;-0.1768;
-57.9000;0.1498;-0.1768;
-57.6000;0.1514;-0.1697;
-57.3000;0.1514;-0.1673;
-57.0000;0.1506;-0.1577;
-56.7000;0.1514;-0.1529;
-56.4000;0.1522;-0.1577;
-56.1000;0.1514;-0.1577;
-55.8000;0.1465;-0.1721;
-55.5000;0.1538;-0.1553;
-55.2000;0.1490;-0.1673;
-54.9000;0.1514;-0.1553;
-54.6000;0.1522;-0.1553;
-54.3000;0.1490;-0.1721;
-54.0000;0.1514;-0.1721;
-53.7000;0.1514;-0.1625;
-53.4000;0.1530;-0.1601;
-53.1000;0.1498;-0.1577;
-52.8000;0.1481;-0.1577;
-52.5000;0.1490;-0.1601;
-52.2000;0.1514;-0.1625;
-51.9000;0.1506;-0.1649;
-51.6000;0.1522;-0.1482;
-51.3000;0.1547;-0.1458;
-51.0000;0.1506;-0.1577;
-50.7000;0.1555;-0.1458;
-50.4000;0.1522;-0.1553;
-50.1000;0.1514;-0.1601;
-49.8000;0.1376;-0.1888;
-49.5000;0.1579;-0.1290;
-49.2000;0.1522;-0.1482;
-48.9000;0.1498;-0.1458;
-48.6000;0.1457;-0.1601;
-48.3000;0.1522;-0.1482;
-48.0000;0.1481;-0.1553;
-47.7000;0.1514;-0.1529;
-47.4000;0.1522;-0.1482;
-47.1000;0.1506;-0.1577;
-46.8000;0.1498;-0.1577;
-46.5000;0.1498;-0.1553;
-46.2000;0.1506;-0.1505;
-45.9000;0.1498;-0.1505;
-45.6000;0.1490;-0.1505;
-45.3000;0.1522;-0.1458;
-45.0000;0.1522;-0.1505;
-44.7000;0.1490;-0.1649;
-44.4000;0.1498;-0.1649;
-44.1000;0.1514;-0.1505;
-43.8000;0.1506;-0.1529;
-43.5000;0.1490;-0.1505;
-43.2000;0.1514;-0.1529;
-42.9000;0.1514;-0.1601;
-42.6000;0.1530;-0.1553;
-42.3000;0.1490;-0.1721;
-42.0000;0.1368;-0.2007;
-41.7000;0.1522;-0.1649;
-41.4000;0.1392;-0.1888;
-41.1000;0.1506;-0.1505;
-40.8000;0.1449;-0.1673;
-40.5000;0.1498;-0.1529;
-40.2000;0.1473;-0.1601;
-39.9000;0.1441;-0.1673;
-39.6000;0.1490;-0.1505;
-39.3000;0.1490;-0.1553;
-39.0000;0.1506;-0.1529;
-38.7000;0.1514;-0.1482;
-38.4000;0.1498;-0.1505;
-38.1000;0.1498;-0.1458;
-37.8000;0.1506;-0.1505;
-37.5000;0.1506;-0.1482;
-37.2000;0.1571;-0.1386;
-36.9000;0.1490;-0.1625;
-36.6000;0.1473;-0.1529;
-36.3000;0.1506;-0.1529;
-36.0000;0.1587;-0.1362;
-35.7000;0.1506;-0.1553;
-35.4000;0.1481;-0.1601;
-35.1000;0.1514;-0.1529;
-34.8000;0.1498;-0.1601;
-34.5000;0.1506;-0.1744;
-34.2000;0.1522;-0.1744;
-33.9000;0.1522;-0.1744;
-33.6000;0.1530;-0.1625;
-33.3000;0.1408;-0.1959;
-33.0000;0.1522;-0.1649;
-32.7000;0.1514;-0.1601;
-32.4000;0.1514;-0.1529;
-32.1000;0.1498;-0.1505;
-31.8000;0.1538;-0.1362;
-31.5000;0.1522;-0.1338;
-31.2000;0.1498;-0.1410;
-30.9000;0.1457;-0.1577;
-30.6000;0.1506;-0.1529;
-30.3000;0.1416;-0.1840;
-30.0000;0.1481;-0.1529;
-29.7000;0.1571;-0.1243;
-29.4000;0.1498;-0.1386;
-29.1000;0.1506;-0.1482;
-28.8000;0.1498;-0.1505;
-28.5000;0.1522;-0.1505;
-28.2000;0.1538;-0.1362;
-27.9000;0.1490;-0.1410;
-27.6000;0.1481;-0.1482;
-27.3000;0.1490;-0.1505;
-27.0000;0.1506;-0.1505;
-26.7000;0.1547;-0.1434;
-26.4000;0.1514;-0.1529;
-26.1000;0.1506;-0.1458;
-25.8000;0.1514;-0.1434;
-25.5000;0.1514;-0.1410;
-25.2000;0.1506;-0.1434;
-24.9000;0.1522;-0.1458;
-24.6000;0.1530;-0.1434;
-24.3000;0.1498;-0.1577;
-24.0000;0.1506;-0.1458;
-23.7000;0.1498;-0.1529;
-23.4000;0.1547;-0.1266;
-23.1000;0.1490;-0.1434;
-22.8000;0.1498;-0.1529;
-22.5000;0.1498;-0.1529;
-22.2000;0.1530;-0.1458;
-21.9000;0.1522;-0.1458;
-21.6000;0.1481;-0.1601;
-21.3000;0.1441;-0.1649;
-21.0000;0.1506;-0.1553;
-20.7000;0.1490;-0.1553;
-20.4000;0.1506;-0.1482;
-20.1000;0.1490;-0.1505;
-19.8000;0.1514;-0.1505;
-19.5000;0.1522;-0.1505;
-19.2000;0.1490;-0.1625;
-18.9000;0.1522;-0.1505;
-18.6000;0.1514;-0.1577;
-18.3000;0.1490;-0.1577;
-18.0000;0.1530;-0.1482;
-17.7000;0.1490;-0.1577;
-17.4000;0.1498;-0.1577;
-17.1000;0.1530;-0.1482;
-16.8000;0.1490;-0.1601;
-16.5000;0.1506;-0.1553;
-16.2000;0.1514;-0.1505;
-15.9000;0.1538;-0.1386;
-15.6000;0.1425;-0.1744;
-15.3000;0.1481;-0.1577;
-15.0000;0.1465;-0.1673;
-14.7000;0.1506;-0.1434;
-14.4000;0.1490;-0.1505;
-14.1000;0.1514;-0.1410;
-13.8000;0.1490;-0.1458;
-13.5000;0.1481;-0.1386;
-13.2000;0.1620;-0.1004;
-12.9000;0.1498;-0.1386;
-12.6000;0.1538;-0.1458;
-12.3000;0.1498;-0.1553;
-12.0000;0.1506;-0.1482;
-11.7000;0.1514;-0.1482;
-11.4000;0.1481;-0.1625;
-11.1000;0.1498;-0.1625;
-10.8000;0.1490;-0.1649;
-10.5000;0.1481;-0.1768;
-10.2000;0.1449;-0.1936;
-9.9000;0.1490;-0.1721;
-9.6000;0.1506;-0.1649;
-9.3000;0.1490;-0.1577;
-9.0000;0.1498;-0.1553;
-8.7000;0.1498;-0.1553;
-8.4000;0.1481;-0.1673;
-8.1000;0.1514;-0.1553;
-7.8000;0.1522;-0.1553;
-7.5000;0.1490;-0.1625;
-7.2000;0.1490;-0.1553;
-6.9000;0.1530;-0.1505;
-6.6000;0.1514;-0.1577;
-6.3000;0.1514;-0.1601;
-6.0000;0.1514;-0.1625;
-5.7000;0.1473;-0.1625;
-5.4000;0.1481;-0.1577;
-5.1000;0.1490;-0.1649;
-4.8000;0.1416;-0.1744;
-4.5000;0.1465;-0.1601;
-4.2000;0.1530;-0.1434;
-3.9000;0.1514;-0.1577;
-3.6000;0.1522;-0.1553;
-3.3000;0.1490;-0.1601;
-3.0000;0.1498;-0.1505;
-2.7000;0.1441;-0.1649;
-2.4000;0.1514;-0.1410;
-2.1000;0.1490;-0.1458;
-1.8000;0.1555;-0.1243;
-1.5000;0.1530;-0.1338;
-1.2000;0.1498;-0.1410;
-0.9000;0.1506;-0.1410;
-0.6000;0.1514;-0.1434;
-0.3000;0.1563;-0.1362;
0.0000;0.1563;-0.1362;
0.3000;0.1538;-0.1577;
0.6000;0.1587;-0.1243;
0.9000;0.1506;-0.1410;
1.2000;0.1498;-0.1290;
1.5000;0.1449;-0.1314;
1.8000;0.1465;-0.1266;
2.1000;0.1481;-0.1147;
2.4000;0.1571;-0.0884;
2.7000;0.1490;-0.0956;
3.0000;0.1506;-0.0812;
3.3000;0.1449;-0.0956;
3.6000;0.1604;-0.0406;
3.9000;0.1538;-0.0478;
4.2000;0.1522;-0.0406;
4.5000;0.1547;-0.0311;
4.8000;0.1555;-0.0335;
5.1000;0.1538;-0.0335;
5.4000;0.1563;-0.0239;
5.7000;0.1538;-0.0358;
6.0000;0.1538;-0.0406;
6.3000;0.1522;-0.0430;
6.6000;0.1530;-0.0358;
6.9000;0.1555;-0.0239;
7.2000;0.1514;-0.0263;
7.5000;0.1514;-0.0263;
7.8000;0.1506;-0.0239;
8.1000;0.1522;-0.0263;
8.4000;0.1538;-0.0263;
8.7000;0.1571;-0.0191;
9.0000;0.1514;-0.0239;
9.3000;0.1547;-0.0215;
9.6000;0.1538;-0.0287;
9.9000;0.1547;-0.0239;
10.2000;0.1538;-0.0191;
10.5000;0.1514;-0.0311;
10.8000;0.1563;-0.0167;
11.1000;0.1538;-0.0287;
11.4000;0.1506;-0.0406;
11.7000;0.1481;-0.0358;
12.0000;0.1530;-0.0143;
12.3000;0.1538;-0.0072;
12.6000;0.1547;-0.0048;
12.9000;0.1514;-0.0072;
13.2000;0.1522;-0.0143;
13.5000;0.1530;-0.0096;
13.8000;0.1522;-0.0119;
14.1000;0.1555;-0.0048;
14.4000;0.1530;-0.0167;
14.7000;0.1522;-0.0239;
15.0000;0.1547;-0.0119;
15.3000;0.1514;-0.0119;
15.6000;0.1506;-0.0215;
15.9000;0.1530;-0.0143;
16.2000;0.1441;-0.0335;
16.5000;0.1555;0.0000;
16.8000;0.1587;0.0072;
17.1000;0.1514;-0.0143;
17.4000;0.1547;0.0000;
17.7000;0.1522;-0.0119;
18.0000;0.1514;-0.0215;
18.3000;0.1612;0.0024;
18.6000;0.1506;-0.0239;
18.9000;0.1628;0.0024;
19.2000;0.1571;-0.0072;
19.5000;0.1514;-0.0167;
19.8000;0.1530;-0.0167;
20.1000;0.1473;-0.0311;
20.4000;0.1530;-0.0143;
20.7000;0.1530;-0.0167;
21.0000;0.1538;-0.0143;
21.3000;0.1620;0.0096;
21.6000;0.1530;-0.0143;
21.9000;0.1530;-0.0191;
22.2000;0.1506;-0.0215;
22.5000;0.1498;-0.0167;
22.8000;0.1490;-0.0143;
23.1000;0.1522;-0.0024;
23.4000;0.1530;0.0024;
23.7000;0.1530;-0.0048;
24.0000;0.1514;-0.0024;
24.3000;0.1425;-0.0358;
24.6000;0.1530;-0.0143;
24.9000;0.1538;-0.0096;
25.2000;0.1514;-0.0024;
25.5000;0.1498;-0.0167;
25.8000;0.1547;-0.0072;
26.1000;0.1506;-0.0167;
26.4000;0.1636;0.0191;
26.7000;0.1595;0.0000;
27.0000;0.1587;-0.0072;
27.3000;0.1490;-0.0335;
27.6000;0.1555;-0.0167;
27.9000;0.1514;-0.0287;
28.2000;0.1530;-0.0263;
28.5000;0.1506;-0.0358;
28.8000;0.1506;-0.0287;
29.1000;0.1514;-0.0215;
29.4000;0.1473;-0.0335;
29.7000;0.1595;0.0048;
30.0000;0.1604;0.0000;
30.3000;0.1563;-0.0072;
30.6000;0.1587;-0.0024;
30.9000;0.1514;-0.0239;
31.2000;0.1498;-0.0239;
31.5000;0.1522;-0.0191;
31.8000;0.1530;-0.0239;
32.1000;0.1538;-0.0263;
32.4000;0.1530;-0.0311;
32.7000;0.1530;-0.0239;
33.0000;0.1538;-0.0311;
33.3000;0.1514;-0.0311;
33.6000;0.1538;-0.0263;
33.9000;0.1506;-0.0311;
34.2000;0.1530;-0.0287;
34.5000;0.1530;-0.0263;
34.8000;0.1563;-0.0143;
35.1000;0.1538;-0.0263;
35.4000;0.1522;-0.0406;
35.7000;0.1555;-0.0335;
36.0000;0.1555;-0.0287;
36.3000;0.1612;-0.0096;
36.6000;0.1530;-0.0263;
36.9000;0.1555;-0.0239;
37.2000;0.1538;-0.0263;
37.5000;0.1522;-0.0311;
37.8000;0.1514;-0.0406;
38.1000;0.1579;-0.0311;
38.4000;0.1538;-0.0335;
38.7000;0.1498;-0.0382;
39.0000;0.1530;-0.0335;
39.3000;0.1530;-0.0335;
39.6000;0.1514;-0.0311;
39.9000;0.1547;-0.0215;
40.2000;0.1547;-0.0311;
40.5000;0.1530;-0.0358;
40.8000;0.1514;-0.0311;
41.1000;0.1628;0.0000;
41.4000;0.1506;-0.0406;
41.7000;0.1465;-0.0502;
42.0000;0.1490;-0.0382;
42.3000;0.1498;-0.0358;
42.6000;0.1457;-0.0478;
42.9000;0.1547;-0.0239;
43.2000;0.1579;-0.0119;
43.5000;0.1506;-0.0287;
43.8000;0.1538;-0.0358;
44.1000;0.1522;-0.0335;
44.4000;0.1498;-0.0311;
44.7000;0.1530;-0.0263;
45.0000;0.1530;-0.0263;
45.3000;0.1530;-0.0263;
45.6000;0.1530;-0.0263;
45.9000;0.1555;-0.0239;
46.2000;0.1595;-0.0072;
46.5000;0.1514;-0.0215;
46.8000;0.1547;-0.0119;
47.1000;0.1538;-0.0096;
47.4000;0.1514;-0.0119;
47.7000;0.1514;-0.0167;
48.0000;0.1538;-0.0143;
48.3000;0.1449;-0.0406;
48.6000;0.1538;-0.0263;
48.9000;0.1530;-0.0335;
49.2000;0.1506;-0.0430;
49.5000;0.1522;-0.0430;
49.8000;0.1506;-0.0358;
50.1000;0.1514;-0.0335;
50.4000;0.1514;-0.0167;
50.7000;0.1547;-0.0119;
51.0000;0.1522;-0.0287;
51.3000;0.1538;-0.0239;
51.6000;0.1514;-0.0382;
51.9000;0.1514;-0.0358;
52.2000;0.1538;-0.0287;
52.5000;0.1530;-0.0287;
52.8000;0.1522;-0.0454;
53.1000;0.1408;-0.0812;
53.4000;0.1538;-0.0430;
53.7000;0.1538;-0.0311;
54.0000;0.1514;-0.0358;
54.3000;0.1498;-0.0311;
54.6000;0.1506;-0.0263;
54.9000;0.1522;-0.0239;
55.2000;0.1514;-0.0215;
55.5000;0.1522;-0.0263;
55.8000;0.1538;-0.0263;
56.1000;0.1433;-0.0597;
56.4000;0.1538;-0.0311;
56.7000;0.1514;-0.0287;
57.0000;0.1538;-0.0263;
57.3000;0.1514;-0.0287;
57.6000;0.1571;-0.0263;
57.9000;0.1547;-0.0358;
58.2000;0.1514;-0.0406;
58.5000;0.1538;-0.0335;
58.8000;0.1547;-0.0215;
59.1000;0.1498;-0.0287;
59.4000;0.1522;-0.0287;
59.7000;0.1538;-0.0239;
60.0000;0.1514;-0.0382;
60.3000;0.1514;-0.0502;
60.6000;0.1522;-0.0526;
60.9000;0.1530;-0.0550;
61.2000;0.1473;-0.0597;
61.5000;0.1498;-0.0550;
61.8000;0.1522;-0.0382;
62.1000;0.1506;-0.0406;
62.4000;0.1538;-0.0335;
62.7000;0.1538;-0.0287;
63.0000;0.1538;-0.0239;
63.3000;0.1481;-0.0358;
63.6000;0.1530;-0.0239;
63.9000;0.1530;-0.0215;
64.2000;0.1522;-0.0263;
64.5000;0.1547;-0.0143;
64.8000;0.1514;-0.0263;
65.1000;0.1587;0.0024;
65.4000;0.1514;-0.0191;
65.7000;0.1522;-0.0191;
66.0000;0.1530;-0.0191;
66.3000;0.1490;-0.0335;
66.6000;0.1498;-0.0335;
66.9000;0.1538;-0.0263;
67.2000;0.1392;-0.0621;
67.5000;0.1579;-0.0119;
67.8000;0.1538;-0.0167;
68.1000;0.1530;-0.0167;
68.4000;0.1506;-0.0239;
68.7000;0.1530;-0.0167;
69.0000;0.1530;-0.0143;
69.3000;0.1481;-0.0239;
69.6000;0.1400;-0.0406;
69.9000;0.1506;-0.0096;
70.2000;0.1506;-0.0072;
70.5000;0.1498;-0.0119;
70.8000;0.1530;-0.0048;
71.1000;0.1530;-0.0048;
71.4000;0.1530;-0.0143;
71.7000;0.1530;-0.0119;
72.0000;0.1522;-0.0119;
72.3000;0.1530;-0.0096;
72.6000;0.1555;0.0024;
72.9000;0.1530;0.0000;
73.2000;0.1465;-0.0143;
73.5000;0.1514;0.0000;
73.8000;0.1538;-0.0024;
74.1000;0.1530;-0.0167;
74.4000;0.1538;-0.0048;
74.7000;0.1604;0.0167;
75.0000;0.1457;-0.0215;
75.3000;0.1514;0.0000;
75.6000;0.1555;0.0096;
75.9000;0.1538;0.0096;
76.2000;0.1514;0.0024;
76.5000;0.1425;-0.0287;
76.8000;0.1514;-0.0119;
77.1000;0.1522;-0.0119;
77.4000;0.1538;-0.0072;
77.7000;0.1530;-0.0143;
78.0000;0.1522;-0.0311;
78.3000;0.1530;-0.0287;
78.6000;0.1522;-0.0287;
78.9000;0.1514;-0.0143;
79.2000;0.1514;-0.0191;
79.5000;0.1547;-0.0072;
79.8000;0.1514;-0.0119;
80.1000;0.1522;-0.0096;
80.4000;0.1506;0.0024;
80.7000;0.1547;0.0167;
81.0000;0.1538;0.0096;
81.3000;0.1514;0.0000;
81.6000;0.1547;-0.0024;
81.9000;0.1522;-0.0191;
82.2000;0.1530;-0.0167;
82.5000;0.1530;-0.0263;
82.8000;0.1522;-0.0358;
83.1000;0.1547;-0.0335;
83.4000;0.1514;-0.0287;
83.7000;0.1547;-0.0215;
84.0000;0.1522;-0.0215;
84.3000;0.1555;-0.0191;
84.6000;0.1506;-0.0239;
84.9000;0.1530;-0.0167;
85.2000;0.1441;-0.0311;
85.5000;0.1538;0.0072;
85.8000;0.1587;0.0096;
86.1000;0.1530;-0.0048;
86.4000;0.1530;-0.0024;
86.7000;0.1677;0.0358;
87.0000;0.1506;-0.0048;
87.3000;0.1555;0.0072;
87.6000;0.1498;-0.0096;
87.9000;0.1522;0.0000;
88.2000;0.1506;-0.0072;
88.5000;0.1538;-0.0096;
88.8000;0.1538;0.0024;
89.1000;0.1530;0.0000;
89.4000;0.1530;0.0072;
89.7000;0.1522;-0.0048;
90.0000;0.1555;-0.0119;
90.3000;0.1514;-0.0167;
90.6000;0.1547;-0.0096;
90.9000;0.1530;-0.0143;
91.2000;0.1481;-0.0335;
91.5000;0.1522;-0.0191;
91.8000;0.1530;-0.0239;
92.1000;0.1522;-0.0191;
92.4000;0.1522;-0.0263;
92.7000;0.1514;-0.0215;
93.0000;0.1522;-0.0167;
93.3000;0.1498;-0.0239;
93.6000;0.1530;-0.0191;
93.9000;0.1522;-0.0143;
94.2000;0.1514;-0.0096;
94.5000;0.1514;-0.0072;
94.8000;0.1522;-0.0143;
95.1000;0.1514;-0.0096;
95.4000;0.1514;-0.0167;
95.7000;0.1449;-0.0335;
96.0000;0.1522;-0.0143;
96.3000;0.1538;-0.0096;
96.6000;0.1538;-0.0096;
96.9000;0.1481;-0.0191;
97.2000;0.1522;-0.0167;
97.5000;0.1522;-0.0215;
97.8000;0.1514;-0.0311;
98.1000;0.1473;-0.0430;
98.4000;0.1538;-0.0239;
98.7000;0.1506;-0.0311;
99.0000;0.1530;-0.0215;
99.3000;0.1514;-0.0335;
99.6000;0.1538;-0.0215;
99.9000;0.1514;-0.0263;
100.2000;0.1514;-0.0215;
100.5000;0.1530;-0.0167;
100.8000;0.1530;-0.0048;
101.1000;0.1506;-0.0072;
101.4000;0.1538;0.0096;
101.7000;0.1563;0.0191;
102.0000;0.1514;0.0000;
102.3000;0.1514;-0.0143;
102.6000;0.1538;-0.0167;
102.9000;0.1441;-0.0526;
103.2000;0.1547;-0.0167;
103.5000;0.1547;-0.0215;
103.8000;0.1595;-0.0072;
104.1000;0.1530;-0.0287;
104.4000;0.1514;-0.0358;
104.7000;0.1506;-0.0406;
105.0000;0.1522;-0.0430;
105.3000;0.1547;-0.0335;
105.6000;0.1530;-0.0382;
105.9000;0.1530;-0.0382;
106.2000;0.1538;-0.0287;
106.5000;0.1530;-0.0263;
106.8000;0.1555;-0.0167;
107.1000;0.1547;-0.0119;
107.4000;0.1530;-0.0143;
107.7000;0.1538;-0.0239;
108.0000;0.1522;-0.0167;
108.3000;0.1481;-0.0215;
108.6000;0.1506;-0.0191;
108.9000;0.1530;-0.0167;
109.2000;0.1530;-0.0335;
109.5000;0.1547;-0.0335;
109.8000;0.1400;-0.0645;
110.1000;0.1514;-0.0287;
110.4000;0.1538;-0.0167;
110.7000;0.1514;-0.0263;
111.0000;0.1538;-0.0287;
111.3000;0.1465;-0.0550;
111.6000;0.1506;-0.0382;
111.9000;0.1547;-0.0263;
112.2000;0.1530;-0.0263;
112.5000;0.1555;-0.0215;
112.8000;0.1530;-0.0287;
113.1000;0.1530;-0.0311;
113.4000;0.1547;-0.0239;
113.7000;0.1481;-0.0430;
114.0000;0.1530;-0.0311;
114.3000;0.1538;-0.0239;
114.6000;0.1514;-0.0239;
114.9000;0.1579;0.0072;
115.2000;0.1530;-0.0024;
115.5000;0.1547;0.0000;
115.8000;0.1522;-0.0048;
116.1000;0.1547;-0.0072;
116.4000;0.1530;-0.0143;
116.7000;0.1514;-0.0239;
117.0000;0.1530;-0.0167;
117.3000;0.1530;-0.0167;
117.6000;0.1547;-0.0096;
117.9000;0.1530;-0.0024;
118.2000;0.1522;-0.0048;
118.5000;0.1538;0.0048;
118.8000;0.1538;0.0024;
119.1000;0.1538;-0.0048;
119.4000;0.1514;-0.0119;
119.7000;0.1522;-0.0119;
120.0000;0.1530;-0.0072;
120.3000;0.1538;-0.0024;
120.6000;0.1595;0.0191;
120.9000;0.1628;0.0406;
121.2000;0.1538;0.0167;
121.5000;0.1530;0.0096;
121.8000;0.1481;-0.0072;
122.1000;0.1538;0.0072;
122.4000;0.1514;0.0000;
122.7000;0.1506;-0.0119;
123.0000;0.1400;-0.0454;
123.3000;0.1514;-0.0048;
123.6000;0.1579;0.0096;
123.9000;0.1530;-0.0048;
124.2000;0.1547;0.0096;
124.5000;0.1530;0.0024;
124.8000;0.1481;-0.0024;
125.1000;0.1522;0.0167;
125.4000;0.1514;0.0048;
125.7000;0.1490;-0.0024;
126.0000;0.1514;0.0048;
126.3000;0.1555;0.0024;
126.6000;0.1538;-0.0024;
126.9000;0.1514;-0.0096;
127.2000;0.1555;-0.0096;
127.5000;0.1522;-0.0191;
127.8000;0.1530;-0.0167;
128.1000;0.1498;-0.0143;
128.4000;0.1538;0.0024;
128.7000;0.1522;0.0048;
129.0000;0.1481;-0.0072;
129.3000;0.1538;0.0072;
129.6000;0.1530;0.0119;
129.9000;0.1481;0.0096;
130.2000;0.1530;0.0167;
130.5000;0.1514;0.0191;
130.8000;0.1498;0.0072;
131.1000;0.1514;0.0048;
131.4000;0.1514;0.0072;
131.7000;0.1636;0.0430;
132.0000;0.1522;0.0143;
132.3000;0.1571;0.0287;
132.6000;0.1490;0.0119;
132.9000;0.1522;0.0096;
133.2000;0.1522;0.0072;
133.5000;0.1522;0.0096;
133.8000;0.1538;0.0119;
134.1000;0.1563;0.0167;
134.4000;0.1506;0.0024;
134.7000;0.1530;0.0024;
135.0000;0.1538;0.0048;
135.3000;0.1514;0.0000;
135.6000;0.1514;0.0000;
135.9000;0.1514;-0.0024;
136.2000;0.1538;-0.0024;
136.5000;0.1514;-0.0167;
136.8000;0.1506;-0.0239;
137.1000;0.1530;-0.0119;
137.4000;0.1457;-0.0263;
137.7000;0.1538;-0.0048;
138.0000;0.1522;-0.0096;
138.3000;0.1522;-0.0143;
138.6000;0.1522;-0.0215;
138.9000;0.1530;-0.0167;
139.2000;0.1530;-0.0143;
139.5000;0.1481;-0.0215;
139.8000;0.1522;0.0024;
140.1000;0.1522;0.0000;
140.4000;0.1555;0.0048;
140.7000;0.1555;0.0024;
141.0000;0.1522;-0.0119;
141.3000;0.1506;-0.0119;
141.6000;0.1522;-0.0096;
141.9000;0.1522;-0.0048;
142.2000;0.1506;-0.0072;
142.5000;0.1530;0.0000;
142.8000;0.1522;-0.0024;
143.1000;0.1473;-0.0143;
143.4000;0.1522;-0.0024;
143.7000;0.1506;-0.0096;
144.0000;0.1522;0.0072;
144.3000;0.1547;0.0072;
144.6000;0.1522;0.0000;
144.9000;0.1506;0.0000;
145.2000;0.1547;0.0119;
145.5000;0.1555;0.0119;
145.8000;0.1538;0.0167;
146.1000;0.1514;0.0167;
146.4000;0.1522;0.0143;
146.7000;0.1498;0.0072;
147.0000;0.1530;0.0143;
147.3000;0.1530;0.0096;
147.6000;0.1522;0.0072;
147.9000;0.1522;-0.0024;
148.2000;0.1514;0.0048;
148.5000;0.1522;-0.0048;
148.8000;0.1522;0.0000;
149.1000;0.1530;0.0096;
149.4000;0.1563;0.0215;
149.7000;0.1530;0.0167;
150.0000;0.1530;0.0048;
150.3000;0.1441;-0.0191;
150.6000;0.1530;0.0000;
150.9000;0.1530;0.0048;
151.2000;0.1506;0.0024;
151.5000;0.1547;0.0072;
151.8000;0.1506;-0.0096;
152.1000;0.1555;-0.0048;
152.4000;0.1498;-0.0167;
152.7000;0.1530;-0.0048;
153.0000;0.1587;0.0167;
153.3000;0.1547;0.0119;
153.6000;0.1514;-0.0024;
153.9000;0.1522;-0.0024;
154.2000;0.1514;0.0024;
154.5000;0.1522;0.0024;
154.8000;0.1530;-0.0024;
155.1000;0.1522;0.0048;
155.4000;0.1522;0.0072;
155.7000;0.1514;0.0024;
156.0000;0.1555;0.0000;
156.3000;0.1652;0.0239;
156.6000;0.1547;0.0000;
156.9000;0.1538;-0.0072;
157.2000;0.1563;-0.0096;
157.5000;0.1538;-0.0024;
157.8000;0.1514;0.0000;
158.1000;0.1514;0.0048;
158.4000;0.1587;0.0191;
158.7000;0.1506;0.0000;
159.0000;0.1514;-0.0024;
159.3000;0.1644;0.0263;
159.6000;0.1677;0.0335;
159.9000;0.1498;-0.0143;
160.2000;0.1522;-0.0072;
160.5000;0.1514;-0.0096;
160.8000;0.1579;0.0000;
161.1000;0.1547;-0.0096;
161.4000;0.1490;-0.0239;
161.7000;0.1555;-0.0048;
162.0000;0.1473;-0.0119;
162.3000;0.1522;-0.0048;
162.6000;0.1538;0.0096;
162.9000;0.1498;-0.0048;
163.2000;0.1522;0.0000;
163.5000;0.1530;-0.0072;
163.8000;0.1547;-0.0096;
164.1000;0.1498;-0.0239;
164.4000;0.1563;-0.0072;
164.7000;0.1604;0.0048;
165.0000;0.1522;-0.0143;
165.3000;0.1530;-0.0191;
165.6000;0.1522;-0.0263;
165.9000;0.1490;-0.0239;
166.2000;0.1538;-0.0048;
166.5000;0.1547;0.0072;
166.8000;0.1530;-0.0072;
167.1000;0.1514;-0.0096;
167.4000;0.1530;-0.0096;
167.7000;0.1522;-0.0048;
168.0000;0.1514;-0.0096;
168.3000;0.1498;-0.0096;
168.6000;0.1522;-0.0096;
168.9000;0.1530;-0.0119;
169.2000;0.1522;-0.0119;
169.5000;0.1506;-0.0096;
169.8000;0.1547;0.0072;
170.1000;0.1400;-0.0335;
170.4000;0.1506;0.0000;
170.7000;0.1522;0.0024;
171.0000;0.1530;0.0024;
171.3000;0.1547;0.0072;
171.6000;0.1538;0.0048;
171.9000;0.1522;-0.0024;
172.2000;0.1538;0.0048;
172.5000;0.1530;0.0072;
172.8000;0.1587;0.0191;
173.1000;0.1547;0.0024;
173.4000;0.1465;-0.0167;
173.7000;0.1538;-0.0143;
174.0000;0.1530;-0.0119;
174.3000;0.1661;0.0239;
174.6000;0.1506;-0.0119;
174.9000;0.1530;-0.0024;
175.2000;0.1498;-0.0096;
175.5000;0.1522;-0.0048;
175.8000;0.1547;-0.0072;
176.1000;0.1514;-0.0119;
176.4000;0.1530;-0.0024;
176.7000;0.1538;-0.0048;
177.0000;0.1522;-0.0096;
177.3000;0.1473;-0.0096;
177.6000;0.1522;0.0119;
177.9000;0.1514;0.0119;
178.2000;0.1547;0.0143;
178.5000;0.1514;0.0024;
178.8000;0.1506;0.0000;
179.1000;0.1547;0.0048;
179.4000;0.1530;0.0048;
179.7000;0.1530;0.0024;
180.0000;0.1530;0.0000;
180.3000;0.1473;-0.0096;
180.6000;0.1538;0.0143;
180.9000;0.1408;-0.0167;
181.2000;0.1636;0.0382;
181.5000;0.1514;0.0048;
181.8000;0.1514;0.0000;
182.1000;0.1538;0.0072;
182.4000;0.1490;-0.0024;
182.7000;0.1538;0.0096;
183.0000;0.1530;0.0167;
183.3000;0.1530;0.0072;
183.6000;0.1522;0.0048;
183.9000;0.1522;0.0024;
184.2000;0.1555;0.0119;
184.5000;0.1522;0.0024;
184.8000;0.1514;-0.0024;
185.1000;0.1514;0.0000;
185.4000;0.1538;0.0000;
185.7000;0.1555;0.0072;
186.0000;0.1522;-0.0024;
186.3000;0.1530;0.0024;
186.6000;0.1473;-0.0143;
186.9000;0.1506;-0.0024;
187.2000;0.1514;0.0024;
187.5000;0.1522;0.0072;
187.8000;0.1522;0.0048;
188.1000;0.1530;0.0119;
188.4000;0.1563;0.0215;
188.7000;0.1522;0.0072;
189.0000;0.1522;0.0024;
189.3000;0.1522;0.0048;
189.6000;0.1522;0.0024;
189.9000;0.1506;0.0072;
190.2000;0.1587;0.0191;
190.5000;0.1514;-0.0119;
190.8000;0.1514;-0.0143;
191.1000;0.1538;-0.0167;
191.4000;0.1530;-0.0119;
191.7000;0.1514;-0.0215;
192.0000;0.1530;-0.0167;
192.3000;0.1506;-0.0191;
192.6000;0.1522;-0.0143;
192.9000;0.1604;0.0000;
193.2000;0.1636;0.0119;
193.5000;0.1514;-0.0191;
193.8000;0.1490;-0.0263;
194.1000;0.1530;-0.0215;
194.4000;0.1547;-0.0096;
194.7000;0.1530;-0.0191;
195.0000;0.1530;-0.0143;
195.3000;0.1538;-0.0119;
195.6000;0.1538;-0.0215;
195.9000;0.1538;-0.0239;
196.2000;0.1514;-0.0263;
196.5000;0.1506;-0.0287;
196.8000;0.1522;-0.0335;
197.1000;0.1555;-0.0215;
197.4000;0.1612;-0.0096;
197.7000;0.1522;-0.0239;
198.0000;0.1538;-0.0143;
198.3000;0.1530;-0.0143;
198.6000;0.1530;-0.0143;
198.9000;0.1547;-0.0072;
199.2000;0.1506;-0.0096;
199.5000;0.1547;0.0024;
199.8000;0.1538;0.0000;
200.1000;0.1538;-0.0072;
200.4000;0.1530;-0.0096;
200.7000;0.1538;-0.0048;
201.0000;0.1547;0.0000;
201.3000;0.1563;0.0048;
201.6000;0.1514;0.0000;
201.9000;0.1530;0.0119;
202.2000;0.1506;-0.0072;
202.5000;0.1547;0.0048;
202.8000;0.1522;-0.0096;
203.1000;0.1514;-0.0072;
203.4000;0.1547;0.0048;
203.7000;0.1538;-0.0024;
204.0000;0.1538;-0.0072;
204.3000;0.1530;-0.0119;
204.6000;0.1514;-0.0143;
204.9000;0.1538;-0.0143;
205.2000;0.1604;0.0143;
205.5000;0.1481;-0.0167;
205.8000;0.1538;0.0000;
206.1000;0.1481;-0.0143;
206.4000;0.1506;-0.0119;
206.7000;0.1522;-0.0048;
207.0000;0.1506;-0.0072;
207.3000;0.1514;-0.0096;
207.6000;0.1514;0.0024;
207.9000;0.1522;0.0119;
208.2000;0.1530;0.0072;
208.5000;0.1522;0.0024;
208.8000;0.1457;-0.0143;
209.1000;0.1514;0.0024;
209.4000;0.1547;0.0024;
209.7000;0.1555;0.0072;
210.0000;0.1538;0.0096;
210.3000;0.1530;0.0096;
210.6000;0.1514;-0.0024;
210.9000;0.1538;-0.0072;
211.2000;0.1530;-0.0072;
211.5000;0.1538;-0.0119;
211.8000;0.1506;-0.0119;
212.1000;0.1538;-0.0096;
212.4000;0.1538;-0.0072;
212.7000;0.1563;0.0024;
213.0000;0.1514;-0.0119;
213.3000;0.1522;-0.0096;
213.6000;0.1522;-0.0072;
213.9000;0.1530;0.0000;
214.2000;0.1514;-0.0072;
214.5000;0.1522;-0.0143;
214.8000;0.1506;-0.0191;
215.1000;0.1538;-0.0072;
215.4000;0.1538;-0.0096;
215.7000;0.1514;-0.0024;
216.0000;0.1530;0.0024;
216.3000;0.1522;-0.0072;
216.6000;0.1530;-0.0096;
216.9000;0.1522;-0.0096;
217.2000;0.1522;-0.0143;
217.5000;0.1522;-0.0096;
217.8000;0.1530;-0.0143;
218.1000;0.1530;-0.0143;
218.4000;0.1555;-0.0143;
218.7000;0.1498;-0.0239;
219.0000;0.1538;-0.0143;
219.3000;0.1522;-0.0167;
219.6000;0.1563;-0.0024;
219.9000;0.1595;0.0096;
220.2000;0.1538;0.0024;
220.5000;0.1530;0.0000;
220.8000;0.1522;-0.0096;
221.1000;0.1522;-0.0143;
221.4000;0.1587;0.0000;
221.7000;0.1449;-0.0335;
222.0000;0.1514;-0.0072;
222.3000;0.1522;-0.0096;
222.6000;0.1498;-0.0143;
222.9000;0.1563;0.0167;
223.2000;0.1522;0.0048;
223.5000;0.1522;0.0048;
223.8000;0.1481;-0.0119;
224.1000;0.1530;-0.0048;
224.4000;0.1538;0.0024;
224.7000;0.1457;-0.0096;
225.0000;0.1506;0.0024;
225.3000;0.1530;0.0048;
225.6000;0.1579;0.0119;
225.9000;0.1530;-0.0096;
226.2000;0.1530;-0.0096;
226.5000;0.1530;-0.0191;
226.8000;0.1538;-0.0239;
227.1000;0.1514;-0.0335;
227.4000;0.1498;-0.0478;
227.7000;0.1490;-0.0502;
228.0000;0.1514;-0.0406;
228.3000;0.1530;-0.0478;
228.6000;0.1604;-0.0215;
228.9000;0.1579;-0.0335;
229.2000;0.1522;-0.0526;
229.5000;0.1416;-0.0812;
229.8000;0.1563;-0.0478;
230.1000;0.1522;-0.0454;
230.4000;0.1612;-0.0167;
230.7000;0.1522;-0.0311;
231.0000;0.1538;-0.0239;
231.3000;0.1384;-0.0621;
231.6000;0.1563;-0.0287;
231.9000;0.1522;-0.0382;
232.2000;0.1628;-0.0072;
232.5000;0.1506;-0.0406;
232.8000;0.1514;-0.0430;
233.1000;0.1522;-0.0382;
233.4000;0.1547;-0.0287;
233.7000;0.1522;-0.0215;
234.0000;0.1514;-0.0287;
234.3000;0.1473;-0.0358;
234.6000;0.1506;-0.0335;
234.9000;0.1514;-0.0311;
235.2000;0.1522;-0.0311;
235.5000;0.1555;-0.0287;
235.8000;0.1481;-0.0526;
236.1000;0.1530;-0.0287;
236.4000;0.1506;-0.0263;
236.7000;0.1530;-0.0143;
237.0000;0.1612;0.0048;
237.3000;0.1547;-0.0096;
237.6000;0.1530;-0.0191;
237.9000;0.1514;-0.0287;
238.2000;0.1457;-0.0430;
238.5000;0.1514;-0.0263;
238.8000;0.1514;-0.0239;
239.1000;0.1514;-0.0263;
239.4000;0.1530;-0.0215;
239.7000;0.1547;-0.0119;
240.0000;0.1425;-0.0597;
240.3000;0.1522;-0.0335;
240.6000;0.1538;-0.0239;
240.9000;0.1538;-0.0215;
241.2000;0.1506;-0.0263;
241.5000;0.1522;-0.0311;
241.8000;0.1506;-0.0430;
242.1000;0.1530;-0.0382;
242.4000;0.1555;-0.0335;
242.7000;0.1538;-0.0358;
243.0000;0.1530;-0.0358;
243.3000;0.1530;-0.0478;
243.6000;0.1530;-0.0454;
243.9000;0.1530;-0.0406;
244.2000;0.1481;-0.0526;
244.5000;0.1538;-0.0382;
244.8000;0.1522;-0.0287;
245.1000;0.1522;-0.0311;
245.4000;0.1563;-0.0239;
245.7000;0.1579;-0.0167;
246.0000;0.1514;-0.0215;
246.3000;0.1538;-0.0167;
246.6000;0.1530;-0.0167;
246.9000;0.1490;-0.0335;
247.2000;0.1514;-0.0215;
247.5000;0.1547;-0.0191;
247.8000;0.1530;-0.0263;
248.1000;0.1522;-0.0287;
248.4000;0.1457;-0.0478;
248.7000;0.1514;-0.0287;
249.0000;0.1530;-0.0263;
249.3000;0.1563;-0.0287;
249.6000;0.1522;-0.0382;
249.9000;0.1522;-0.0287;
250.2000;0.1514;-0.0263;
250.5000;0.1530;-0.0167;
250.8000;0.1538;-0.0311;
251.1000;0.1514;-0.0406;
251.4000;0.1433;-0.0717;
251.7000;0.1530;-0.0335;
252.0000;0.1522;-0.0382;
252.3000;0.1530;-0.0287;
252.6000;0.1652;0.0048;
252.9000;0.1530;-0.0239;
253.2000;0.1587;0.0000;
253.5000;0.1547;-0.0096;
253.8000;0.1506;-0.0167;
254.1000;0.1522;-0.0143;
254.4000;0.1547;-0.0096;
254.7000;0.1620;0.0072;
255.0000;0.1514;-0.0239;
255.3000;0.1530;-0.0239;
255.6000;0.1538;-0.0215;
255.9000;0.1538;-0.0167;
256.2000;0.1473;-0.0263;
256.5000;0.1522;-0.0167;
256.8000;0.1522;-0.0167;
257.1000;0.1522;-0.0239;
257.4000;0.1530;-0.0215;
257.7000;0.1563;-0.0096;
258.0000;0.1514;-0.0167;
258.3000;0.1547;-0.0072;
258.6000;0.1498;-0.0167;
258.9000;0.1555;-0.0024;
259.2000;0.1506;-0.0143;
259.5000;0.1498;-0.0143;
259.8000;0.1498;-0.0143;
260.1000;0.1514;-0.0048;
260.4000;0.1530;-0.0143;
260.7000;0.1538;-0.0167;
261.0000;0.1571;-0.0191;
261.3000;0.1514;-0.0358;
261.6000;0.1514;-0.0311;
261.9000;0.1547;-0.0215;
262.2000;0.1514;-0.0311;
262.5000;0.1547;-0.0215;
262.8000;0.1579;-0.0048;
263.1000;0.1530;-0.0119;
263.4000;0.1522;-0.0191;
263.7000;0.1547;-0.0167;
264.0000;0.1555;-0.0143;
264.3000;0.1522;-0.0191;
264.6000;0.1555;-0.0143;
264.9000;0.1522;-0.0215;
265.2000;0.1416;-0.0430;
265.5000;0.1547;-0.0048;
265.8000;0.1522;-0.0024;
266.1000;0.1506;-0.0119;
266.4000;0.1538;-0.0024;
266.7000;0.1530;-0.0048;
267.0000;0.1498;-0.0119;
267.3000;0.1612;0.0263;
267.6000;0.1522;-0.0024;
267.9000;0.1538;0.0000;
268.2000;0.1547;0.0072;
268.5000;0.1547;0.0048;
268.8000;0.1522;-0.0048;
269.1000;0.1538;-0.0072;
269.4000;0.1522;-0.0119;
269.7000;0.1522;-0.0215;
270.0000;0.1506;-0.0311;
270.3000;0.1481;-0.0430;
270.6000;0.1530;-0.0311;
270.9000;0.1547;-0.0311;
271.2000;0.1506;-0.0406;
271.5000;0.1506;-0.0478;
271.8000;0.1530;-0.0502;
272.1000;0.1457;-0.0717;
272.4000;0.1547;-0.0430;
272.7000;0.1514;-0.0526;
273.0000;0.1547;-0.0430;
273.3000;0.1449;-0.0693;
273.6000;0.1514;-0.0430;
273.9000;0.1498;-0.0382;
274.2000;0.1457;-0.0502;
274.5000;0.1514;-0.0311;
274.8000;0.1555;-0.0215;
275.1000;0.1490;-0.0406;
275.4000;0.1530;-0.0382;
275.7000;0.1530;-0.0335;
276.0000;0.1538;-0.0311;
276.3000;0.1514;-0.0358;
276.6000;0.1530;-0.0311;
276.9000;0.1530;-0.0311;
277.2000;0.1547;-0.0263;
277.5000;0.1530;-0.0335;
277.8000;0.1498;-0.0406;
278.1000;0.1506;-0.0406;
278.4000;0.1555;-0.0287;
278.7000;0.1522;-0.0358;
279.0000;0.1530;-0.0382;
279.3000;0.1522;-0.0358;
279.6000;0.1538;-0.0311;
279.9000;0.1449;-0.0454;
280.2000;0.1530;-0.0287;
280.5000;0.1465;-0.0478;
280.8000;0.1530;-0.0335;
281.1000;0.1530;-0.0287;
281.4000;0.1522;-0.0287;
281.7000;0.1522;-0.0311;
282.0000;0.1514;-0.0335;
282.3000;0.1522;-0.0263;
282.6000;0.1522;-0.0167;
282.9000;0.1506;-0.0215;
283.2000;0.1465;-0.0215;
283.5000;0.1522;-0.0096;
283.8000;0.1555;0.0048;
284.1000;0.1538;0.0048;
284.4000;0.1473;-0.0191;
284.7000;0.1522;-0.0024;
285.0000;0.1555;-0.0024;
285.3000;0.1522;-0.0191;
285.6000;0.1522;-0.0239;
285.9000;0.1538;-0.0263;
286.2000;0.1490;-0.0382;
286.5000;0.1522;-0.0167;
286.8000;0.1547;-0.0119;
287.1000;0.1514;-0.0167;
287.4000;0.1555;-0.0143;
287.7000;0.1506;-0.0263;
288.0000;0.1522;-0.0215;
288.3000;0.1538;-0.0215;
288.6000;0.1530;-0.0191;
288.9000;0.1506;-0.0335;
289.2000;0.1522;-0.0263;
289.5000;0.1538;-0.0311;
289.8000;0.1538;-0.0263;
290.1000;0.1514;-0.0311;
290.4000;0.1522;-0.0287;
290.7000;0.1506;-0.0311;
291.0000;0.1522;-0.0311;
291.3000;0.1538;-0.0191;
291.6000;0.1530;-0.0311;
291.9000;0.1514;-0.0358;
292.2000;0.1538;-0.0311;
292.5000;0.1555;-0.0335;
292.8000;0.1425;-0.0717;
293.1000;0.1522;-0.0454;
293.4000;0.1555;-0.0311;
293.7000;0.1514;-0.0311;
294.0000;0.1530;-0.0287;
294.3000;0.1530;-0.0239;
294.6000;0.1514;-0.0311;
294.9000;0.1514;-0.0382;
295.2000;0.1538;-0.0287;
295.5000;0.1514;-0.0382;
295.8000;0.1547;-0.0382;
296.1000;0.1506;-0.0430;
296.4000;0.1538;-0.0287;
296.7000;0.1506;-0.0382;
297.0000;0.1538;-0.0358;
297.3000;0.1522;-0.0311;
297.6000;0.1522;-0.0215;
297.9000;0.1530;-0.0215;
298.2000;0.1522;-0.0239;
298.5000;0.1498;-0.0287;
298.8000;0.1514;-0.0215;
299.1000;0.1538;-0.0167;
299.4000;0.1538;-0.0167;
299.7000;0.1514;-0.0143;
300.0000;0.1530;-0.0143;
300.3000;0.1547;-0.0096;
300.6000;0.1530;-0.0072;
300.9000;0.1522;-0.0191;
301.2000;0.1514;-0.0215;
301.5000;0.1538;-0.0096;
301.8000;0.1514;-0.0191;
302.1000;0.1522;-0.0167;
302.4000;0.1522;-0.0024;
302.7000;0.1530;0.0000;
303.0000;0.1522;0.0000;
303.3000;0.1506;-0.0024;
303.6000;0.1514;0.0000;
303.9000;0.1538;0.0000;
304.2000;0.1522;0.0000;
304.5000;0.1506;-0.0096;
304.8000;0.1514;-0.0072;
305.1000;0.1547;-0.0096;
305.4000;0.1514;-0.0167;
305.7000;0.1522;-0.0096;
306.0000;0.1506;-0.0143;
306.3000;0.1530;-0.0119;
306.6000;0.1530;-0.0072;
306.9000;0.1530;-0.0096;
307.2000;0.1547;-0.0024;
307.5000;0.1530;-0.0048;
307.8000;0.1522;-0.0024;
308.1000;0.1530;-0.0024;
308.4000;0.1538;0.0048;
308.7000;0.1514;-0.0048;
309.0000;0.1530;0.0024;
309.3000;0.1538;0.0119;
309.6000;0.1498;-0.0048;
309.9000;0.1547;0.0000;
310.2000;0.1604;0.0191;
310.5000;0.1538;0.0024;
310.8000;0.1547;-0.0048;
311.1000;0.1498;-0.0263;
311.4000;0.1498;-0.0191;
311.7000;0.1530;-0.0096;
312.0000;0.1506;-0.0239;
312.3000;0.1522;-0.0215;
312.6000;0.1506;-0.0191;
312.9000;0.1514;-0.0119;
313.2000;0.1530;0.0000;
313.5000;0.1514;0.0000;
313.8000;0.1530;-0.0048;
314.1000;0.1538;0.0048;
314.4000;0.1490;-0.0096;
314.7000;0.1530;-0.0048;
315.0000;0.1530;-0.0072;
315.3000;0.1530;-0.0024;
315.6000;0.1514;-0.0072;
315.9000;0.1408;-0.0358;
316.2000;0.1522;0.0000;
316.5000;0.1481;0.0048;
316.8000;0.1522;0.0096;
317.1000;0.1538;0.0096;
317.4000;0.1522;0.0072;
317.7000;0.1514;-0.0024;
318.0000;0.1522;0.0024;
318.3000;0.1498;0.0024;
318.6000;0.1538;0.0096;
318.9000;0.1522;0.0072;
319.2000;0.1506;0.0024;
319.5000;0.1506;0.0024;
319.8000;0.1538;0.0072;
320.1000;0.1530;0.0000;
320.4000;0.1498;-0.0167;
320.7000;0.1538;-0.0024;
321.0000;0.1530;-0.0024;
321.3000;0.1522;-0.0024;
321.6000;0.1555;-0.0048;
321.9000;0.1522;-0.0119;
322.2000;0.1514;-0.0096;
322.5000;0.1506;-0.0072;
322.8000;0.1514;-0.0072;
323.1000;0.1530;-0.0048;
323.4000;0.1514;-0.0024;
323.7000;0.1538;-0.0024;
324.0000;0.1522;-0.0072;
324.3000;0.1514;-0.0096;
324.6000;0.1514;-0.0072;
324.9000;0.1465;-0.0215;
325.2000;0.1522;-0.0119;
325.5000;0.1441;-0.0358;
325.8000;0.1726;0.0335;
326.1000;0.1522;-0.0215;
326.4000;0.1522;-0.0167;
326.7000;0.1506;-0.0191;
327.0000;0.1547;-0.0119;
327.3000;0.1514;-0.0287;
327.6000;0.1506;-0.0335;
327.9000;0.1514;-0.0311;
328.2000;0.1530;-0.0239;
328.5000;0.1506;-0.0167;
328.8000;0.1547;-0.0048;
329.1000;0.1522;-0.0048;
329.4000;0.1522;-0.0143;
329.7000;0.1481;-0.0167;
330.0000;0.1555;0.0096;
330.3000;0.1555;0.0119;
330.6000;0.1571;0.0167;
330.9000;0.1522;0.0072;
331.2000;0.1661;0.0454;
331.5000;0.1579;0.0167;
331.8000;0.1506;-0.0072;
332.1000;0.1530;0.0024;
332.4000;0.1530;-0.0048;
332.7000;0.1661;0.0311;
333.0000;0.1465;-0.0191;
333.3000;0.1538;0.0072;
333.6000;0.1555;0.0167;
333.9000;0.1547;0.0096;
334.2000;0.1571;0.0191;
334.5000;0.1587;0.0263;
334.8000;0.1522;-0.0024;
335.1000;0.1538;-0.0024;
335.4000;0.1514;-0.0096;
335.7000;0.1538;-0.0048;
336.0000;0.1514;-0.0119;
336.3000;0.1587;0.0048;
336.6000;0.1563;-0.0048;
336.9000;0.1530;-0.0239;
337.2000;0.1514;-0.0287;
337.5000;0.1514;-0.0287;
337.8000;0.1506;-0.0287;
338.1000;0.1522;-0.0215;
338.4000;0.1522;-0.0215;
338.7000;0.1522;-0.0239;
339.0000;0.1481;-0.0311;
339.3000;0.1538;-0.0119;
339.6000;0.1530;-0.0096;
339.9000;0.1408;-0.0382;
340.2000;0.1506;-0.0191;
340.5000;0.1530;-0.0167;
340.8000;0.1457;-0.0335;
341.1000;0.1506;-0.0263;
341.4000;0.1490;-0.0263;
341.7000;0.1530;-0.0191;
342.0000;0.1514;-0.0167;
342.3000;0.1514;-0.0143;
342.6000;0.1490;-0.0167;
342.9000;0.1555;-0.0048;
343.2000;0.1514;-0.0191;
343.5000;0.1514;-0.0119;
343.8000;0.1538;-0.0072;
344.1000;0.1514;-0.0191;
344.4000;0.1498;-0.0335;
344.7000;0.1514;-0.0263;
345.0000;0.1538;-0.0143;
345.3000;0.1595;0.0000;
345.6000;0.1522;-0.0119;
345.9000;0.1620;0.0143;
346.2000;0.1522;-0.0024;
346.5000;0.1481;-0.0096;
346.8000;0.1620;0.0239;
347.1000;0.1506;-0.0048;
347.4000;0.1628;0.0263;
347.7000;0.1498;-0.0119;
348.0000;0.1530;0.0024;
348.3000;0.1522;0.0000;
348.6000;0.1530;0.0024;
348.9000;0.1547;0.0024;
349.2000;0.1530;-0.0048;
349.5000;0.1595;0.0096;
349.8000;0.1498;-0.0143;
350.1000;0.1506;-0.0048;
350.4000;0.1563;0.0024;
350.7000;0.1506;-0.0119;
351.0000;0.1522;-0.0072;
351.3000;0.1547;0.0048;
351.6000;0.1547;0.0048;
351.9000;0.1514;0.0024;
352.2000;0.1547;0.0072;
352.5000;0.1604;0.0215;
352.8000;0.1530;0.0000;
353.1000;0.1506;-0.0072;
353.4000;0.1530;0.0000;
353.7000;0.1547;0.0096;
354.0000;0.1530;0.0048;
354.3000;0.1522;-0.0024;
354.6000;0.1555;0.0048;
354.9000;0.1530;0.0000;
355.2000;0.1514;-0.0048;
355.5000;0.1522;-0.0072;
355.8000;0.1538;0.0024;
356.1000;0.1506;0.0024;
356.4000;0.1547;0.0119;
356.7000;0.1579;0.0191;
357.0000;0.1538;0.0072;
357.3000;0.1547;0.0119;
357.6000;0.1522;0.0096;
357.9000;0.1359;-0.0335;
358.2000;0.1498;0.0167;
358.5000;0.1506;0.0215;
358.8000;0.1530;0.0191;
359.1000;0.1514;0.0096;
359.4000;0.1457;-0.0096;
359.7000;0.1522;0.0072;
360.0000;0.1514;0.0096;
360.3000;0.1538;0.0072;
360.6000;0.1522;0.0048;
360.9000;0.1547;0.0096;
361.2000;0.1628;0.0287;
361.5000;0.1522;0.0048;
361.8000;0.1514;0.0048;
362.1000;0.1498;0.0024;
362.4000;0.1506;0.0048;
362.7000;0.1522;0.0119;
363.0000;0.1514;0.0119;
363.3000;0.1506;0.0167;
363.6000;0.1547;0.0191;
363.9000;0.1530;0.0143;
364.2000;0.1425;-0.0072;
364.5000;0.1547;0.0311;
364.8000;0.1538;0.0335;
365.1000;0.1555;0.0406;
365.4000;0.1514;0.0215;
365.7000;0.1530;0.0287;
366.0000;0.1547;0.0335;
366.3000;0.1457;0.0072;
366.6000;0.1530;0.0239;
366.9000;0.1514;0.0167;
367.2000;0.1595;0.0335;
367.5000;0.1555;0.0239;
367.8000;0.1522;0.0215;
368.1000;0.1514;0.0215;
368.4000;0.1522;0.0263;
368.7000;0.1538;0.0191;
369.0000;0.1514;0.0119;
369.3000;0.1490;0.0024;
369.6000;0.1514;0.0024;
369.9000;0.1481;-0.0048;
370.2000;0.1555;0.0072;
370.5000;0.1514;-0.0048;
370.8000;0.1530;0.0024;
371.1000;0.1530;0.0024;
371.4000;0.1473;-0.0143;
371.7000;0.1481;-0.0096;
372.0000;0.1514;-0.0024;
372.3000;0.1547;0.0024;
372.6000;0.1514;-0.0167;
372.9000;0.1514;-0.0191;
373.2000;0.1490;-0.0263;
373.5000;0.1457;-0.0406;
373.8000;0.1522;-0.0239;
374.1000;0.1522;-0.0191;
374.4000;0.1555;-0.0167;
374.7000;0.1530;-0.0263;
375.0000;0.1530;-0.0287;
375.3000;0.1522;-0.0263;
375.6000;0.1514;-0.0215;
375.9000;0.1522;-0.0119;
376.2000;0.1514;-0.0096;
376.5000;0.1595;0.0096;
376.8000;0.1547;-0.0024;
377.1000;0.1522;-0.0119;
377.4000;0.1514;-0.0072;
377.7000;0.1538;0.0048;
378.0000;0.1547;0.0024;
378.3000;0.1547;0.0096;
378.6000;0.1522;0.0072;
378.9000;0.1514;0.0072;
379.2000;0.1490;0.0024;
379.5000;0.1514;0.0119;
379.8000;0.1530;0.0072;
380.1000;0.1498;-0.0024;
380.4000;0.1522;0.0000;
380.7000;0.1506;-0.0096;
381.0000;0.1563;0.0024;
381.3000;0.1490;-0.0167;
381.6000;0.1530;-0.0072;
381.9000;0.1522;-0.0119;
382.2000;0.1579;0.0072;
382.5000;0.1612;0.0143;
382.8000;0.1498;-0.0072;
383.1000;0.1522;0.0000;
383.4000;0.1538;0.0048;
383.7000;0.1490;-0.0048;
384.0000;0.1571;0.0119;
384.3000;0.1506;-0.0096;
384.6000;0.1522;-0.0048;
384.9000;0.1416;-0.0382;
385.2000;0.1514;-0.0143;
385.5000;0.1538;-0.0048;
385.8000;0.1538;0.0024;
386.1000;0.1522;-0.0048;
386.4000;0.1522;-0.0096;
386.7000;0.1530;-0.0072;
387.0000;0.1538;-0.0096;
387.3000;0.1522;-0.0048;
387.6000;0.1514;-0.0167;
387.9000;0.1522;-0.0072;
388.2000;0.1538;-0.0024;
388.5000;0.1563;0.0072;
388.8000;0.1538;0.0048;
389.1000;0.1547;0.0096;
389.4000;0.1522;0.0072;
389.7000;0.1441;-0.0119;
390.0000;0.1538;0.0143;
390.3000;0.1498;0.0024;
390.6000;0.1555;0.0072;
390.9000;0.1522;0.0000;
391.2000;0.1571;0.0143;
391.5000;0.1506;-0.0096;
391.8000;0.1530;-0.0024;
392.1000;0.1506;0.0000;
392.4000;0.1530;0.0000;
392.7000;0.1530;-0.0048;
393.0000;0.1530;0.0000;
393.3000;0.1579;0.0143;
393.6000;0.1547;-0.0072;
393.9000;0.1514;-0.0048;
394.2000;0.1530;0.0024;
394.5000;0.1433;-0.0239;
394.8000;0.1555;0.0096;
395.1000;0.1522;0.0024;
395.4000;0.1530;0.0048;
395.7000;0.1547;0.0119;
396.0000;0.1514;0.0048;
396.3000;0.1522;0.0119;
396.6000;0.1457;-0.0024;
396.9000;0.1530;0.0191;
397.2000;0.1506;0.0167;
397.5000;0.1514;0.0215;
397.8000;0.1506;0.0167;
398.1000;0.1514;0.0072;
398.4000;0.1514;0.0119;
398.7000;0.1514;0.0096;
399.0000;0.1530;0.0167;
399.3000;0.1522;0.0215;
399.6000;0.1555;0.0263;
399.9000;0.1506;0.0072;
400.2000;0.1498;0.0072;
400.5000;0.1522;0.0096;
400.8000;0.1514;0.0048;
401.1000;0.1457;-0.0096;
401.4000;0.1506;0.0024;
401.7000;0.1530;0.0048;
402.0000;0.1506;0.0048;
402.3000;0.1522;0.0072;
402.6000;0.1514;0.0024;
402.9000;0.1506;-0.0072;
403.2000;0.1604;0.0048;
403.5000;0.1538;-0.0167;
403.8000;0.1514;-0.0191;
404.1000;0.1547;-0.0119;
404.4000;0.1530;-0.0072;
404.7000;0.1547;0.0000;
405.0000;0.1530;-0.0096;
405.3000;0.1555;0.0024;
405.6000;0.1506;-0.0048;
405.9000;0.1506;-0.0024;
406.2000;0.1538;0.0096;
406.5000;0.1522;0.0096;
406.8000;0.1522;0.0096;
407.1000;0.1530;0.0167;
407.4000;0.1449;-0.0072;
407.7000;0.1530;0.0191;
408.0000;0.1514;0.0191;
408.3000;0.1514;0.0239;
408.6000;0.1530;0.0311;
408.9000;0.1522;0.0287;
409.2000;0.1538;0.0287;
409.5000;0.1530;0.0335;
409.8000;0.1522;0.0287;
410.1000;0.1530;0.0287;
410.4000;0.1547;0.0311;
410.7000;0.1522;0.0215;
411.0000;0.1530;0.0167;
411.3000;0.1530;0.0143;
411.6000;0.1530;0.0215;
411.9000;0.1530;0.0143;
412.2000;0.1636;0.0358;
412.5000;0.1538;0.0072;
412.8000;0.1514;0.0119;
413.1000;0.1506;0.0143;
413.4000;0.1538;0.0191;
413.7000;0.1530;0.0143;
414.0000;0.1530;0.0143;
414.3000;0.1465;-0.0048;
414.6000;0.1522;0.0072;
414.9000;0.1522;0.0096;
415.2000;0.1530;0.0048;
415.5000;0.1530;0.0119;
415.8000;0.1522;0.0143;
416.1000;0.1538;0.0119;
416.4000;0.1522;0.0119;
416.7000;0.1530;0.0072;
417.0000;0.1522;0.0072;
417.3000;0.1514;0.0000;
417.6000;0.1522;0.0048;
417.9000;0.1522;0.0072;
418.2000;0.1538;0.0167;
418.5000;0.1506;0.0167;
418.8000;0.1514;0.0215;
419.1000;0.1530;0.0239;
419.4000;0.1514;0.0215;
419.7000;0.1530;0.0143;
420.0000;0.1530;0.0072;
420.3000;0.1628;0.0406;
420.6000;0.1530;0.0191;
420.9000;0.1514;0.0191;
421.2000;0.1538;0.0287;
421.5000;0.1628;0.0526;
421.8000;0.1538;0.0215;
422.1000;0.1522;0.0048;
422.4000;0.1522;0.0000;
422.7000;0.1604;0.0239;
423.0000;0.1547;0.0191;
423.3000;0.1538;0.0119;
423.6000;0.1530;0.0048;
423.9000;0.1530;-0.0024;
424.2000;0.1547;-0.0119;
424.5000;0.1530;-0.0191;
424.8000;0.1522;-0.0167;
425.1000;0.1555;-0.0048;
425.4000;0.1530;-0.0143;
425.7000;0.1530;-0.0215;
426.0000;0.1481;-0.0311;
426.3000;0.1498;-0.0191;
426.6000;0.1514;-0.0143;
426.9000;0.1530;-0.0119;
427.2000;0.1392;-0.0478;
427.5000;0.1538;-0.0119;
427.8000;0.1530;-0.0143;
428.1000;0.1522;-0.0119;
428.4000;0.1506;-0.0191;
428.7000;0.1506;-0.0191;
429.0000;0.1514;-0.0048;
429.3000;0.1538;0.0000;
429.6000;0.1530;-0.0048;
429.9000;0.1530;-0.0119;
430.2000;0.1530;-0.0048;
430.5000;0.1538;-0.0096;
430.8000;0.1579;0.0048;
431.1000;0.1522;-0.0072;
431.4000;0.1522;-0.0072;
431.7000;0.1514;-0.0143;
432.0000;0.1538;-0.0143;
432.3000;0.1530;-0.0167;
432.6000;0.1530;-0.0191;
432.9000;0.1433;-0.0526;
433.2000;0.1522;-0.0191;
433.5000;0.1538;-0.0191;
433.8000;0.1563;-0.0072;
434.1000;0.1514;-0.0167;
434.4000;0.1538;-0.0119;
434.7000;0.1514;-0.0119;
435.0000;0.1490;-0.0191;
435.3000;0.1522;-0.0143;
435.6000;0.1514;-0.0215;
435.9000;0.1538;-0.0191;
436.2000;0.1481;-0.0311;
436.5000;0.1538;-0.0119;
436.8000;0.1538;-0.0048;
437.1000;0.1481;-0.0191;
437.4000;0.1514;-0.0119;
437.7000;0.1652;0.0287;
438.0000;0.1547;-0.0048;
438.3000;0.1538;-0.0024;
438.6000;0.1522;-0.0096;
438.9000;0.1498;-0.0143;
439.2000;0.1530;-0.0119;
439.5000;0.1538;-0.0048;
439.8000;0.1522;-0.0048;
440.1000;0.1514;-0.0119;
440.4000;0.1538;0.0072;
440.7000;0.1522;0.0072;
441.0000;0.1530;0.0000;
441.3000;0.1538;0.0024;
441.6000;0.1555;0.0000;
441.9000;0.1506;-0.0119;
442.2000;0.1538;-0.0048;
442.5000;0.1522;-0.0096;
442.8000;0.1416;-0.0358;
443.1000;0.1522;-0.0048;
443.4000;0.1506;-0.0072;
443.7000;0.1547;-0.0024;
444.0000;0.1514;-0.0119;
444.3000;0.1514;-0.0072;
444.6000;0.1530;-0.0096;
444.9000;0.1514;-0.0119;
445.2000;0.1530;-0.0119;
445.5000;0.1522;-0.0072;
445.8000;0.1530;-0.0119;
446.1000;0.1522;-0.0096;
446.4000;0.1530;-0.0024;
446.7000;0.1481;-0.0072;
447.0000;0.1522;-0.0072;
447.3000;0.1514;-0.0048;
447.6000;0.1571;0.0143;
447.9000;0.1538;0.0072;
448.2000;0.1498;0.0048;
448.5000;0.1522;0.0143;
448.8000;0.1644;0.0430;
449.1000;0.1506;0.0048;
449.4000;0.1661;0.0502;
449.7000;0.1547;0.0072;
450.0000;0.1400;-0.0358;
450.3000;0.1522;-0.0072;
450.6000;0.1522;-0.0072;
450.9000;0.1514;-0.0024;
451.2000;0.1571;0.0143;
451.5000;0.1514;0.0024;
451.8000;0.1514;0.0024;
452.1000;0.1538;0.0048;
452.4000;0.1514;0.0024;
452.7000;0.1538;0.0119;
453.0000;0.1506;0.0096;
453.3000;0.1514;0.0119;
453.6000;0.1530;0.0143;
453.9000;0.1530;0.0215;
454.2000;0.1522;0.0167;
454.5000;0.1538;0.0167;
454.8000;0.1473;-0.0096;
455.1000;0.1538;0.0048;
455.4000;0.1530;0.0119;
455.7000;0.1522;0.0096;
456.0000;0.1522;0.0072;
456.3000;0.1530;0.0024;
456.6000;0.1506;0.0024;
456.9000;0.1514;-0.0048;
457.2000;0.1538;-0.0024;
457.5000;0.1547;-0.0024;
457.8000;0.1547;-0.0096;
458.1000;0.1506;-0.0143;
458.4000;0.1514;-0.0096;
458.7000;0.1522;-0.0048;
459.0000;0.1547;0.0000;
459.3000;0.1522;-0.0072;
459.6000;0.1538;0.0072;
459.9000;0.1538;0.0000;
460.2000;0.1595;0.0167;
460.5000;0.1522;0.0000;
460.8000;0.1514;-0.0024;
461.1000;0.1514;0.0048;
461.4000;0.1538;0.0072;
461.7000;0.1538;0.0119;
462.0000;0.1530;0.0072;
462.3000;0.1506;0.0000;
462.6000;0.1522;-0.0096;
462.9000;0.1522;-0.0024;
463.2000;0.1530;-0.0072;
463.5000;0.1530;-0.0119;
463.8000;0.1522;-0.0167;
464.1000;0.1538;-0.0167;
464.4000;0.1530;-0.0143;
464.7000;0.1538;-0.0048;
465.0000;0.1514;-0.0024;
465.3000;0.1506;0.0000;
465.6000;0.1555;0.0215;
465.9000;0.1530;0.0191;
466.2000;0.1506;0.0167;
466.5000;0.1530;0.0167;
466.8000;0.1522;0.0191;
467.1000;0.1514;0.0191;
467.4000;0.1514;0.0263;
467.7000;0.1522;0.0406;
468.0000;0.1530;0.0382;
468.3000;0.1530;0.0406;
468.6000;0.1498;0.0239;
468.9000;0.1514;0.0215;
469.2000;0.1547;0.0239;
469.5000;0.1514;0.0119;
469.8000;0.1522;0.0072;
470.1000;0.1538;0.0072;
470.4000;0.1522;0.0024;
470.7000;0.1604;0.0191;
471.0000;0.1522;-0.0048;
471.3000;0.1522;-0.0024;
471.6000;0.1530;-0.0024;
471.9000;0.1514;0.0000;
472.2000;0.1555;0.0000;
472.5000;0.1514;-0.0143;
472.8000;0.1441;-0.0263;
473.1000;0.1547;0.0143;
473.4000;0.1538;0.0119;
473.7000;0.1506;0.0024;
474.0000;0.1514;0.0072;
474.3000;0.1522;0.0143;
474.6000;0.1555;0.0239;
474.9000;0.1522;0.0191;
475.2000;0.1522;0.0167;
475.5000;0.1547;0.0191;
475.8000;0.1522;0.0143;
476.1000;0.1506;0.0048;
476.4000;0.1522;0.0024;
476.7000;0.1547;0.0072;
477.0000;0.1514;0.0000;
477.3000;0.1547;0.0143;
477.6000;0.1522;0.0096;
477.9000;0.1514;0.0143;
478.2000;0.1563;0.0263;
478.5000;0.1530;0.0072;
478.8000;0.1449;-0.0215;
479.1000;0.1522;0.0048;
479.4000;0.1595;0.0239;
479.7000;0.1522;0.0119;
480.0000;0.1522;0.0119;
480.3000;0.1522;0.0215;
480.6000;0.1538;0.0287;
480.9000;0.1579;0.0382;
481.2000;0.1522;0.0215;
481.5000;0.1595;0.0454;
481.8000;0.1522;0.0335;
482.1000;0.1473;0.0215;
482.4000;0.1555;0.0526;
482.7000;0.1514;0.0311;
483.0000;0.1498;0.0215;
483.3000;0.1514;0.0215;
483.6000;0.1522;0.0143;
483.9000;0.1530;0.0167;
484.2000;0.1481;0.0048;
484.5000;0.1538;0.0048;
484.8000;0.1538;0.0048;
485.1000;0.1408;-0.0263;
485.4000;0.1514;0.0000;
485.7000;0.1538;-0.0024;
486.0000;0.1530;-0.0048;
486.3000;0.1506;-0.0167;
486.6000;0.1514;-0.0096;
486.9000;0.1522;-0.0048;
487.2000;0.1481;-0.0215;
487.5000;0.1538;0.0024;
487.8000;0.1547;0.0096;
488.1000;0.1522;0.0000;
488.4000;0.1538;0.0024;
488.7000;0.1538;0.0048;
489.0000;0.1522;0.0048;
489.3000;0.1506;0.0072;
489.6000;0.1555;0.0072;
489.9000;0.1530;-0.0024;
490.2000;0.1522;0.0024;
490.5000;0.1538;0.0048;
490.8000;0.1547;0.0048;
491.1000;0.1530;-0.0024;
491.4000;0.1530;0.0024;
491.7000;0.1506;-0.0072;
492.0000;0.1506;-0.0119;
492.3000;0.1522;-0.0167;
492.6000;0.1514;-0.0167;
492.9000;0.1514;-0.0072;
493.2000;0.1530;0.0000;
493.5000;0.1555;0.0072;
493.8000;0.1538;0.0119;
494.1000;0.1547;0.0024;
494.4000;0.1547;-0.0024;
494.7000;0.1522;-0.0119;
495.0000;0.1481;-0.0167;
495.3000;0.1538;0.0000;
495.6000;0.1522;-0.0048;
495.9000;0.1522;-0.0119;
496.2000;0.1571;0.0048;
496.5000;0.1563;-0.0072;
496.8000;0.1555;-0.0167;
497.1000;0.1538;-0.0143;
497.4000;0.1506;-0.0215;
497.7000;0.1506;-0.0072;
498.0000;0.1530;0.0024;
498.3000;0.1498;-0.0072;
498.6000;0.1506;-0.0119;
498.9000;0.1514;-0.0024;
499.2000;0.1506;-0.0072;
499.5000;0.1457;-0.0167;
499.8000;0.1530;-0.0072;
500.1000;0.1522;-0.0048;
500.4000;0.1579;0.0215;
500.7000;0.1538;0.0048;
501.0000;0.1538;0.0048;
501.3000;0.1506;0.0000;
501.6000;0.1628;0.0263;
501.9000;0.1538;-0.0048;
502.2000;0.1465;-0.0215;
502.5000;0.1530;-0.0048;
502.8000;0.1547;0.0072;
503.1000;0.1522;-0.0048;
503.4000;0.1506;-0.0191;
503.7000;0.1457;-0.0167;
504.0000;0.1571;0.0119;
504.3000;0.1547;0.0024;
504.6000;0.1514;-0.0048;
504.9000;0.1514;-0.0024;
505.2000;0.1522;0.0048;
505.5000;0.1538;0.0096;
505.8000;0.1538;0.0072;
506.1000;0.1555;-0.0024;
506.4000;0.1506;-0.0024;
506.7000;0.1514;0.0024;
507.0000;0.1514;-0.0024;
507.3000;0.1538;0.0000;
507.6000;0.1522;-0.0048;
507.9000;0.1547;0.0048;
508.2000;0.1547;-0.0072;
508.5000;0.1571;-0.0072;
508.8000;0.1555;-0.0072;
509.1000;0.1522;-0.0096;
509.4000;0.1530;-0.0072;
509.7000;0.1563;0.0096;
510.0000;0.1522;-0.0024;
510.3000;0.1522;-0.0072;
510.6000;0.1530;0.0000;
510.9000;0.1522;0.0048;
511.2000;0.1530;0.0048;
511.5000;0.1506;0.0024;
511.8000;0.1522;0.0024;
512.1000;0.1522;-0.0024;
512.4000;0.1506;-0.0167;
512.7000;0.1514;-0.0119;
513.0000;0.1522;-0.0143;
513.3000;0.1555;-0.0024;
513.6000;0.1522;-0.0143;
513.9000;0.1514;-0.0215;
514.2000;0.1530;-0.0096;
514.5000;0.1522;-0.0096;
514.8000;0.1490;-0.0167;
515.1000;0.1514;-0.0143;
515.4000;0.1514;-0.0167;
515.7000;0.1530;-0.0143;
516.0000;0.1514;-0.0143;
516.3000;0.1498;-0.0191;
516.6000;0.1514;-0.0096;
516.9000;0.1514;-0.0096;
517.2000;0.1555;0.0024;
517.5000;0.1514;-0.0048;
517.8000;0.1530;-0.0024;
518.1000;0.1514;-0.0024;
518.4000;0.1498;-0.0072;
518.7000;0.1530;0.0072;
519.0000;0.1538;0.0072;
519.3000;0.1538;0.0167;
519.6000;0.1530;0.0096;
519.9000;0.1530;0.0119;
520.2000;0.1522;0.0119;
520.5000;0.1498;0.0048;
520.8000;0.1538;0.0143;
521.1000;0.1530;0.0024;
521.4000;0.1506;-0.0072;
521.7000;0.1506;-0.0096;
522.0000;0.1620;0.0239;
522.3000;0.1604;0.0215;
522.6000;0.1538;0.0048;
522.9000;0.1530;0.0048;
523.2000;0.1555;0.0048;
523.5000;0.1538;0.0048;
523.8000;0.1538;0.0048;
524.1000;0.1514;0.0024;
524.4000;0.1530;0.0024;
524.7000;0.1522;0.0000;
525.0000;0.1498;0.0024;
525.3000;0.1473;-0.0072;
525.6000;0.1514;0.0072;
525.9000;0.1538;0.0119;
526.2000;0.1522;0.0072;
526.5000;0.1514;0.0143;
526.8000;0.1433;-0.0096;
527.1000;0.1522;0.0167;
527.4000;0.1522;0.0119;
527.7000;0.1604;0.0239;
528.0000;0.1530;0.0096;
528.3000;0.1571;0.0119;
528.6000;0.1522;0.0072;
528.9000;0.1538;0.0096;
529.2000;0.1522;0.0096;
529.5000;0.1530;0.0167;
529.8000;0.1530;0.0119;
530.1000;0.1547;0.0119;
530.4000;0.1530;0.0143;
530.7000;0.1514;0.0072;
531.0000;0.1530;0.0119;
531.3000;0.1530;0.0048;
531.6000;0.1514;0.0048;
531.9000;0.1530;0.0072;
532.2000;0.1538;0.0167;
532.5000;0.1538;0.0167;
532.8000;0.1538;0.0215;
533.1000;0.1514;0.0191;
533.4000;0.1547;0.0239;
533.7000;0.1555;0.0239;
534.0000;0.1522;0.0096;
534.3000;0.1506;0.0096;
534.6000;0.1490;0.0143;
534.9000;0.1481;0.0143;
535.2000;0.1538;0.0287;
535.5000;0.1514;0.0191;
535.8000;0.1481;0.0024;
536.1000;0.1514;0.0072;
536.4000;0.1530;0.0143;
536.7000;0.1579;0.0287;
537.0000;0.1498;0.0072;
537.3000;0.1498;0.0167;
537.6000;0.1522;0.0239;
537.9000;0.1530;0.0311;
538.2000;0.1514;0.0311;
538.5000;0.1530;0.0358;
538.8000;0.1530;0.0335;
539.1000;0.1547;0.0239;
539.4000;0.1579;0.0287;
539.7000;0.1490;0.0024;
540.0000;0.1538;0.0119;
540.3000;0.1514;0.0072;
540.6000;0.1522;0.0024;
540.9000;0.1538;0.0024;
541.2000;0.1506;-0.0072;
541.5000;0.1514;0.0048;
541.8000;0.1441;-0.0167;
542.1000;0.1563;0.0096;
542.4000;0.1547;0.0048;
542.7000;0.1522;0.0024;
543.0000;0.1514;0.0024;
543.3000;0.1538;0.0096;
543.6000;0.1522;0.0096;
543.9000;0.1530;0.0143;
544.2000;0.1701;0.0669;
544.5000;0.1498;0.0239;
544.8000;0.1530;0.0287;
545.1000;0.1506;0.0191;
545.4000;0.1547;0.0239;
545.7000;0.1522;0.0143;
546.0000;0.1498;0.0143;
546.3000;0.1465;0.0096;
546.6000;0.1522;0.0263;
546.9000;0.1538;0.0215;
547.2000;0.1563;0.0263;
547.5000;0.1530;0.0239;
547.8000;0.1538;0.0167;
548.1000;0.1522;0.0096;
548.4000;0.1522;0.0024;
548.7000;0.1522;0.0024;
549.0000;0.1530;0.0024;
549.3000;0.1498;0.0024;
549.6000;0.1522;0.0048;
549.9000;0.1514;0.0000;
550.2000;0.1498;-0.0024;
550.5000;0.1514;0.0072;
550.8000;0.1514;0.0048;
551.1000;0.1514;0.0048;
551.4000;0.1620;0.0358;
551.7000;0.1538;0.0143;
552.0000;0.1538;0.0167;
552.3000;0.1579;0.0239;
552.6000;0.1457;-0.0239;
552.9000;0.1530;0.0024;
553.2000;0.1538;0.0072;
553.5000;0.1498;-0.0048;
553.8000;0.1522;-0.0024;
554.1000;0.1538;0.0048;
554.4000;0.1571;0.0167;
554.7000;0.1530;0.0024;
555.0000;0.1530;0.0024;
555.3000;0.1498;0.0000;
555.6000;0.1530;0.0119;
555.9000;0.1538;0.0096;
556.2000;0.1538;0.0167;
556.5000;0.1506;0.0072;
556.8000;0.1612;0.0358;
557.1000;0.1416;-0.0143;
557.4000;0.1555;0.0239;
557.7000;0.1522;0.0167;
558.0000;0.1506;0.0072;
558.3000;0.1498;0.0024;
558.6000;0.1563;0.0239;
558.9000;0.1514;0.0000;
559.2000;0.1506;0.0072;
559.5000;0.1538;0.0191;
559.8000;0.1530;0.0119;
560.1000;0.1538;0.0167;
560.4000;0.1538;0.0119;
560.7000;0.1514;0.0119;
561.0000;0.1522;0.0191;
561.3000;0.1514;0.0167;
561.6000;0.1571;0.0287;
561.9000;0.1538;0.0263;
562.2000;0.1555;0.0215;
562.5000;0.1392;-0.0215;
562.8000;0.1530;0.0215;
563.1000;0.1490;0.0072;
563.4000;0.1538;0.0215;
563.7000;0.1514;0.0096;
564.0000;0.1514;0.0096;
564.3000;0.1530;0.0263;
564.6000;0.1514;0.0287;
564.9000;0.1498;0.0239;
565.2000;0.1530;0.0191;
565.5000;0.1506;0.0143;
565.8000;0.1587;0.0382;
566.1000;0.1530;0.0167;
566.4000;0.1522;0.0167;
566.7000;0.1538;0.0239;
567.0000;0.1506;0.0143;
567.3000;0.1547;0.0191;
567.6000;0.1538;0.0096;
567.9000;0.1522;0.0000;
568.2000;0.1514;0.0000;
568.5000;0.1530;0.0024;
568.8000;0.1538;0.0119;
569.1000;0.1522;0.0072;
569.4000;0.1571;0.0215;
569.7000;0.1514;0.0167;
570.0000;0.1522;0.0239;
570.3000;0.1530;0.0191;
570.6000;0.1604;0.0335;
570.9000;0.1514;0.0119;
571.2000;0.1506;0.0096;
571.5000;0.1555;0.0287;
571.8000;0.1514;0.0191;
572.1000;0.1522;0.0167;
572.4000;0.1612;0.0287;
572.7000;0.1514;0.0072;
573.0000;0.1620;0.0382;
573.3000;0.1530;0.0167;
573.6000;0.1514;0.0167;
573.9000;0.1465;0.0024;
574.2000;0.1538;0.0191;
574.5000;0.1490;0.0191;
574.8000;0.1547;0.0263;
575.1000;0.1522;0.0215;
575.4000;0.1538;0.0287;
575.7000;0.1522;0.0191;
576.0000;0.1530;0.0191;
576.3000;0.1530;0.0215;
576.6000;0.1538;0.0239;
576.9000;0.1522;0.0143;
577.2000;0.1530;0.0119;
577.5000;0.1530;0.0024;
577.8000;0.1530;-0.0024;
578.1000;0.1579;0.0167;
578.4000;0.1506;-0.0072;
578.7000;0.1506;-0.0096;
579.0000;0.1522;-0.0048;
579.3000;0.1490;-0.0191;
579.6000;0.1490;-0.0191;
579.9000;0.1530;-0.0048;
580.2000;0.1530;-0.0024;
580.5000;0.1514;0.0000;
580.8000;0.1538;0.0048;
581.1000;0.1473;-0.0167;
581.4000;0.1563;0.0000;
581.7000;0.1522;-0.0143;
582.0000;0.1538;-0.0167;
582.3000;0.1538;-0.0143;
582.6000;0.1498;-0.0239;
582.9000;0.1530;-0.0048;
583.2000;0.1530;0.0024;
583.5000;0.1514;0.0048;
583.8000;0.1506;0.0000;
584.1000;0.1538;0.0072;
584.4000;0.1506;0.0024;
584.7000;0.1514;0.0096;
585.0000;0.1522;0.0096;
585.3000;0.1522;0.0167;
585.6000;0.1547;0.0215;
585.9000;0.1498;0.0143;
586.2000;0.1530;0.0167;
586.5000;0.1538;0.0191;
586.8000;0.1506;0.0143;
587.1000;0.1530;0.0191;
587.4000;0.1530;0.0215;
587.7000;0.1514;0.0311;
588.0000;0.1514;0.0311;
588.3000;0.1498;0.0167;
588.6000;0.1498;0.0215;
588.9000;0.1514;0.0191;
589.2000;0.1538;0.0287;
589.5000;0.1506;0.0143;
589.8000;0.1522;0.0191;
590.1000;0.1620;0.0478;
590.4000;0.1506;0.0167;
590.7000;0.1522;0.0191;
591.0000;0.1522;0.0167;
591.3000;0.1530;0.0191;
591.6000;0.1530;0.0215;
591.9000;0.1547;0.0358;
592.2000;0.1449;0.0072;
592.5000;0.1490;0.0191;
592.8000;0.1449;0.0096;
593.1000;0.1522;0.0311;
593.4000;0.1530;0.0311;
593.7000;0.1514;0.0311;
594.0000;0.1530;0.0382;
594.3000;0.1522;0.0406;
594.6000;0.1522;0.0311;
594.9000;0.1522;0.0406;
595.2000;0.1587;0.0574;
595.5000;0.1604;0.0621;
595.8000;0.1612;0.0669;
596.1000;0.1506;0.0406;
596.4000;0.1506;0.0311;
596.7000;0.1522;0.0287;
597.0000;0.1522;0.0215;
597.3000;0.1498;0.0119;
597.6000;0.1587;0.0382;
597.9000;0.1457;-0.0024;
598.2000;0.1538;0.0215;
598.5000;0.1579;0.0287;
598.8000;0.1433;-0.0119;
599.1000;0.1522;0.0191;
599.4000;0.1457;0.0048;
599.7000;0.1555;0.0143;
600.0000;0.1490;0.0000;
600.3000;0.1530;0.0096;
600.6000;0.1514;-0.0048;
600.9000;0.1530;-0.0191;
601.2000;0.1498;-0.0358;
601.5000;0.1506;-0.0406;
601.8000;0.1522;-0.0335;
602.1000;0.1522;-0.0335;
602.4000;0.1514;-0.0406;
602.7000;0.1481;-0.0454;
603.0000;0.1530;-0.0502;
603.3000;0.1498;-0.0502;
603.6000;0.1498;-0.0597;
603.9000;0.1506;-0.0597;
604.2000;0.1514;-0.0621;
604.5000;0.1547;-0.0645;
604.8000;0.1522;-0.0717;
605.1000;0.1530;-0.0812;
605.4000;0.1514;-0.0812;
605.7000;0.1506;-0.0860;
606.0000;0.1498;-0.0908;
606.3000;0.1506;-0.0932;
606.6000;0.1506;-0.0956;
606.9000;0.1473;-0.1004;
607.2000;0.1498;-0.0980;
607.5000;0.1506;-0.0956;
607.8000;0.1522;-0.0908;
608.1000;0.1498;-0.1075;
608.4000;0.1449;-0.1195;
608.7000;0.1498;-0.1028;
609.0000;0.1506;-0.1028;
609.3000;0.1490;-0.1051;
609.6000;0.1498;-0.0980;
609.9000;0.1498;-0.0956;
610.2000;0.1481;-0.0956;
610.5000;0.1514;-0.0812;
610.8000;0.1498;-0.0884;
611.1000;0.1481;-0.0908;
611.4000;0.1465;-0.1051;
611.7000;0.1408;-0.1266;
612.0000;0.1481;-0.1123;
612.3000;0.1481;-0.1195;
612.6000;0.1498;-0.1123;
612.9000;0.1481;-0.1171;
613.2000;0.1481;-0.1147;
613.5000;0.1465;-0.1219;
613.8000;0.1555;-0.0956;
614.1000;0.1498;-0.1147;
614.4000;0.1506;-0.1243;
614.7000;0.1522;-0.1195;
615.0000;0.1530;-0.1147;
615.3000;0.1555;-0.1028;
615.6000;0.1514;-0.1147;
615.9000;0.1506;-0.1195;
616.2000;0.1498;-0.1219;
616.5000;0.1547;-0.1028;
616.8000;0.1506;-0.1099;
617.1000;0.1481;-0.1171;
617.4000;0.1441;-0.1243;
617.7000;0.1506;-0.1028;
618.0000;0.1481;-0.1075;
618.3000;0.1514;-0.0980;
618.6000;0.1490;-0.1051;
618.9000;0.1555;-0.0884;
619.2000;0.1490;-0.1099;
619.5000;0.1490;-0.1075;
619.8000;0.1555;-0.0932;
620.1000;0.1481;-0.1171;
620.4000;0.1587;-0.0789;
620.7000;0.1490;-0.1051;
621.0000;0.1498;-0.1004;
621.3000;0.1498;-0.0956;
621.6000;0.1498;-0.1004;
621.9000;0.1514;-0.0956;
622.2000;0.1465;-0.1147;
622.5000;0.1465;-0.1099;
622.8000;0.1490;-0.1051;
623.1000;0.1506;-0.0980;
623.4000;0.1490;-0.0980;
623.7000;0.1506;-0.0932;
624.0000;0.1473;-0.1004;
624.3000;0.1498;-0.0884;
624.6000;0.1473;-0.0980;
624.9000;0.1457;-0.1099;
625.2000;0.1563;-0.0884;
625.5000;0.1498;-0.1099;
625.8000;0.1490;-0.1099;
626.1000;0.1498;-0.1099;
626.4000;0.1506;-0.1147;
626.7000;0.1530;-0.1075;
627.0000;0.1490;-0.1219;
627.3000;0.1498;-0.1290;
627.6000;0.1481;-0.1338;
627.9000;0.1514;-0.1338;
628.2000;0.1481;-0.1314;
628.5000;0.1514;-0.1266;
628.8000;0.1498;-0.1243;
629.1000;0.1498;-0.1171;
629.4000;0.1490;-0.1123;
629.7000;0.1481;-0.1123;
630.0000;0.1490;-0.1099;
630.3000;0.1481;-0.1147;
630.6000;0.1441;-0.1147;
630.9000;0.1481;-0.1099;
631.2000;0.1473;-0.1147;
631.5000;0.1490;-0.1147;
631.8000;0.1506;-0.1195;
632.1000;0.1498;-0.1290;
632.4000;0.1571;-0.1075;
632.7000;0.1481;-0.1243;
633.0000;0.1457;-0.1290;
633.3000;0.1490;-0.1266;
633.6000;0.1514;-0.1219;
633.9000;0.1481;-0.1338;
634.2000;0.1481;-0.1290;
634.5000;0.1441;-0.1410;
634.8000;0.1498;-0.1290;
635.1000;0.1465;-0.1362;
635.4000;0.1490;-0.1338;
635.7000;0.1481;-0.1243;
636.0000;0.1481;-0.1171;
636.3000;0.1481;-0.1195;
636.6000;0.1498;-0.1171;
636.9000;0.1449;-0.1338;
637.2000;0.1481;-0.1314;
637.5000;0.1481;-0.1458;
637.8000;0.1498;-0.1410;
638.1000;0.1400;-0.1673;
638.4000;0.1490;-0.1410;
638.7000;0.1514;-0.1386;
639.0000;0.1490;-0.1362;
639.3000;0.1481;-0.1458;
639.6000;0.1490;-0.1410;
639.9000;0.1490;-0.1386;
640.2000;0.1587;-0.1123;
640.5000;0.1473;-0.1410;
640.8000;0.1498;-0.1266;
641.1000;0.1490;-0.1386;
641.4000;0.1498;-0.1338;
641.7000;0.1481;-0.1314;
642.0000;0.1481;-0.1219;
642.3000;0.1449;-0.1290;
642.6000;0.1490;-0.1219;
642.9000;0.1498;-0.1195;
643.2000;0.1481;-0.1243;
643.5000;0.1498;-0.1219;
643.8000;0.1473;-0.1266;
644.1000;0.1498;-0.1243;
644.4000;0.1473;-0.1290;
644.7000;0.1530;-0.1051;
645.0000;0.1449;-0.1314;
645.3000;0.1473;-0.1290;
645.6000;0.1490;-0.1219;
645.9000;0.1490;-0.1219;
646.2000;0.1498;-0.1147;
646.5000;0.1490;-0.1195;
646.8000;0.1465;-0.1219;
647.1000;0.1498;-0.1123;
647.4000;0.1506;-0.1195;
647.7000;0.1490;-0.1195;
648.0000;0.1457;-0.1290;
648.3000;0.1473;-0.1314;
648.6000;0.1473;-0.1266;
648.9000;0.1506;-0.1147;
649.2000;0.1481;-0.1195;
649.5000;0.1473;-0.1171;
649.8000;0.1481;-0.1195;
650.1000;0.1498;-0.1171;
650.4000;0.1547;-0.1099;
650.7000;0.1490;-0.1195;
651.0000;0.1457;-0.1219;
651.3000;0.1481;-0.1171;
651.6000;0.1473;-0.1099;
651.9000;0.1473;-0.1147;
652.2000;0.1514;-0.1099;
652.5000;0.1490;-0.1123;
652.8000;0.1490;-0.1171;
653.1000;0.1473;-0.1243;
653.4000;0.1490;-0.1171;
653.7000;0.1498;-0.1171;
654.0000;0.1506;-0.1171;
654.3000;0.1490;-0.1266;
654.6000;0.1481;-0.1243;
654.9000;0.1498;-0.1266;
655.2000;0.1490;-0.1314;
655.5000;0.1490;-0.1314;
655.8000;0.1490;-0.1338;
656.1000;0.1481;-0.1362;
656.4000;0.1473;-0.1314;
656.7000;0.1481;-0.1266;
657.0000;0.1457;-0.1314;
657.3000;0.1473;-0.1338;
657.6000;0.1481;-0.1314;
657.9000;0.1473;-0.1290;
658.2000;0.1490;-0.1290;
658.5000;0.1490;-0.1266;
658.8000;0.1481;-0.1219;
659.1000;0.1449;-0.1314;
659.4000;0.1473;-0.1219;
659.7000;0.1490;-0.1219;
660.0000;0.1481;-0.1314;
660.3000;0.1506;-0.1219;
660.6000;0.1498;-0.1290;
660.9000;0.1473;-0.1314;
661.2000;0.1465;-0.1338;
661.5000;0.1506;-0.1147;
661.8000;0.1490;-0.1219;
662.1000;0.1498;-0.1195;
662.4000;0.1449;-0.1410;
662.7000;0.1498;-0.1386;
663.0000;0.1481;-0.1505;
663.3000;0.1490;-0.1458;
663.6000;0.1498;-0.1434;
663.9000;0.1384;-0.1697;
664.2000;0.1514;-0.1434;
664.5000;0.1506;-0.1290;
664.8000;0.1498;-0.1314;
665.1000;0.1490;-0.1290;
665.4000;0.1408;-0.1601;
665.7000;0.1490;-0.1314;
666.0000;0.1555;-0.1195;
666.3000;0.1481;-0.1338;
666.6000;0.1514;-0.1243;
666.9000;0.1547;-0.1123;
667.2000;0.1498;-0.1290;
667.5000;0.1481;-0.1314;
667.8000;0.1481;-0.1314;
668.1000;0.1465;-0.1314;
668.4000;0.1490;-0.1243;
668.7000;0.1514;-0.1195;
669.0000;0.1408;-0.1410;
669.3000;0.1506;-0.1147;
669.6000;0.1465;-0.1219;
669.9000;0.1555;-0.0980;
670.2000;0.1563;-0.1028;
670.5000;0.1498;-0.1171;
670.8000;0.1514;-0.1028;
671.1000;0.1563;-0.1004;
671.4000;0.1465;-0.1338;
671.7000;0.1498;-0.1314;
672.0000;0.1481;-0.1434;
672.3000;0.1481;-0.1338;
672.6000;0.1465;-0.1314;
672.9000;0.1465;-0.1314;
673.2000;0.1384;-0.1625;
673.5000;0.1343;-0.1649;
673.8000;0.1481;-0.1147;
674.1000;0.1425;-0.1243;
674.4000;0.1481;-0.1123;
674.7000;0.1490;-0.1147;
675.0000;0.1506;-0.1123;
675.3000;0.1473;-0.1243;
675.6000;0.1514;-0.1147;
675.9000;0.1498;-0.1147;
676.2000;0.1498;-0.1123;
676.5000;0.1514;-0.0980;
676.8000;0.1400;-0.1338;
677.1000;0.1473;-0.1266;
677.4000;0.1506;-0.1243;
677.7000;0.1490;-0.1314;
678.0000;0.1473;-0.1338;
678.3000;0.1490;-0.1338;
678.6000;0.1498;-0.1219;
678.9000;0.1481;-0.1195;
679.2000;0.1465;-0.1290;
679.5000;0.1481;-0.1243;
679.8000;0.1506;-0.1195;
680.1000;0.1506;-0.1243;
680.4000;0.1490;-0.1338;
680.7000;0.1490;-0.1338;
681.0000;0.1506;-0.1314;
681.3000;0.1530;-0.1195;
681.6000;0.1473;-0.1362;
681.9000;0.1498;-0.1243;
682.2000;0.1506;-0.1219;
682.5000;0.1490;-0.1171;
682.8000;0.1506;-0.1171;
683.1000;0.1473;-0.1338;
683.4000;0.1628;-0.0932;
683.7000;0.1433;-0.1434;
684.0000;0.1481;-0.1219;
684.3000;0.1473;-0.1171;
684.6000;0.1490;-0.1147;
684.9000;0.1457;-0.1123;
685.2000;0.1506;-0.1051;
685.5000;0.1481;-0.1171;
685.8000;0.1506;-0.1195;
686.1000;0.1481;-0.1243;
686.4000;0.1481;-0.1219;
686.7000;0.1514;-0.1123;
687.0000;0.1473;-0.1219;
687.3000;0.1490;-0.1195;
687.6000;0.1490;-0.1243;
687.9000;0.1490;-0.1266;
688.2000;0.1498;-0.1219;
688.5000;0.1465;-0.1386;
688.8000;0.1498;-0.1362;
689.1000;0.1481;-0.1314;
689.4000;0.1465;-0.1434;
689.7000;0.1579;-0.1099;
690.0000;0.1449;-0.1434;
690.3000;0.1473;-0.1290;
690.6000;0.1425;-0.1482;
690.9000;0.1481;-0.1266;
691.2000;0.1498;-0.1219;
691.5000;0.1416;-0.1458;
691.8000;0.1376;-0.1601;
692.1000;0.1506;-0.1243;
692.4000;0.1490;-0.1243;
692.7000;0.1522;-0.1123;
693.0000;0.1538;-0.1147;
693.3000;0.1465;-0.1266;
693.6000;0.1498;-0.1195;
693.9000;0.1498;-0.1266;
694.2000;0.1506;-0.1195;
694.5000;0.1506;-0.1219;
694.8000;0.1481;-0.1219;
695.1000;0.1498;-0.1219;
695.4000;0.1514;-0.1123;
695.7000;0.1481;-0.1243;
696.0000;0.1490;-0.1219;
696.3000;0.1490;-0.1171;
696.6000;0.1587;-0.0836;
696.9000;0.1490;-0.1147;
697.2000;0.1449;-0.1266;
697.5000;0.1473;-0.1243;
697.8000;0.1506;-0.1147;
698.1000;0.1490;-0.1147;
698.4000;0.1481;-0.1243;
698.7000;0.1473;-0.1266;
699.0000;0.1481;-0.1290;
699.3000;0.1498;-0.1290;
699.6000;0.1498;-0.1219;
699.9000;0.1514;-0.1171;
700.2000;0.1490;-0.1290;
700.5000;0.1465;-0.1386;
700.8000;0.1457;-0.1338;
701.1000;0.1465;-0.1338;
701.4000;0.1465;-0.1243;
701.7000;0.1498;-0.1099;
702.0000;0.1498;-0.1099;
702.3000;0.1481;-0.1147;
702.6000;0.1481;-0.1171;
702.9000;0.1481;-0.1171;
703.2000;0.1481;-0.1075;
703.5000;0.1498;-0.1099;
703.8000;0.1522;-0.0980;
704.1000;0.1498;-0.1099;
704.4000;0.1530;-0.1051;
704.7000;0.1490;-0.1123;
705.0000;0.1490;-0.1147;
705.3000;0.1481;-0.1290;
705.6000;0.1473;-0.1147;
705.9000;0.1465;-0.1147;
706.2000;0.1359;-0.1482;
706.5000;0.1498;-0.1075;
706.8000;0.1498;-0.1099;
707.1000;0.1490;-0.1051;
707.4000;0.1473;-0.1123;
707.7000;0.1465;-0.1147;
708.0000;0.1522;-0.1051;
708.3000;0.1530;-0.0980;
708.6000;0.1490;-0.1123;
708.9000;0.1522;-0.1075;
709.2000;0.1465;-0.1219;
709.5000;0.1530;-0.1171;
709.8000;0.1449;-0.1266;
710.1000;0.1473;-0.1266;
710.4000;0.1506;-0.1123;
710.7000;0.1498;-0.1171;
711.0000;0.1457;-0.1219;
711.3000;0.1490;-0.1219;
711.6000;0.1465;-0.1314;
711.9000;0.1473;-0.1243;
712.2000;0.1490;-0.1123;
712.5000;0.1481;-0.1147;
712.8000;0.1555;-0.1099;
713.1000;0.1490;-0.1314;
713.4000;0.1514;-0.1243;
713.7000;0.1522;-0.1195;
714.0000;0.1408;-0.1505;
714.3000;0.1441;-0.1482;
714.6000;0.1408;-0.1529;
714.9000;0.1522;-0.1195;
715.2000;0.1449;-0.1338;
715.5000;0.1498;-0.1219;
715.8000;0.1465;-0.1243;
716.1000;0.1481;-0.1147;
716.4000;0.1481;-0.1075;
716.7000;0.1481;-0.1051;
717.0000;0.1579;-0.0765;
717.3000;0.1490;-0.1051;
717.6000;0.1498;-0.1099;
717.9000;0.1490;-0.1147;
718.2000;0.1490;-0.1171;
718.5000;0.1490;-0.1147;
718.8000;0.1465;-0.1123;
719.1000;0.1490;-0.1075;
719.4000;0.1506;-0.1051;
719.7000;0.1498;-0.1195;
720.0000;0.1465;-0.1338;
720.3000;0.1465;-0.1338;
720.6000;0.1433;-0.1529;
720.9000;0.1481;-0.1386;
721.2000;0.1490;-0.1338;
721.5000;0.1481;-0.1386;
721.8000;0.1473;-0.1386;
722.1000;0.1473;-0.1410;
722.4000;0.1506;-0.1195;
722.7000;0.1490;-0.1290;
723.0000;0.1457;-0.1338;
723.3000;0.1449;-0.1386;
723.6000;0.1538;-0.1171;
723.9000;0.1506;-0.1314;
724.2000;0.1481;-0.1410;
724.5000;0.1522;-0.1290;
724.8000;0.1490;-0.1386;
725.1000;0.1481;-0.1458;
725.4000;0.1490;-0.1362;
725.7000;0.1498;-0.1290;
726.0000;0.1498;-0.1362;
726.3000;0.1473;-0.1410;
726.6000;0.1465;-0.1386;
726.9000;0.1465;-0.1386;
727.2000;0.1473;-0.1482;
727.5000;0.1473;-0.1458;
727.8000;0.1473;-0.1362;
728.1000;0.1481;-0.1314;
728.4000;0.1457;-0.1434;
728.7000;0.1530;-0.1219;
729.0000;0.1547;-0.1051;
729.3000;0.1506;-0.1243;
729.6000;0.1506;-0.1266;
729.9000;0.1481;-0.1243;
730.2000;0.1498;-0.1266;
730.5000;0.1571;-0.1004;
730.8000;0.1441;-0.1314;
731.1000;0.1425;-0.1386;
731.4000;0.1498;-0.1147;
731.7000;0.1530;-0.0980;
732.0000;0.1481;-0.1123;
732.3000;0.1490;-0.1123;
732.6000;0.1490;-0.1051;
732.9000;0.1416;-0.1362;
733.2000;0.1481;-0.1290;
733.5000;0.1490;-0.1290;
733.8000;0.1457;-0.1314;
734.1000;0.1506;-0.1147;
734.4000;0.1498;-0.1147;
734.7000;0.1481;-0.1243;
735.0000;0.1506;-0.1243;
735.3000;0.1506;-0.1290;
735.6000;0.1506;-0.1338;
735.9000;0.1514;-0.1338;
736.2000;0.1498;-0.1362;
736.5000;0.1498;-0.1314;
736.8000;0.1506;-0.1314;
737.1000;0.1490;-0.1338;
737.4000;0.1481;-0.1362;
737.7000;0.1465;-0.1314;
738.0000;0.1368;-0.1553;
738.3000;0.1506;-0.1195;
738.6000;0.1481;-0.1243;
738.9000;0.1490;-0.1290;
739.2000;0.1465;-0.1338;
739.5000;0.1490;-0.1243;
739.8000;0.1425;-0.1362;
740.1000;0.1481;-0.1195;
740.4000;0.1587;-0.0908;
740.7000;0.1481;-0.1219;
741.0000;0.1473;-0.1171;
741.3000;0.1498;-0.1219;
741.6000;0.1457;-0.1314;
741.9000;0.1506;-0.1243;
742.2000;0.1506;-0.1314;
742.5000;0.1449;-0.1553;
742.8000;0.1506;-0.1362;
743.1000;0.1481;-0.1434;
743.4000;0.1465;-0.1482;
743.7000;0.1490;-0.1362;
744.0000;0.1490;-0.1338;
744.3000;0.1473;-0.1290;
744.6000;0.1481;-0.1266;
744.9000;0.1506;-0.1219;
745.2000;0.1498;-0.1195;
745.5000;0.1392;-0.1505;
745.8000;0.1481;-0.1147;
746.1000;0.1490;-0.1147;
746.4000;0.1498;-0.1099;
746.7000;0.1506;-0.1028;
747.0000;0.1481;-0.1147;
747.3000;0.1473;-0.1219;
747.6000;0.1490;-0.1266;
747.9000;0.1522;-0.1171;
748.2000;0.1506;-0.1219;
748.5000;0.1514;-0.1243;
748.8000;0.1481;-0.1243;
749.1000;0.1481;-0.1314;
749.4000;0.1490;-0.1314;
749.7000;0.1473;-0.1386;
750.0000;0.1490;-0.1338;
750.3000;0.1506;-0.1171;
750.6000;0.1498;-0.1171;
750.9000;0.1490;-0.1266;
751.2000;0.1506;-0.1266;
751.5000;0.1498;-0.1243;
751.8000;0.1547;-0.1147;
752.1000;0.1490;-0.1338;
752.4000;0.1498;-0.1338;
752.7000;0.1465;-0.1410;
753.0000;0.1473;-0.1314;
753.3000;0.1506;-0.1243;
753.6000;0.1506;-0.1147;
753.9000;0.1368;-0.1553;
754.2000;0.1481;-0.1219;
754.5000;0.1481;-0.1123;
754.8000;0.1481;-0.1051;
755.1000;0.1465;-0.1219;
755.4000;0.1490;-0.1266;
755.7000;0.1481;-0.1290;
756.0000;0.1636;-0.0836;
756.3000;0.1506;-0.1147;
756.6000;0.1498;-0.1147;
756.9000;0.1441;-0.1266;
757.2000;0.1327;-0.1673;
757.5000;0.1449;-0.1314;
757.8000;0.1498;-0.1338;
758.1000;0.1473;-0.1386;
758.4000;0.1498;-0.1410;
758.7000;0.1490;-0.1434;
759.0000;0.1481;-0.1362;
759.3000;0.1368;-0.1649;
759.6000;0.1481;-0.1386;
759.9000;0.1530;-0.1314;
760.2000;0.1457;-0.1458;
760.5000;0.1473;-0.1362;
760.8000;0.1433;-0.1482;
761.1000;0.1490;-0.1386;
761.4000;0.1481;-0.1434;
761.7000;0.1506;-0.1482;
762.0000;0.1465;-0.1625;
762.3000;0.1498;-0.1553;
762.6000;0.1490;-0.1529;
762.9000;0.1481;-0.1434;
763.2000;0.1498;-0.1338;
763.5000;0.1514;-0.1290;
763.8000;0.1465;-0.1362;
764.1000;0.1481;-0.1338;
764.4000;0.1498;-0.1266;
764.7000;0.1473;-0.1410;
765.0000;0.1514;-0.1386;
765.3000;0.1490;-0.1505;
765.6000;0.1408;-0.1673;
765.9000;0.1490;-0.1482;
766.2000;0.1498;-0.1434;
766.5000;0.1465;-0.1649;
766.8000;0.1490;-0.1649;
767.1000;0.1498;-0.1625;
767.4000;0.1481;-0.1577;
767.7000;0.1490;-0.1529;
768.0000;0.1498;-0.1553;
768.3000;0.1473;-0.1601;
768.6000;0.1490;-0.1505;
768.9000;0.1498;-0.1458;
769.2000;0.1490;-0.1505;
769.5000;0.1490;-0.1553;
769.8000;0.1473;-0.1577;
770.1000;0.1465;-0.1625;
770.4000;0.1481;-0.1553;
770.7000;0.1490;-0.1625;
771.0000;0.1465;-0.1673;
771.3000;0.1498;-0.1577;
771.6000;0.1490;-0.1625;
771.9000;0.1490;-0.1553;
772.2000;0.1490;-0.1505;
772.5000;0.1498;-0.1386;
772.8000;0.1473;-0.1386;
773.1000;0.1506;-0.1290;
773.4000;0.1538;-0.1219;
773.7000;0.1498;-0.1410;
774.0000;0.1514;-0.1338;
774.3000;0.1481;-0.1434;
774.6000;0.1498;-0.1553;
774.9000;0.1506;-0.1601;
775.2000;0.1498;-0.1649;
775.5000;0.1498;-0.1673;
775.8000;0.1457;-0.1744;
776.1000;0.1481;-0.1673;
776.4000;0.1481;-0.1721;
776.7000;0.1490;-0.1673;
777.0000;0.1473;-0.1673;
777.3000;0.1481;-0.1553;
777.6000;0.1595;-0.1266;
777.9000;0.1514;-0.1410;
778.2000;0.1473;-0.1505;
778.5000;0.1490;-0.1505;
778.8000;0.1490;-0.1482;
779.1000;0.1522;-0.1482;
779.4000;0.1490;-0.1553;
779.7000;0.1498;-0.1458;
780.0000;0.1457;-0.1529;
780.3000;0.1481;-0.1482;
780.6000;0.1473;-0.1505;
780.9000;0.1563;-0.1314;
781.2000;0.1481;-0.1458;
781.5000;0.1473;-0.1505;
781.8000;0.1490;-0.1410;
782.1000;0.1481;-0.1458;
782.4000;0.1490;-0.1482;
782.7000;0.1359;-0.1721;
783.0000;0.1481;-0.1434;
783.3000;0.1408;-0.1625;
783.6000;0.1449;-0.1577;
783.9000;0.1490;-0.1482;
784.2000;0.1490;-0.1505;
784.5000;0.1490;-0.1505;
784.8000;0.1490;-0.1553;
785.1000;0.1490;-0.1529;
785.4000;0.1498;-0.1410;
785.7000;0.1563;-0.1195;
786.0000;0.1376;-0.1721;
786.3000;0.1490;-0.1386;
786.6000;0.1490;-0.1458;
786.9000;0.1506;-0.1458;
787.2000;0.1498;-0.1482;
787.5000;0.1490;-0.1434;
787.8000;0.1465;-0.1386;
788.1000;0.1506;-0.1266;
788.4000;0.1433;-0.1338;
788.7000;0.1457;-0.1386;
789.0000;0.1449;-0.1458;
789.3000;0.1490;-0.1386;
789.6000;0.1481;-0.1482;
789.9000;0.1481;-0.1410;
790.2000;0.1473;-0.1482;
790.5000;0.1514;-0.1386;
790.8000;0.1498;-0.1482;
791.1000;0.1473;-0.1577;
791.4000;0.1425;-0.1697;
791.7000;0.1473;-0.1458;
792.0000;0.1473;-0.1482;
792.3000;0.1490;-0.1458;
792.6000;0.1481;-0.1458;
792.9000;0.1506;-0.1410;
793.2000;0.1506;-0.1410;
793.5000;0.1579;-0.1219;
793.8000;0.1490;-0.1338;
794.1000;0.1441;-0.1410;
794.4000;0.1538;-0.1147;
794.7000;0.1490;-0.1338;
795.0000;0.1473;-0.1505;
795.3000;0.1481;-0.1482;
795.6000;0.1506;-0.1410;
795.9000;0.1498;-0.1434;
796.2000;0.1571;-0.1219;
796.5000;0.1473;-0.1362;
796.8000;0.1538;-0.1314;
797.1000;0.1506;-0.1410;
797.4000;0.1498;-0.1458;
797.7000;0.1481;-0.1482;
798.0000;0.1481;-0.1434;
798.3000;0.1490;-0.1386;
798.6000;0.1473;-0.1434;
798.9000;0.1506;-0.1338;
799.2000;0.1490;-0.1458;
799.5000;0.1530;-0.1290;
799.8000;0.1498;-0.1362;
800.1000;0.1481;-0.1434;
800.4000;0.1506;-0.1290;
800.7000;0.1506;-0.1362;
801.0000;0.1425;-0.1697;
801.3000;0.1498;-0.1434;
801.6000;0.1498;-0.1434;
801.9000;0.1473;-0.1386;
802.2000;0.1473;-0.1362;
802.5000;0.1490;-0.1362;
802.8000;0.1457;-0.1434;
803.1000;0.1481;-0.1482;
803.4000;0.1490;-0.1458;
803.7000;0.1498;-0.1505;
804.0000;0.1457;-0.1529;
804.3000;0.1465;-0.1505;
804.6000;0.1490;-0.1434;
804.9000;0.1498;-0.1410;
805.2000;0.1490;-0.1434;
805.5000;0.1490;-0.1434;
805.8000;0.1514;-0.1314;
806.1000;0.1498;-0.1386;
806.4000;0.1555;-0.1290;
806.7000;0.1490;-0.1482;
807.0000;0.1612;-0.1147;
807.3000;0.1587;-0.1123;
807.6000;0.1457;-0.1553;
807.9000;0.1481;-0.1553;
808.2000;0.1490;-0.1482;
808.5000;0.1425;-0.1625;
808.8000;0.1481;-0.1410;
809.1000;0.1481;-0.1362;
809.4000;0.1514;-0.1290;
809.7000;0.1514;-0.1266;
810.0000;0.1490;-0.1290;
810.3000;0.1490;-0.1266;
810.6000;0.1506;-0.1171;
810.9000;0.1498;-0.1195;
811.2000;0.1490;-0.1171;
811.5000;0.1514;-0.1147;
811.8000;0.1490;-0.1171;
812.1000;0.1498;-0.1243;
812.4000;0.1506;-0.1171;
812.7000;0.1473;-0.1362;
813.0000;0.1449;-0.1410;
813.3000;0.1481;-0.1314;
813.6000;0.1449;-0.1410;
813.9000;0.1506;-0.1290;
814.2000;0.1490;-0.1266;
814.5000;0.1530;-0.1147;
814.8000;0.1490;-0.1314;
815.1000;0.1473;-0.1362;
815.4000;0.1490;-0.1266;
815.7000;0.1498;-0.1290;
816.0000;0.1498;-0.1266;
816.3000;0.1498;-0.1290;
816.6000;0.1530;-0.1195;
816.9000;0.1490;-0.1290;
817.2000;0.1481;-0.1290;
817.5000;0.1473;-0.1266;
817.8000;0.1490;-0.1195;
818.1000;0.1473;-0.1219;
818.4000;0.1498;-0.1099;
818.7000;0.1473;-0.1099;
819.0000;0.1506;-0.0980;
819.3000;0.1490;-0.1028;
819.6000;0.1481;-0.1075;
819.9000;0.1481;-0.1123;
820.2000;0.1498;-0.1123;
820.5000;0.1490;-0.1147;
820.8000;0.1449;-0.1290;
821.1000;0.1498;-0.1243;
821.4000;0.1481;-0.1243;
821.7000;0.1481;-0.1171;
822.0000;0.1490;-0.1004;
822.3000;0.1498;-0.1051;
822.6000;0.1481;-0.1123;
822.9000;0.1473;-0.1243;
823.2000;0.1571;-0.1051;
823.5000;0.1514;-0.1123;
823.8000;0.1530;-0.1099;
824.1000;0.1506;-0.1075;
824.4000;0.1481;-0.1099;
824.7000;0.1408;-0.1290;
825.0000;0.1514;-0.1099;
825.3000;0.1506;-0.1123;
825.6000;0.1498;-0.1266;
825.9000;0.1490;-0.1386;
826.2000;0.1481;-0.1434;
826.5000;0.1481;-0.1362;
826.8000;0.1498;-0.1314;
827.1000;0.1481;-0.1314;
827.4000;0.1514;-0.1243;
827.7000;0.1490;-0.1314;
828.0000;0.1490;-0.1219;
828.3000;0.1473;-0.1219;
828.6000;0.1449;-0.1338;
828.9000;0.1490;-0.1219;
829.2000;0.1538;-0.1123;
829.5000;0.1498;-0.1290;
829.8000;0.1457;-0.1434;
830.1000;0.1481;-0.1362;
830.4000;0.1587;-0.1028;
830.7000;0.1481;-0.1266;
831.0000;0.1506;-0.1290;
831.3000;0.1481;-0.1410;
831.6000;0.1514;-0.1362;
831.9000;0.1481;-0.1410;
832.2000;0.1490;-0.1410;
832.5000;0.1481;-0.1458;
832.8000;0.1490;-0.1410;
833.1000;0.1465;-0.1505;
833.4000;0.1506;-0.1458;
833.7000;0.1457;-0.1577;
834.0000;0.1449;-0.1529;
834.3000;0.1481;-0.1434;
834.6000;0.1490;-0.1386;
834.9000;0.1506;-0.1314;
835.2000;0.1473;-0.1410;
835.5000;0.1473;-0.1314;
835.8000;0.1498;-0.1195;
836.1000;0.1473;-0.1171;
836.4000;0.1473;-0.1266;
836.7000;0.1473;-0.1266;
837.0000;0.1506;-0.1171;
837.3000;0.1547;-0.1051;
837.6000;0.1473;-0.1171;
837.9000;0.1473;-0.1171;
838.2000;0.1498;-0.1123;
838.5000;0.1433;-0.1219;
838.8000;0.1498;-0.1028;
839.1000;0.1490;-0.1123;
839.4000;0.1490;-0.1123;
839.7000;0.1506;-0.0980;
840.0000;0.1465;-0.1099;
840.3000;0.1490;-0.0956;
840.6000;0.1473;-0.1075;
840.9000;0.1498;-0.1051;
841.2000;0.1490;-0.1051;
841.5000;0.1481;-0.1028;
841.8000;0.1481;-0.1147;
842.1000;0.1490;-0.1171;
842.4000;0.1481;-0.1243;
842.7000;0.1481;-0.1243;
843.0000;0.1473;-0.1338;
843.3000;0.1506;-0.1290;
843.6000;0.1481;-0.1386;
843.9000;0.1473;-0.1386;
844.2000;0.1473;-0.1482;
844.5000;0.1481;-0.1482;
844.8000;0.1571;-0.1338;
845.1000;0.1490;-0.1553;
845.4000;0.1481;-0.1529;
845.7000;0.1481;-0.1529;
846.0000;0.1514;-0.1482;
846.3000;0.1481;-0.1505;
846.6000;0.1449;-0.1529;
846.9000;0.1473;-0.1482;
847.2000;0.1465;-0.1553;
847.5000;0.1490;-0.1505;
847.8000;0.1490;-0.1482;
848.1000;0.1481;-0.1482;
848.4000;0.1514;-0.1482;
848.7000;0.1530;-0.1410;
849.0000;0.1522;-0.1338;
849.3000;0.1498;-0.1386;
849.6000;0.1465;-0.1553;
849.9000;0.1490;-0.1410;
850.2000;0.1425;-0.1649;
850.5000;0.1490;-0.1458;
850.8000;0.1465;-0.1529;
851.1000;0.1481;-0.1577;
851.4000;0.1530;-0.1458;
851.7000;0.1473;-0.1649;
852.0000;0.1400;-0.1864;
852.3000;0.1506;-0.1577;
852.6000;0.1555;-0.1290;
852.9000;0.1522;-0.1386;
853.2000;0.1473;-0.1577;
853.5000;0.1465;-0.1625;
853.8000;0.1579;-0.1338;
854.1000;0.1506;-0.1482;
854.4000;0.1490;-0.1410;
854.7000;0.1498;-0.1434;
855.0000;0.1490;-0.1386;
855.3000;0.1408;-0.1505;
855.6000;0.1449;-0.1434;
855.9000;0.1498;-0.1266;
856.2000;0.1473;-0.1290;
856.5000;0.1490;-0.1195;
856.8000;0.1473;-0.1219;
857.1000;0.1465;-0.1171;
857.4000;0.1490;-0.1099;
857.7000;0.1481;-0.1099;
858.0000;0.1506;-0.0980;
858.3000;0.1498;-0.0980;
858.6000;0.1490;-0.1099;
858.9000;0.1481;-0.1171;
859.2000;0.1481;-0.1219;
859.5000;0.1481;-0.1147;
859.8000;0.1490;-0.1243;
860.1000;0.1498;-0.1266;
860.4000;0.1473;-0.1266;
860.7000;0.1490;-0.1338;
861.0000;0.1490;-0.1362;
861.3000;0.1473;-0.1362;
861.6000;0.1490;-0.1290;
861.9000;0.1490;-0.1266;
862.2000;0.1441;-0.1338;
862.5000;0.1498;-0.1219;
862.8000;0.1481;-0.1290;
863.1000;0.1506;-0.1243;
863.4000;0.1490;-0.1290;
863.7000;0.1481;-0.1243;
864.0000;0.1481;-0.1410;
864.3000;0.1481;-0.1266;
864.6000;0.1433;-0.1362;
864.9000;0.1481;-0.1195;
865.2000;0.1498;-0.0980;
865.5000;0.1498;-0.1004;
865.8000;0.1490;-0.1051;
866.1000;0.1473;-0.1075;
866.4000;0.1392;-0.1338;
866.7000;0.1506;-0.1099;
867.0000;0.1490;-0.1171;
867.3000;0.1473;-0.1266;
867.6000;0.1506;-0.1219;
867.9000;0.1457;-0.1362;
868.2000;0.1563;-0.1147;
868.5000;0.1481;-0.1386;
868.8000;0.1473;-0.1410;
869.1000;0.1530;-0.1290;
869.4000;0.1481;-0.1434;
869.7000;0.1449;-0.1482;
870.0000;0.1506;-0.1338;
870.3000;0.1498;-0.1410;
870.6000;0.1498;-0.1362;
870.9000;0.1506;-0.1290;
871.2000;0.1473;-0.1362;
871.5000;0.1457;-0.1338;
871.8000;0.1490;-0.1338;
872.1000;0.1400;-0.1577;
872.4000;0.1490;-0.1338;
872.7000;0.1473;-0.1434;
873.0000;0.1416;-0.1697;
873.3000;0.1490;-0.1482;
873.6000;0.1481;-0.1482;
873.9000;0.1522;-0.1458;
874.2000;0.1473;-0.1529;
874.5000;0.1498;-0.1482;
874.8000;0.1514;-0.1410;
875.1000;0.1547;-0.1314;
875.4000;0.1473;-0.1601;
875.7000;0.1498;-0.1601;
876.0000;0.1555;-0.1410;
876.3000;0.1490;-0.1529;
876.6000;0.1490;-0.1577;
876.9000;0.1498;-0.1577;
877.2000;0.1506;-0.1482;
877.5000;0.1481;-0.1553;
877.8000;0.1465;-0.1505;
878.1000;0.1465;-0.1482;
878.4000;0.1368;-0.1792;
878.7000;0.1490;-0.1505;
879.0000;0.1490;-0.1577;
879.3000;0.1441;-0.1673;
879.6000;0.1498;-0.1505;
879.9000;0.1441;-0.1482;
880.2000;0.1481;-0.1386;
880.5000;0.1498;-0.1314;
880.8000;0.1514;-0.1314;
881.1000;0.1490;-0.1362;
881.4000;0.1498;-0.1362;
881.7000;0.1473;-0.1410;
882.0000;0.1506;-0.1314;
882.3000;0.1441;-0.1458;
882.6000;0.1481;-0.1362;
882.9000;0.1481;-0.1362;
883.2000;0.1530;-0.1195;
883.5000;0.1514;-0.1243;
883.8000;0.1514;-0.1266;
884.1000;0.1506;-0.1290;
884.4000;0.1490;-0.1362;
884.7000;0.1498;-0.1386;
885.0000;0.1506;-0.1410;
885.3000;0.1416;-0.1577;
885.6000;0.1490;-0.1482;
885.9000;0.1481;-0.1529;
886.2000;0.1473;-0.1482;
886.5000;0.1514;-0.1386;
886.8000;0.1481;-0.1482;
887.1000;0.1481;-0.1434;
887.4000;0.1481;-0.1505;
887.7000;0.1490;-0.1410;
888.0000;0.1530;-0.1219;
888.3000;0.1530;-0.1171;
888.6000;0.1481;-0.1314;
888.9000;0.1473;-0.1290;
889.2000;0.1490;-0.1243;
889.5000;0.1473;-0.1314;
889.8000;0.1490;-0.1314;
890.1000;0.1473;-0.1290;
890.4000;0.1490;-0.1243;
890.7000;0.1481;-0.1266;
891.0000;0.1473;-0.1290;
891.3000;0.1506;-0.1147;
891.6000;0.1498;-0.1243;
891.9000;0.1441;-0.1386;
892.2000;0.1498;-0.1362;
892.5000;0.1490;-0.1338;
892.8000;0.1490;-0.1290;
893.1000;0.1506;-0.1290;
893.4000;0.1506;-0.1314;
893.7000;0.1481;-0.1386;
894.0000;0.1490;-0.1290;
894.3000;0.1473;-0.1362;
894.6000;0.1465;-0.1434;
894.9000;0.1490;-0.1410;
895.2000;0.1506;-0.1338;
895.5000;0.1481;-0.1410;
895.8000;0.1506;-0.1386;
896.1000;0.1514;-0.1338;
896.4000;0.1490;-0.1290;
896.7000;0.1628;-0.0908;
897.0000;0.1481;-0.1338;
897.3000;0.1498;-0.1314;
897.6000;0.1490;-0.1243;
897.9000;0.1555;-0.1075;
898.2000;0.1473;-0.1219;
898.5000;0.1457;-0.1266;
898.8000;0.1506;-0.1266;
899.1000;0.1498;-0.1219;
899.4000;0.1449;-0.1338;
899.7000;0.1465;-0.1314;
900.0000;0.1579;-0.1051;
900.3000;0.1490;-0.1195;
900.6000;0.1465;-0.1147;
900.9000;0.1506;-0.1028;
901.2000;0.1473;-0.1147;
901.5000;0.1506;-0.1099;
901.8000;0.1449;-0.1314;
902.1000;0.1506;-0.1171;
902.4000;0.1506;-0.1147;
902.7000;0.1481;-0.1243;
903.0000;0.1481;-0.1266;
903.3000;0.1473;-0.1290;
903.6000;0.1522;-0.1219;
903.9000;0.1465;-0.1314;
904.2000;0.1481;-0.1290;
904.5000;0.1490;-0.1314;
904.8000;0.1481;-0.1362;
905.1000;0.1481;-0.1290;
905.4000;0.1490;-0.1266;
905.7000;0.1514;-0.1099;
906.0000;0.1498;-0.1219;
906.3000;0.1490;-0.1195;
906.6000;0.1473;-0.1243;
906.9000;0.1514;-0.1195;
907.2000;0.1481;-0.1290;
907.5000;0.1506;-0.1219;
907.8000;0.1506;-0.1266;
908.1000;0.1498;-0.1219;
908.4000;0.1490;-0.1171;
908.7000;0.1449;-0.1314;
909.0000;0.1498;-0.1243;
909.3000;0.1498;-0.1290;
909.6000;0.1490;-0.1314;
909.9000;0.1490;-0.1338;
910.2000;0.1490;-0.1362;
910.5000;0.1490;-0.1434;
910.8000;0.1498;-0.1362;
911.1000;0.1498;-0.1386;
911.4000;0.1522;-0.1195;
911.7000;0.1481;-0.1314;
912.0000;0.1481;-0.1314;
912.3000;0.1530;-0.1290;
912.6000;0.1465;-0.1386;
912.9000;0.1498;-0.1290;
913.2000;0.1498;-0.1290;
913.5000;0.1498;-0.1410;
913.8000;0.1522;-0.1410;
914.1000;0.1473;-0.1386;
914.4000;0.1481;-0.1290;
914.7000;0.1449;-0.1338;
915.0000;0.1473;-0.1290;
915.3000;0.1538;-0.1099;
915.6000;0.1490;-0.1266;
915.9000;0.1506;-0.1195;
916.2000;0.1498;-0.1266;
916.5000;0.1481;-0.1314;
916.8000;0.1465;-0.1410;
917.1000;0.1465;-0.1434;
917.4000;0.1473;-0.1458;
917.7000;0.1514;-0.1314;
918.0000;0.1481;-0.1386;
918.3000;0.1498;-0.1266;
918.6000;0.1522;-0.1219;
918.9000;0.1547;-0.1099;
919.2000;0.1506;-0.1171;
919.5000;0.1555;-0.1099;
919.8000;0.1498;-0.1195;
920.1000;0.1490;-0.1314;
920.4000;0.1490;-0.1338;
920.7000;0.1359;-0.1649;
921.0000;0.1481;-0.1290;
921.3000;0.1465;-0.1338;
921.6000;0.1465;-0.1338;
921.9000;0.1490;-0.1195;
922.2000;0.1498;-0.1147;
922.5000;0.1514;-0.1171;
922.8000;0.1441;-0.1410;
923.1000;0.1490;-0.1290;
923.4000;0.1473;-0.1386;
923.7000;0.1514;-0.1290;
924.0000;0.1555;-0.1171;
924.3000;0.1473;-0.1266;
924.6000;0.1490;-0.1219;
924.9000;0.1498;-0.1219;
925.2000;0.1506;-0.1219;
925.5000;0.1490;-0.1243;
925.8000;0.1514;-0.1290;
926.1000;0.1481;-0.1386;
926.4000;0.1481;-0.1410;
926.7000;0.1481;-0.1314;
927.0000;0.1473;-0.1290;
927.3000;0.1465;-0.1219;
927.6000;0.1490;-0.1123;
927.9000;0.1481;-0.1219;
928.2000;0.1465;-0.1195;
928.5000;0.1481;-0.1123;
928.8000;0.1473;-0.1147;
929.1000;0.1481;-0.1099;
929.4000;0.1547;-0.1028;
929.7000;0.1506;-0.1243;
930.0000;0.1490;-0.1219;
930.3000;0.1490;-0.1195;
930.6000;0.1490;-0.1219;
930.9000;0.1490;-0.1195;
931.2000;0.1490;-0.1171;
931.5000;0.1514;-0.1051;
931.8000;0.1514;-0.1099;
932.1000;0.1506;-0.1123;
932.4000;0.1465;-0.1195;
932.7000;0.1530;-0.1171;
933.0000;0.1481;-0.1386;
933.3000;0.1490;-0.1314;
933.6000;0.1498;-0.1219;
933.9000;0.1473;-0.1195;
934.2000;0.1498;-0.1195;
934.5000;0.1506;-0.1266;
934.8000;0.1538;-0.1219;
935.1000;0.1490;-0.1314;
935.4000;0.1530;-0.1219;
935.7000;0.1506;-0.1266;
936.0000;0.1506;-0.1266;
936.3000;0.1595;-0.0980;
936.6000;0.1481;-0.1219;
936.9000;0.1490;-0.1195;
937.2000;0.1506;-0.1266;
937.5000;0.1481;-0.1243;
937.8000;0.1481;-0.1362;
938.1000;0.1433;-0.1505;
938.4000;0.1473;-0.1362;
938.7000;0.1530;-0.1147;
939.0000;0.1595;-0.1004;
939.3000;0.1498;-0.1290;
939.6000;0.1465;-0.1338;
939.9000;0.1457;-0.1362;
940.2000;0.1465;-0.1290;
940.5000;0.1490;-0.1219;
940.8000;0.1473;-0.1266;
941.1000;0.1400;-0.1434;
941.4000;0.1457;-0.1362;
941.7000;0.1457;-0.1314;
942.0000;0.1498;-0.1290;
942.3000;0.1473;-0.1338;
942.6000;0.1433;-0.1338;
942.9000;0.1400;-0.1458;
943.2000;0.1457;-0.1314;
943.5000;0.1481;-0.1266;
943.8000;0.1490;-0.1219;
944.1000;0.1620;-0.0908;
944.4000;0.1498;-0.1123;
944.7000;0.1449;-0.1219;
945.0000;0.1498;-0.1075;
945.3000;0.1473;-0.1290;
945.6000;0.1465;-0.1362;
945.9000;0.1530;-0.1243;
946.2000;0.1473;-0.1362;
946.5000;0.1498;-0.1386;
946.8000;0.1490;-0.1434;
947.1000;0.1498;-0.1434;
947.4000;0.1498;-0.1434;
947.7000;0.1498;-0.1458;
948.0000;0.1481;-0.1505;
948.3000;0.1506;-0.1458;
948.6000;0.1441;-0.1577;
948.9000;0.1465;-0.1553;
949.2000;0.1473;-0.1649;
949.5000;0.1473;-0.1553;
949.8000;0.1506;-0.1553;
950.1000;0.1465;-0.1601;
950.4000;0.1498;-0.1529;
950.7000;0.1465;-0.1553;
951.0000;0.1555;-0.1266;
951.3000;0.1473;-0.1482;
951.6000;0.1481;-0.1386;
951.9000;0.1490;-0.1386;
952.2000;0.1481;-0.1482;
952.5000;0.1490;-0.1410;
952.8000;0.1506;-0.1434;
953.1000;0.1498;-0.1434;
953.4000;0.1490;-0.1625;
953.7000;0.1490;-0.1721;
954.0000;0.1473;-0.1721;
954.3000;0.1473;-0.1673;
954.6000;0.1481;-0.1721;
954.9000;0.1457;-0.1673;
955.2000;0.1473;-0.1601;
955.5000;0.1506;-0.1482;
955.8000;0.1490;-0.1458;
956.1000;0.1490;-0.1482;
956.4000;0.1481;-0.1505;
956.7000;0.1514;-0.1362;
957.0000;0.1473;-0.1338;
957.3000;0.1416;-0.1529;
957.6000;0.1490;-0.1362;
957.9000;0.1490;-0.1529;
958.2000;0.1628;-0.1147;
958.5000;0.1506;-0.1386;
958.8000;0.1481;-0.1577;
959.1000;0.1465;-0.1601;
959.4000;0.1490;-0.1529;
959.7000;0.1522;-0.1505;
960.0000;0.1457;-0.1697;
960.3000;0.1473;-0.1649;
960.6000;0.1490;-0.1697;
960.9000;0.1498;-0.1649;
961.2000;0.1538;-0.1505;
961.5000;0.1514;-0.1553;
961.8000;0.1473;-0.1625;
962.1000;0.1498;-0.1458;
962.4000;0.1514;-0.1386;
962.7000;0.1490;-0.1434;
963.0000;0.1555;-0.1266;
963.3000;0.1498;-0.1362;
963.6000;0.1498;-0.1386;
963.9000;0.1473;-0.1338;
964.2000;0.1490;-0.1362;
964.5000;0.1481;-0.1314;
964.8000;0.1490;-0.1314;
965.1000;0.1530;-0.1099;
965.4000;0.1473;-0.1266;
965.7000;0.1530;-0.1099;
966.0000;0.1636;-0.0884;
966.3000;0.1481;-0.1290;
966.6000;0.1538;-0.1195;
966.9000;0.1465;-0.1505;
967.2000;0.1481;-0.1458;
967.5000;0.1490;-0.1434;
967.8000;0.1490;-0.1434;
968.1000;0.1506;-0.1410;
968.4000;0.1425;-0.1625;
968.7000;0.1498;-0.1482;
969.0000;0.1547;-0.1314;
969.3000;0.1490;-0.1434;
969.6000;0.1498;-0.1386;
969.9000;0.1506;-0.1362;
970.2000;0.1465;-0.1386;
970.5000;0.1498;-0.1362;
970.8000;0.1481;-0.1362;
971.1000;0.1490;-0.1243;
971.4000;0.1498;-0.1266;
971.7000;0.1514;-0.1290;
972.0000;0.1481;-0.1482;
972.3000;0.1506;-0.1458;
972.6000;0.1490;-0.1505;
972.9000;0.1457;-0.1553;
973.2000;0.1522;-0.1386;
973.5000;0.1481;-0.1505;
973.8000;0.1571;-0.1219;
974.1000;0.1498;-0.1314;
974.4000;0.1555;-0.1195;
974.7000;0.1490;-0.1290;
975.0000;0.1481;-0.1338;
975.3000;0.1490;-0.1266;
975.6000;0.1441;-0.1338;
975.9000;0.1465;-0.1314;
976.2000;0.1490;-0.1362;
976.5000;0.1465;-0.1386;
976.8000;0.1481;-0.1410;
977.1000;0.1490;-0.1386;
977.4000;0.1490;-0.1338;
977.7000;0.1514;-0.1362;
978.0000;0.1498;-0.1338;
978.3000;0.1465;-0.1434;
978.6000;0.1473;-0.1482;
978.9000;0.1490;-0.1410;
979.2000;0.1465;-0.1505;
979.5000;0.1473;-0.1458;
979.8000;0.1433;-0.1649;
980.1000;0.1498;-0.1482;
980.4000;0.1481;-0.1482;
980.7000;0.1441;-0.1577;
981.0000;0.1490;-0.1505;
981.3000;0.1490;-0.1505;
981.6000;0.1522;-0.1410;
981.9000;0.1481;-0.1577;
982.2000;0.1490;-0.1505;
982.5000;0.1490;-0.1458;
982.8000;0.1498;-0.1482;
983.1000;0.1490;-0.1434;
983.4000;0.1490;-0.1434;
983.7000;0.1465;-0.1529;
984.0000;0.1481;-0.1529;
984.3000;0.1498;-0.1434;
984.6000;0.1368;-0.1744;
984.9000;0.1490;-0.1338;
985.2000;0.1498;-0.1362;
985.5000;0.1481;-0.1434;
985.8000;0.1465;-0.1410;
986.1000;0.1481;-0.1314;
986.4000;0.1490;-0.1243;
986.7000;0.1498;-0.1195;
987.0000;0.1498;-0.1195;
987.3000;0.1465;-0.1314;
987.6000;0.1481;-0.1410;
987.9000;0.1473;-0.1410;
988.2000;0.1506;-0.1386;
988.5000;0.1498;-0.1458;
988.8000;0.1481;-0.1434;
989.1000;0.1547;-0.1290;
989.4000;0.1473;-0.1482;
989.7000;0.1490;-0.1434;
990.0000;0.1498;-0.1434;
990.3000;0.1481;-0.1458;
990.6000;0.1498;-0.1482;
990.9000;0.1481;-0.1482;
991.2000;0.1498;-0.1410;
991.5000;0.1384;-0.1768;
991.8000;0.1490;-0.1529;
992.1000;0.1498;-0.1553;
992.4000;0.1481;-0.1529;
992.7000;0.1481;-0.1529;
993.0000;0.1490;-0.1577;
993.3000;0.1481;-0.1601;
993.6000;0.1481;-0.1553;
993.9000;0.1441;-0.1649;
994.2000;0.1498;-0.1482;
994.5000;0.1498;-0.1458;
994.8000;0.1473;-0.1434;
995.1000;0.1506;-0.1410;
995.4000;0.1490;-0.1505;
995.7000;0.1514;-0.1386;
996.0000;0.1384;-0.1697;
996.3000;0.1498;-0.1410;
996.6000;0.1498;-0.1434;
996.9000;0.1498;-0.1386;
997.2000;0.1506;-0.1410;
997.5000;0.1506;-0.1482;
997.8000;0.1473;-0.1601;
998.1000;0.1465;-0.1697;
998.4000;0.1514;-0.1601;
998.7000;0.1481;-0.1625;
999.0000;0.1473;-0.1673;
999.3000;0.1490;-0.1625;
999.6000;0.1538;-0.1458;
999.9000;0.1490;-0.1673;
1000.2000;0.1498;-0.1697;
1000.5000;0.1490;-0.1673;
1000.8000;0.1522;-0.1649;
1001.1000;0.1473;-0.1721;
1001.4000;0.1481;-0.1673;
1001.7000;0.1441;-0.1816;
1002.0000;0.1481;-0.1721;
1002.3000;0.1490;-0.1673;
1002.6000;0.1481;-0.1649;
1002.9000;0.1490;-0.1577;
1003.2000;0.1522;-0.1458;
1003.5000;0.1490;-0.1529;
1003.8000;0.1481;-0.1482;
1004.1000;0.1481;-0.1458;
1004.4000;0.1498;-0.1386;
1004.7000;0.1441;-0.1529;
1005.0000;0.1490;-0.1482;
1005.3000;0.1481;-0.1601;
1005.6000;0.1498;-0.1625;
1005.9000;0.1490;-0.1625;
1006.2000;0.1514;-0.1529;
1006.5000;0.1498;-0.1529;
1006.8000;0.1490;-0.1482;
1007.1000;0.1498;-0.1505;
1007.4000;0.1481;-0.1434;
1007.7000;0.1506;-0.1314;
1008.0000;0.1490;-0.1314;
1008.3000;0.1481;-0.1434;
1008.6000;0.1530;-0.1219;
1008.9000;0.1490;-0.1266;
1009.2000;0.1473;-0.1362;
1009.5000;0.1604;-0.0980;
1009.8000;0.1416;-0.1386;
1010.1000;0.1498;-0.1195;
1010.4000;0.1498;-0.1147;
1010.7000;0.1465;-0.1219;
1011.0000;0.1506;-0.1123;
1011.3000;0.1498;-0.1147;
1011.6000;0.1538;-0.1147;
1011.9000;0.1433;-0.1386;
1012.2000;0.1498;-0.1266;
1012.5000;0.1400;-0.1553;
1012.8000;0.1490;-0.1314;
1013.1000;0.1457;-0.1362;
1013.4000;0.1457;-0.1434;
1013.7000;0.1506;-0.1338;
1014.0000;0.1490;-0.1410;
1014.3000;0.1465;-0.1458;
1014.6000;0.1481;-0.1482;
1014.9000;0.1490;-0.1482;
1015.2000;0.1481;-0.1577;
1015.5000;0.1563;-0.1314;
1015.8000;0.1587;-0.1219;
1016.1000;0.1530;-0.1314;
1016.4000;0.1473;-0.1529;
1016.7000;0.1514;-0.1482;
1017.0000;0.1465;-0.1529;
1017.3000;0.1490;-0.1529;
1017.6000;0.1481;-0.1553;
1017.9000;0.1498;-0.1482;
1018.2000;0.1498;-0.1458;
1018.5000;0.1579;-0.1338;
1018.8000;0.1465;-0.1577;
1019.1000;0.1481;-0.1505;
1019.4000;0.1481;-0.1529;
1019.7000;0.1514;-0.1458;
1020.0000;0.1490;-0.1482;
1020.3000;0.1498;-0.1434;
1020.6000;0.1490;-0.1482;
1020.9000;0.1481;-0.1410;
1021.2000;0.1490;-0.1314;
1021.5000;0.1490;-0.1362;
1021.8000;0.1506;-0.1314;
1022.1000;0.1490;-0.1362;
1022.4000;0.1481;-0.1338;
1022.7000;0.1457;-0.1386;
1023.0000;0.1506;-0.1362;
1023.3000;0.1587;-0.1147;
1023.6000;0.1473;-0.1410;
1023.9000;0.1498;-0.1386;
1024.2000;0.1498;-0.1338;
1024.5000;0.1465;-0.1386;
1024.8000;0.1473;-0.1434;
1025.1000;0.1490;-0.1410;
1025.4000;0.1490;-0.1386;
1025.7000;0.1408;-0.1625;
1026.0000;0.1490;-0.1338;
1026.3000;0.1465;-0.1410;
1026.6000;0.1490;-0.1362;
1026.9000;0.1506;-0.1314;
1027.2000;0.1490;-0.1338;
1027.5000;0.1481;-0.1314;
1027.8000;0.1457;-0.1362;
1028.1000;0.1506;-0.1290;
1028.4000;0.1506;-0.1290;
1028.7000;0.1595;-0.1099;
1029.0000;0.1498;-0.1362;
1029.3000;0.1465;-0.1482;
1029.6000;0.1457;-0.1577;
1029.9000;0.1490;-0.1505;
1030.2000;0.1490;-0.1482;
1030.5000;0.1506;-0.1505;
1030.8000;0.1490;-0.1529;
1031.1000;0.1490;-0.1505;
1031.4000;0.1481;-0.1434;
1031.7000;0.1490;-0.1410;
1032.0000;0.1506;-0.1362;
1032.3000;0.1473;-0.1434;
1032.6000;0.1473;-0.1314;
1032.9000;0.1498;-0.1171;
1033.2000;0.1498;-0.1219;
1033.5000;0.1498;-0.1266;
1033.8000;0.1465;-0.1266;
1034.1000;0.1522;-0.1219;
1034.4000;0.1481;-0.1290;
1034.7000;0.1408;-0.1362;
1035.0000;0.1449;-0.1290;
1035.3000;0.1490;-0.1314;
1035.6000;0.1457;-0.1410;
1035.9000;0.1457;-0.1314;
1036.2000;0.1490;-0.1195;
1036.5000;0.1441;-0.1314;
1036.8000;0.1481;-0.1243;
1037.1000;0.1441;-0.1458;
1037.4000;0.1490;-0.1338;
1037.7000;0.1490;-0.1338;
1038.0000;0.1547;-0.1243;
1038.3000;0.1514;-0.1434;
1038.6000;0.1498;-0.1410;
1038.9000;0.1498;-0.1458;
1039.2000;0.1498;-0.1458;
1039.5000;0.1490;-0.1482;
1039.8000;0.1490;-0.1458;
1040.1000;0.1498;-0.1410;
1040.4000;0.1473;-0.1434;
1040.7000;0.1457;-0.1482;
1041.0000;0.1473;-0.1434;
1041.3000;0.1425;-0.1529;
1041.6000;0.1457;-0.1434;
1041.9000;0.1547;-0.1171;
1042.2000;0.1498;-0.1290;
1042.5000;0.1490;-0.1243;
1042.8000;0.1473;-0.1386;
1043.1000;0.1506;-0.1386;
1043.4000;0.1481;-0.1410;
1043.7000;0.1473;-0.1362;
1044.0000;0.1425;-0.1458;
1044.3000;0.1465;-0.1434;
1044.6000;0.1481;-0.1386;
1044.9000;0.1498;-0.1290;
1045.2000;0.1473;-0.1314;
1045.5000;0.1473;-0.1219;
1045.8000;0.1481;-0.1219;
1046.1000;0.1498;-0.1147;
1046.4000;0.1481;-0.1147;
1046.7000;0.1506;-0.1004;
1047.0000;0.1506;-0.1028;
1047.3000;0.1490;-0.1004;
1047.6000;0.1490;-0.1028;
1047.9000;0.1376;-0.1314;
1048.2000;0.1522;-0.1004;
1048.5000;0.1506;-0.1075;
1048.8000;0.1490;-0.1147;
1049.1000;0.1368;-0.1505;
1049.4000;0.1473;-0.1219;
1049.7000;0.1433;-0.1410;
1050.0000;0.1490;-0.1266;
1050.3000;0.1473;-0.1362;
1050.6000;0.1473;-0.1338;
1050.9000;0.1473;-0.1338;
1051.2000;0.1498;-0.1362;
1051.5000;0.1514;-0.1314;
1051.8000;0.1498;-0.1410;
1052.1000;0.1441;-0.1601;
1052.4000;0.1490;-0.1482;
1052.7000;0.1587;-0.1290;
1053.0000;0.1490;-0.1482;
1053.3000;0.1498;-0.1458;
1053.6000;0.1481;-0.1529;
1053.9000;0.1506;-0.1458;
1054.2000;0.1473;-0.1577;
1054.5000;0.1457;-0.1673;
1054.8000;0.1490;-0.1553;
1055.1000;0.1506;-0.1482;
1055.4000;0.1498;-0.1482;
1055.7000;0.1457;-0.1482;
1056.0000;0.1481;-0.1386;
1056.3000;0.1457;-0.1410;
1056.6000;0.1481;-0.1314;
1056.9000;0.1506;-0.1195;
1057.2000;0.1506;-0.1243;
1057.5000;0.1522;-0.1219;
1057.8000;0.1416;-0.1601;
1058.1000;0.1498;-0.1386;
1058.4000;0.1490;-0.1482;
1058.7000;0.1538;-0.1338;
1059.0000;0.1522;-0.1338;
1059.3000;0.1481;-0.1386;
1059.6000;0.1449;-0.1458;
1059.9000;0.1408;-0.1625;
1060.2000;0.1490;-0.1482;
1060.5000;0.1612;-0.1099;
1060.8000;0.1530;-0.1338;
1061.1000;0.1473;-0.1482;
1061.4000;0.1481;-0.1482;
1061.7000;0.1481;-0.1386;
1062.0000;0.1530;-0.1266;
1062.3000;0.1473;-0.1434;
1062.6000;0.1514;-0.1434;
1062.9000;0.1490;-0.1505;
1063.2000;0.1522;-0.1410;
1063.5000;0.1490;-0.1458;
1063.8000;0.1498;-0.1386;
1064.1000;0.1514;-0.1314;
1064.4000;0.1490;-0.1362;
1064.7000;0.1457;-0.1482;
1065.0000;0.1490;-0.1362;
1065.3000;0.1522;-0.1290;
1065.6000;0.1490;-0.1386;
1065.9000;0.1400;-0.1697;
1066.2000;0.1457;-0.1529;
1066.5000;0.1506;-0.1386;
1066.8000;0.1465;-0.1482;
1067.1000;0.1514;-0.1362;
1067.4000;0.1457;-0.1458;
1067.7000;0.1506;-0.1386;
1068.0000;0.1465;-0.1458;
1068.3000;0.1490;-0.1458;
1068.6000;0.1514;-0.1434;
1068.9000;0.1498;-0.1505;
1069.2000;0.1514;-0.1529;
1069.5000;0.1506;-0.1505;
1069.8000;0.1498;-0.1482;
1070.1000;0.1457;-0.1529;
1070.4000;0.1481;-0.1434;
1070.7000;0.1490;-0.1314;
1071.0000;0.1514;-0.1386;
1071.3000;0.1481;-0.1482;
1071.6000;0.1530;-0.1314;
1071.9000;0.1465;-0.1529;
1072.2000;0.1481;-0.1601;
1072.5000;0.1481;-0.1505;
1072.8000;0.1473;-0.1505;
1073.1000;0.1514;-0.1410;
1073.4000;0.1490;-0.1505;
1073.7000;0.1408;-0.1649;
1074.0000;0.1490;-0.1482;
1074.3000;0.1481;-0.1458;
1074.6000;0.1506;-0.1266;
1074.9000;0.1506;-0.1243;
1075.2000;0.1490;-0.1171;
1075.5000;0.1481;-0.1219;
1075.8000;0.1498;-0.1171;
1076.1000;0.1490;-0.1219;
1076.4000;0.1498;-0.1290;
1076.7000;0.1490;-0.1219;
1077.0000;0.1481;-0.1266;
1077.3000;0.1498;-0.1314;
1077.6000;0.1514;-0.1410;
1077.9000;0.1481;-0.1458;
1078.2000;0.1498;-0.1410;
1078.5000;0.1481;-0.1410;
1078.8000;0.1400;-0.1673;
1079.1000;0.1490;-0.1410;
1079.4000;0.1498;-0.1458;
1079.7000;0.1481;-0.1529;
1080.0000;0.1490;-0.1386;
1080.3000;0.1490;-0.1386;
1080.6000;0.1514;-0.1314;
1080.9000;0.1506;-0.1290;
1081.2000;0.1498;-0.1314;
1081.5000;0.1506;-0.1338;
1081.8000;0.1490;-0.1458;
1082.1000;0.1514;-0.1410;
1082.4000;0.1498;-0.1410;
1082.7000;0.1506;-0.1434;
1083.0000;0.1490;-0.1434;
1083.3000;0.1416;-0.1577;
1083.6000;0.1490;-0.1434;
1083.9000;0.1473;-0.1458;
1084.2000;0.1465;-0.1338;
1084.5000;0.1498;-0.1243;
1084.8000;0.1473;-0.1243;
1085.1000;0.1498;-0.1123;
1085.4000;0.1490;-0.1147;
1085.7000;0.1473;-0.1243;
1086.0000;0.1449;-0.1386;
1086.3000;0.1473;-0.1338;
1086.6000;0.1522;-0.1243;
1086.9000;0.1490;-0.1362;
1087.2000;0.1498;-0.1314;
1087.5000;0.1490;-0.1386;
1087.8000;0.1490;-0.1362;
1088.1000;0.1481;-0.1386;
1088.4000;0.1514;-0.1290;
1088.7000;0.1498;-0.1314;
1089.0000;0.1604;-0.1004;
1089.3000;0.1490;-0.1290;
1089.6000;0.1498;-0.1290;
1089.9000;0.1498;-0.1219;
1090.2000;0.1490;-0.1171;
1090.5000;0.1490;-0.1147;
1090.8000;0.1473;-0.1147;
1091.1000;0.1490;-0.1099;
1091.4000;0.1514;-0.0980;
1091.7000;0.1514;-0.0908;
1092.0000;0.1457;-0.1099;
1092.3000;0.1481;-0.1099;
1092.6000;0.1490;-0.1123;
1092.9000;0.1408;-0.1362;
1093.2000;0.1490;-0.1099;
1093.5000;0.1473;-0.1123;
1093.8000;0.1490;-0.1147;
1094.1000;0.1514;-0.1171;
1094.4000;0.1498;-0.1219;
1094.7000;0.1579;-0.0980;
1095.0000;0.1514;-0.1147;
1095.3000;0.1490;-0.1195;
1095.6000;0.1506;-0.1171;
1095.9000;0.1481;-0.1362;
1096.2000;0.1563;-0.1266;
1096.5000;0.1498;-0.1458;
1096.8000;0.1498;-0.1434;
1097.1000;0.1425;-0.1697;
1097.4000;0.1498;-0.1434;
1097.7000;0.1514;-0.1362;
1098.0000;0.1555;-0.1314;
1098.3000;0.1481;-0.1458;
1098.6000;0.1490;-0.1410;
1098.9000;0.1498;-0.1434;
1099.2000;0.1441;-0.1601;
1099.5000;0.1457;-0.1458;
1099.8000;0.1481;-0.1362;
1100.1000;0.1498;-0.1219;
1100.4000;0.1490;-0.1290;
1100.7000;0.1571;-0.1051;
1101.0000;0.1481;-0.1290;
1101.3000;0.1481;-0.1386;
1101.6000;0.1481;-0.1362;
1101.9000;0.1498;-0.1434;
1102.2000;0.1473;-0.1505;
1102.5000;0.1481;-0.1482;
1102.8000;0.1522;-0.1458;
1103.1000;0.1506;-0.1410;
1103.4000;0.1530;-0.1386;
1103.7000;0.1506;-0.1314;
1104.0000;0.1490;-0.1362;
1104.3000;0.1498;-0.1386;
1104.6000;0.1490;-0.1386;
1104.9000;0.1376;-0.1625;
1105.2000;0.1490;-0.1386;
1105.5000;0.1498;-0.1314;
1105.8000;0.1473;-0.1362;
1106.1000;0.1506;-0.1410;
1106.4000;0.1490;-0.1386;
1106.7000;0.1490;-0.1338;
1107.0000;0.1555;-0.1171;
1107.3000;0.1481;-0.1386;
1107.6000;0.1514;-0.1362;
1107.9000;0.1481;-0.1434;
1108.2000;0.1530;-0.1362;
1108.5000;0.1481;-0.1410;
1108.8000;0.1481;-0.1362;
1109.1000;0.1481;-0.1362;
1109.4000;0.1498;-0.1314;
1109.7000;0.1490;-0.1314;
1110.0000;0.1530;-0.1290;
1110.3000;0.1465;-0.1386;
1110.6000;0.1490;-0.1266;
1110.9000;0.1465;-0.1290;
1111.2000;0.1490;-0.1290;
1111.5000;0.1481;-0.1266;
1111.8000;0.1490;-0.1266;
1112.1000;0.1481;-0.1314;
1112.4000;0.1457;-0.1362;
1112.7000;0.1481;-0.1362;
1113.0000;0.1490;-0.1338;
1113.3000;0.1481;-0.1386;
1113.6000;0.1490;-0.1386;
1113.9000;0.1481;-0.1410;
1114.2000;0.1506;-0.1338;
1114.5000;0.1506;-0.1386;
1114.8000;0.1506;-0.1314;
1115.1000;0.1506;-0.1338;
1115.4000;0.1498;-0.1314;
1115.7000;0.1514;-0.1290;
1116.0000;0.1620;-0.1004;
1116.3000;0.1481;-0.1410;
1116.6000;0.1457;-0.1434;
1116.9000;0.1473;-0.1482;
1117.2000;0.1498;-0.1386;
1117.5000;0.1514;-0.1362;
1117.8000;0.1465;-0.1458;
1118.1000;0.1498;-0.1386;
1118.4000;0.1514;-0.1386;
1118.7000;0.1473;-0.1505;
1119.0000;0.1473;-0.1577;
1119.3000;0.1506;-0.1482;
1119.6000;0.1465;-0.1553;
1119.9000;0.1604;-0.1171;
1120.2000;0.1498;-0.1458;
1120.5000;0.1490;-0.1505;
1120.8000;0.1506;-0.1386;
1121.1000;0.1465;-0.1434;
1121.4000;0.1457;-0.1362;
1121.7000;0.1490;-0.1219;
1122.0000;0.1481;-0.1171;
1122.3000;0.1335;-0.1458;
1122.6000;0.1490;-0.1099;
1122.9000;0.1473;-0.1147;
1123.2000;0.1498;-0.1147;
1123.5000;0.1514;-0.1051;
1123.8000;0.1481;-0.1123;
1124.1000;0.1498;-0.1099;
1124.4000;0.1481;-0.1099;
1124.7000;0.1498;-0.1075;
1125.0000;0.1490;-0.1219;
1125.3000;0.1376;-0.1482;
1125.6000;0.1490;-0.1195;
1125.9000;0.1498;-0.1266;
1126.2000;0.1506;-0.1338;
1126.5000;0.1530;-0.1266;
1126.8000;0.1498;-0.1338;
1127.1000;0.1473;-0.1410;
1127.4000;0.1449;-0.1505;
1127.7000;0.1490;-0.1362;
1128.0000;0.1473;-0.1314;
1128.3000;0.1587;-0.1004;
1128.6000;0.1473;-0.1219;
1128.9000;0.1498;-0.1147;
1129.2000;0.1490;-0.1243;
1129.5000;0.1473;-0.1314;
1129.8000;0.1506;-0.1195;
1130.1000;0.1538;-0.1171;
1130.4000;0.1473;-0.1338;
1130.7000;0.1481;-0.1386;
1131.0000;0.1579;-0.1123;
1131.3000;0.1506;-0.1362;
1131.6000;0.1490;-0.1410;
1131.9000;0.1449;-0.1529;
1132.2000;0.1457;-0.1553;
1132.5000;0.1481;-0.1410;
1132.8000;0.1522;-0.1338;
1133.1000;0.1612;-0.1099;
1133.4000;0.1449;-0.1553;
1133.7000;0.1465;-0.1482;
1134.0000;0.1433;-0.1553;
1134.3000;0.1490;-0.1434;
1134.6000;0.1408;-0.1649;
1134.9000;0.1481;-0.1410;
1135.2000;0.1481;-0.1434;
1135.5000;0.1481;-0.1434;
1135.8000;0.1481;-0.1458;
1136.1000;0.1514;-0.1434;
1136.4000;0.1490;-0.1410;
1136.7000;0.1473;-0.1482;
1137.0000;0.1481;-0.1434;
1137.3000;0.1490;-0.1505;
1137.6000;0.1490;-0.1386;
1137.9000;0.1547;-0.1219;
1138.2000;0.1498;-0.1410;
1138.5000;0.1490;-0.1410;
1138.8000;0.1490;-0.1338;
1139.1000;0.1473;-0.1338;
1139.4000;0.1538;-0.1147;
1139.7000;0.1473;-0.1243;
1140.0000;0.1481;-0.1314;
1140.3000;0.1498;-0.1362;
1140.6000;0.1490;-0.1386;
1140.9000;0.1481;-0.1410;
1141.2000;0.1481;-0.1386;
1141.5000;0.1490;-0.1434;
1141.8000;0.1490;-0.1314;
1142.1000;0.1473;-0.1338;
1142.4000;0.1490;-0.1314;
1142.7000;0.1620;-0.0836;
1143.0000;0.1506;-0.1195;
1143.3000;0.1465;-0.1266;
1143.6000;0.1441;-0.1314;
1143.9000;0.1465;-0.1219;
1144.2000;0.1481;-0.1314;
1144.5000;0.1490;-0.1314;
1144.8000;0.1473;-0.1410;
1145.1000;0.1473;-0.1482;
1145.4000;0.1506;-0.1434;
1145.7000;0.1498;-0.1410;
1146.0000;0.1473;-0.1553;
1146.3000;0.1449;-0.1577;
1146.6000;0.1473;-0.1482;
1146.9000;0.1498;-0.1458;
1147.2000;0.1490;-0.1482;
1147.5000;0.1498;-0.1434;
1147.8000;0.1473;-0.1362;
1148.1000;0.1473;-0.1362;
1148.4000;0.1416;-0.1553;
1148.7000;0.1481;-0.1362;
1149.0000;0.1465;-0.1362;
1149.3000;0.1498;-0.1266;
1149.6000;0.1481;-0.1314;
1149.9000;0.1416;-0.1458;
1150.2000;0.1506;-0.1243;
1150.5000;0.1604;-0.0932;
1150.8000;0.1522;-0.1123;
1151.1000;0.1498;-0.1290;
1151.4000;0.1571;-0.1099;
1151.7000;0.1481;-0.1314;
1152.0000;0.1498;-0.1338;
1152.3000;0.1522;-0.1219;
1152.6000;0.1498;-0.1314;
1152.9000;0.1481;-0.1290;
1153.2000;0.1522;-0.1195;
1153.5000;0.1498;-0.1290;
1153.8000;0.1498;-0.1266;
1154.1000;0.1425;-0.1553;
1154.4000;0.1490;-0.1362;
1154.7000;0.1506;-0.1362;
1155.0000;0.1433;-0.1553;
1155.3000;0.1490;-0.1434;
1155.6000;0.1506;-0.1386;
1155.9000;0.1555;-0.1243;
1156.2000;0.1481;-0.1410;
1156.5000;0.1498;-0.1410;
1156.8000;0.1481;-0.1410;
1157.1000;0.1490;-0.1362;
1157.4000;0.1473;-0.1434;
1157.7000;0.1498;-0.1458;
1158.0000;0.1481;-0.1482;
1158.3000;0.1498;-0.1458;
1158.6000;0.1522;-0.1314;
1158.9000;0.1506;-0.1266;
1159.2000;0.1465;-0.1362;
1159.5000;0.1392;-0.1529;
1159.8000;0.1473;-0.1386;
1160.1000;0.1490;-0.1386;
1160.4000;0.1490;-0.1434;
1160.7000;0.1490;-0.1458;
1161.0000;0.1498;-0.1434;
1161.3000;0.1530;-0.1362;
1161.6000;0.1490;-0.1553;
1161.9000;0.1490;-0.1577;
1162.2000;0.1538;-0.1410;
1162.5000;0.1514;-0.1553;
1162.8000;0.1498;-0.1458;
1163.1000;0.1490;-0.1482;
1163.4000;0.1506;-0.1362;
1163.7000;0.1506;-0.1314;
1164.0000;0.1481;-0.1434;
1164.3000;0.1449;-0.1529;
1164.6000;0.1587;-0.1219;
1164.9000;0.1457;-0.1434;
1165.2000;0.1498;-0.1290;
1165.5000;0.1481;-0.1410;
1165.8000;0.1490;-0.1362;
1166.1000;0.1481;-0.1386;
1166.4000;0.1473;-0.1458;
1166.7000;0.1538;-0.1410;
1167.0000;0.1506;-0.1386;
1167.3000;0.1490;-0.1410;
1167.6000;0.1538;-0.1219;
1167.9000;0.1473;-0.1362;
1168.2000;0.1481;-0.1338;
1168.5000;0.1457;-0.1290;
1168.8000;0.1498;-0.1219;
1169.1000;0.1425;-0.1410;
1169.4000;0.1433;-0.1338;
1169.7000;0.1490;-0.1195;
1170.0000;0.1514;-0.1243;
1170.3000;0.1522;-0.1243;
1170.6000;0.1481;-0.1434;
1170.9000;0.1481;-0.1386;
1171.2000;0.1498;-0.1314;
1171.5000;0.1506;-0.1410;
1171.8000;0.1457;-0.1577;
1172.1000;0.1498;-0.1529;
1172.4000;0.1506;-0.1577;
1172.7000;0.1498;-0.1625;
1173.0000;0.1498;-0.1601;
1173.3000;0.1604;-0.1314;
1173.6000;0.1490;-0.1625;
1173.9000;0.1514;-0.1601;
1174.2000;0.1481;-0.1625;
1174.5000;0.1481;-0.1649;
1174.8000;0.1433;-0.1840;
1175.1000;0.1506;-0.1673;
1175.4000;0.1481;-0.1721;
1175.7000;0.1490;-0.1625;
1176.0000;0.1490;-0.1482;
1176.3000;0.1490;-0.1434;
1176.6000;0.1481;-0.1458;
1176.9000;0.1563;-0.1243;
1177.2000;0.1473;-0.1458;
1177.5000;0.1481;-0.1386;
1177.8000;0.1506;-0.1362;
1178.1000;0.1530;-0.1219;
1178.4000;0.1490;-0.1386;
1178.7000;0.1498;-0.1338;
1179.0000;0.1506;-0.1434;
1179.3000;0.1498;-0.1482;
1179.6000;0.1490;-0.1529;
1179.9000;0.1490;-0.1601;
1180.2000;0.1506;-0.1553;
1180.5000;0.1449;-0.1673;
1180.8000;0.1457;-0.1673;
1181.1000;0.1481;-0.1577;
1181.4000;0.1490;-0.1505;
1181.7000;0.1441;-0.1601;
1182.0000;0.1481;-0.1482;
1182.3000;0.1506;-0.1410;
1182.6000;0.1538;-0.1338;
1182.9000;0.1481;-0.1482;
1183.2000;0.1481;-0.1505;
1183.5000;0.1490;-0.1482;
1183.8000;0.1522;-0.1314;
1184.1000;0.1579;-0.1195;
1184.4000;0.1530;-0.1243;
1184.7000;0.1498;-0.1314;
1185.0000;0.1392;-0.1529;
1185.3000;0.1498;-0.1362;
1185.6000;0.1490;-0.1314;
1185.9000;0.1465;-0.1386;
1186.2000;0.1473;-0.1529;
1186.5000;0.1506;-0.1482;
1186.8000;0.1490;-0.1505;
1187.1000;0.1490;-0.1505;
1187.4000;0.1457;-0.1601;
1187.7000;0.1538;-0.1386;
1188.0000;0.1498;-0.1529;
1188.3000;0.1498;-0.1482;
1188.6000;0.1490;-0.1482;
1188.9000;0.1490;-0.1434;
1189.2000;0.1490;-0.1386;
1189.5000;0.1514;-0.1338;
1189.8000;0.1481;-0.1458;
1190.1000;0.1506;-0.1434;
1190.4000;0.1490;-0.1505;
1190.7000;0.1490;-0.1482;
1191.0000;0.1457;-0.1458;
1191.3000;0.1465;-0.1434;
1191.6000;0.1506;-0.1458;
1191.9000;0.1490;-0.1362;
1192.2000;0.1481;-0.1458;
1192.5000;0.1473;-0.1482;
1192.8000;0.1473;-0.1458;
1193.1000;0.1481;-0.1482;
1193.4000;0.1384;-0.1744;
1193.7000;0.1473;-0.1505;
1194.0000;0.1490;-0.1553;
1194.3000;0.1506;-0.1434;
1194.6000;0.1490;-0.1434;
1194.9000;0.1490;-0.1434;
1195.2000;0.1490;-0.1362;
1195.5000;0.1490;-0.1434;
1195.8000;0.1514;-0.1434;
1196.1000;0.1490;-0.1410;
1196.4000;0.1490;-0.1410;
1196.7000;0.1481;-0.1505;
1197.0000;0.1481;-0.1482;
1197.3000;0.1449;-0.1601;
1197.6000;0.1490;-0.1482;
1197.9000;0.1490;-0.1458;
1198.2000;0.1490;-0.1386;
1198.5000;0.1465;-0.1386;
1198.8000;0.1490;-0.1434;
1199.1000;0.1506;-0.1410;
1199.4000;0.1490;-0.1482;
1199.7000;0.1498;-0.1482;
1200.0000;0.1490;-0.1482;
1200.3000;0.1481;-0.1386;
1200.6000;0.1506;-0.1362;
1200.9000;0.1351;-0.1744;
1201.2000;0.1490;-0.1362;
1201.5000;0.1465;-0.1434;
1201.8000;0.1490;-0.1434;
1202.1000;0.1481;-0.1482;
1202.4000;0.1465;-0.1553;
1202.7000;0.1481;-0.1505;
1203.0000;0.1506;-0.1529;
1203.3000;0.1490;-0.1601;
1203.6000;0.1457;-0.1697;
1203.9000;0.1408;-0.1673;
1204.2000;0.1457;-0.1529;
1204.5000;0.1498;-0.1338;
1204.8000;0.1473;-0.1434;
1205.1000;0.1473;-0.1434;
1205.4000;0.1473;-0.1505;
1205.7000;0.1506;-0.1434;
1206.0000;0.1530;-0.1171;
1206.3000;0.1506;-0.1314;
1206.6000;0.1490;-0.1338;
1206.9000;0.1571;-0.1051;
1207.2000;0.1498;-0.1243;
1207.5000;0.1555;-0.1028;
1207.8000;0.1490;-0.1243;
1208.1000;0.1465;-0.1362;
1208.4000;0.1481;-0.1338;
1208.7000;0.1522;-0.1147;
1209.0000;0.1563;-0.1075;
1209.3000;0.1490;-0.1266;
1209.6000;0.1490;-0.1290;
1209.9000;0.1465;-0.1386;
1210.2000;0.1490;-0.1314;
1210.5000;0.1514;-0.1410;
1210.8000;0.1522;-0.1434;
1211.1000;0.1498;-0.1434;
1211.4000;0.1473;-0.1434;
1211.7000;0.1490;-0.1362;
1212.0000;0.1490;-0.1386;
1212.3000;0.1514;-0.1410;
1212.6000;0.1506;-0.1362;
1212.9000;0.1506;-0.1458;
1213.2000;0.1579;-0.1219;
1213.5000;0.1669;-0.0860;
1213.8000;0.1498;-0.1338;
1214.1000;0.1481;-0.1434;
1214.4000;0.1449;-0.1529;
1214.7000;0.1473;-0.1434;
1215.0000;0.1498;-0.1434;
1215.3000;0.1506;-0.1386;
1215.6000;0.1473;-0.1458;
1215.9000;0.1506;-0.1410;
1216.2000;0.1490;-0.1458;
1216.5000;0.1498;-0.1386;
1216.8000;0.1506;-0.1338;
1217.1000;0.1481;-0.1386;
1217.4000;0.1498;-0.1458;
1217.7000;0.1506;-0.1410;
1218.0000;0.1481;-0.1482;
1218.3000;0.1490;-0.1553;
1218.6000;0.1465;-0.1577;
1218.9000;0.1498;-0.1386;
1219.2000;0.1506;-0.1338;
1219.5000;0.1465;-0.1434;
1219.8000;0.1473;-0.1482;
1220.1000;0.1514;-0.1386;
1220.4000;0.1490;-0.1505;
1220.7000;0.1514;-0.1553;
1221.0000;0.1514;-0.1625;
1221.3000;0.1490;-0.1553;
1221.6000;0.1490;-0.1458;
1221.9000;0.1522;-0.1338;
1222.2000;0.1465;-0.1410;
1222.5000;0.1490;-0.1338;
1222.8000;0.1473;-0.1410;
1223.1000;0.1473;-0.1362;
1223.4000;0.1473;-0.1458;
1223.7000;0.1498;-0.1410;
1224.0000;0.1490;-0.1482;
1224.3000;0.1490;-0.1505;
1224.6000;0.1498;-0.1505;
1224.9000;0.1473;-0.1577;
1225.2000;0.1481;-0.1482;
1225.5000;0.1473;-0.1505;
1225.8000;0.1457;-0.1505;
1226.1000;0.1481;-0.1505;
1226.4000;0.1465;-0.1458;
1226.7000;0.1490;-0.1386;
1227.0000;0.1490;-0.1338;
1227.3000;0.1473;-0.1314;
1227.6000;0.1514;-0.1219;
1227.9000;0.1579;-0.1099;
1228.2000;0.1368;-0.1673;
1228.5000;0.1514;-0.1290;
1228.8000;0.1473;-0.1386;
1229.1000;0.1490;-0.1362;
1229.4000;0.1514;-0.1386;
1229.7000;0.1490;-0.1434;
1230.0000;0.1425;-0.1577;
1230.3000;0.1506;-0.1290;
1230.6000;0.1490;-0.1314;
1230.9000;0.1506;-0.1314;
1231.2000;0.1498;-0.1314;
1231.5000;0.1481;-0.1362;
1231.8000;0.1498;-0.1290;
1232.1000;0.1473;-0.1266;
1232.4000;0.1481;-0.1362;
1232.7000;0.1433;-0.1482;
1233.0000;0.1481;-0.1458;
1233.3000;0.1506;-0.1362;
1233.6000;0.1490;-0.1386;
1233.9000;0.1481;-0.1362;
1234.2000;0.1506;-0.1386;
1234.5000;0.1473;-0.1410;
1234.8000;0.1457;-0.1482;
1235.1000;0.1481;-0.1410;
1235.4000;0.1481;-0.1410;
1235.7000;0.1522;-0.1410;
1236.0000;0.1498;-0.1482;
1236.3000;0.1481;-0.1529;
1236.6000;0.1506;-0.1482;
1236.9000;0.1481;-0.1529;
1237.2000;0.1490;-0.1697;
1237.5000;0.1465;-0.1816;
1237.8000;0.1490;-0.1697;
1238.1000;0.1490;-0.1673;
1238.4000;0.1555;-0.1434;
1238.7000;0.1506;-0.1482;
1239.0000;0.1481;-0.1458;
1239.3000;0.1481;-0.1505;
1239.6000;0.1473;-0.1434;
1239.9000;0.1498;-0.1458;
1240.2000;0.1522;-0.1529;
1240.5000;0.1514;-0.1505;
1240.8000;0.1514;-0.1482;
1241.1000;0.1498;-0.1505;
1241.4000;0.1490;-0.1482;
1241.7000;0.1481;-0.1482;
1242.0000;0.1514;-0.1434;
1242.3000;0.1457;-0.1601;
1242.6000;0.1481;-0.1505;
1242.9000;0.1449;-0.1553;
1243.2000;0.1490;-0.1434;
1243.5000;0.1481;-0.1458;
1243.8000;0.1514;-0.1362;
1244.1000;0.1498;-0.1266;
1244.4000;0.1498;-0.1290;
1244.7000;0.1473;-0.1338;
1245.0000;0.1498;-0.1290;
1245.3000;0.1490;-0.1290;
1245.6000;0.1465;-0.1362;
1245.9000;0.1473;-0.1458;
1246.2000;0.1498;-0.1410;
1246.5000;0.1490;-0.1505;
1246.8000;0.1498;-0.1482;
1247.1000;0.1620;-0.1147;
1247.4000;0.1506;-0.1505;
1247.7000;0.1498;-0.1673;
1248.0000;0.1498;-0.1697;
1248.3000;0.1498;-0.1768;
1248.6000;0.1498;-0.1697;
1248.9000;0.1555;-0.1458;
1249.2000;0.1473;-0.1649;
1249.5000;0.1473;-0.1601;
1249.8000;0.1498;-0.1649;
1250.1000;0.1604;-0.1410;
1250.4000;0.1473;-0.1721;
1250.7000;0.1490;-0.1721;
1251.0000;0.1490;-0.1673;
1251.3000;0.1514;-0.1673;
1251.6000;0.1473;-0.1768;
1251.9000;0.1473;-0.1697;
1252.2000;0.1490;-0.1625;
1252.5000;0.1530;-0.1625;
1252.8000;0.1481;-0.1697;
1253.1000;0.1530;-0.1553;
1253.4000;0.1498;-0.1553;
1253.7000;0.1481;-0.1673;
1254.0000;0.1441;-0.1744;
1254.3000;0.1498;-0.1625;
1254.6000;0.1481;-0.1601;
1254.9000;0.1449;-0.1601;
1255.2000;0.1490;-0.1482;
1255.5000;0.1530;-0.1362;
1255.8000;0.1481;-0.1434;
1256.1000;0.1481;-0.1482;
1256.4000;0.1481;-0.1458;
1256.7000;0.1514;-0.1410;
1257.0000;0.1481;-0.1529;
1257.3000;0.1490;-0.1505;
1257.6000;0.1473;-0.1458;
1257.9000;0.1498;-0.1410;
1258.2000;0.1473;-0.1529;
1258.5000;0.1457;-0.1482;
1258.8000;0.1425;-0.1721;
1259.1000;0.1506;-0.1410;
1259.4000;0.1457;-0.1577;
1259.7000;0.1465;-0.1697;
1260.0000;0.1481;-0.1601;
1260.3000;0.1498;-0.1529;
1260.6000;0.1506;-0.1529;
1260.9000;0.1498;-0.1553;
1261.2000;0.1506;-0.1577;
1261.5000;0.1514;-0.1553;
1261.8000;0.1457;-0.1673;
1262.1000;0.1481;-0.1553;
1262.4000;0.1490;-0.1553;
1262.7000;0.1506;-0.1577;
1263.0000;0.1506;-0.1505;
1263.3000;0.1490;-0.1482;
1263.6000;0.1498;-0.1505;
1263.9000;0.1481;-0.1577;
1264.2000;0.1490;-0.1482;
1264.5000;0.1522;-0.1434;
1264.8000;0.1449;-0.1577;
1265.1000;0.1506;-0.1482;
1265.4000;0.1498;-0.1482;
1265.7000;0.1498;-0.1577;
1266.0000;0.1490;-0.1505;
1266.3000;0.1490;-0.1577;
1266.6000;0.1506;-0.1625;
1266.9000;0.1473;-0.1721;
1267.2000;0.1473;-0.1768;
1267.5000;0.1506;-0.1649;
1267.8000;0.1490;-0.1697;
1268.1000;0.1473;-0.1744;
1268.4000;0.1481;-0.1673;
1268.7000;0.1441;-0.1744;
1269.0000;0.1506;-0.1553;
1269.3000;0.1481;-0.1601;
1269.6000;0.1490;-0.1529;
1269.9000;0.1514;-0.1410;
1270.2000;0.1514;-0.1482;
1270.5000;0.1490;-0.1505;
1270.8000;0.1498;-0.1482;
1271.1000;0.1441;-0.1601;
1271.4000;0.1490;-0.1458;
1271.7000;0.1498;-0.1458;
1272.0000;0.1408;-0.1673;
1272.3000;0.1514;-0.1338;
1272.6000;0.1473;-0.1386;
1272.9000;0.1555;-0.1195;
1273.2000;0.1506;-0.1362;
1273.5000;0.1498;-0.1410;
1273.8000;0.1506;-0.1362;
1274.1000;0.1449;-0.1529;
1274.4000;0.1498;-0.1386;
1274.7000;0.1498;-0.1410;
1275.0000;0.1481;-0.1434;
1275.3000;0.1490;-0.1434;
1275.6000;0.1490;-0.1338;
1275.9000;0.1498;-0.1410;
1276.2000;0.1481;-0.1410;
1276.5000;0.1498;-0.1434;
1276.8000;0.1547;-0.1290;
1277.1000;0.1506;-0.1362;
1277.4000;0.1514;-0.1314;
1277.7000;0.1490;-0.1314;
1278.0000;0.1400;-0.1482;
1278.3000;0.1498;-0.1314;
1278.6000;0.1490;-0.1290;
1278.9000;0.1506;-0.1290;
1279.2000;0.1473;-0.1314;
1279.5000;0.1498;-0.1386;
1279.8000;0.1498;-0.1338;
1280.1000;0.1433;-0.1482;
1280.4000;0.1481;-0.1362;
1280.7000;0.1449;-0.1505;
1281.0000;0.1514;-0.1386;
1281.3000;0.1522;-0.1338;
1281.6000;0.1506;-0.1362;
1281.9000;0.1506;-0.1290;
1282.2000;0.1490;-0.1362;
1282.5000;0.1514;-0.1266;
1282.8000;0.1538;-0.1147;
1283.1000;0.1498;-0.1290;
1283.4000;0.1530;-0.1195;
1283.7000;0.1441;-0.1505;
1284.0000;0.1481;-0.1386;
1284.3000;0.1481;-0.1314;
1284.6000;0.1473;-0.1290;
1284.9000;0.1481;-0.1290;
1285.2000;0.1473;-0.1290;
1285.5000;0.1490;-0.1290;
1285.8000;0.1514;-0.1314;
1286.1000;0.1522;-0.1290;
1286.4000;0.1457;-0.1458;
1286.7000;0.1514;-0.1314;
1287.0000;0.1514;-0.1338;
1287.3000;0.1506;-0.1410;
1287.6000;0.1465;-0.1553;
1287.9000;0.1473;-0.1505;
1288.2000;0.1465;-0.1553;
1288.5000;0.1473;-0.1601;
1288.8000;0.1481;-0.1482;
1289.1000;0.1481;-0.1577;
1289.4000;0.1506;-0.1505;
1289.7000;0.1514;-0.1458;
1290.0000;0.1490;-0.1577;
1290.3000;0.1481;-0.1577;
1290.6000;0.1465;-0.1601;
1290.9000;0.1498;-0.1410;
1291.2000;0.1579;-0.1171;
1291.5000;0.1481;-0.1482;
1291.8000;0.1433;-0.1553;
1292.1000;0.1473;-0.1482;
1292.4000;0.1506;-0.1505;
1292.7000;0.1473;-0.1577;
1293.0000;0.1481;-0.1625;
1293.3000;0.1473;-0.1744;
1293.6000;0.1538;-0.1649;
1293.9000;0.1481;-0.1721;
1294.2000;0.1498;-0.1577;
1294.5000;0.1506;-0.1529;
1294.8000;0.1457;-0.1697;
1295.1000;0.1538;-0.1505;
1295.4000;0.1628;-0.1219;
1295.7000;0.1506;-0.1601;
1296.0000;0.1490;-0.1625;
1296.3000;0.1506;-0.1625;
1296.6000;0.1498;-0.1625;
1296.9000;0.1571;-0.1434;
1297.2000;0.1498;-0.1673;
1297.5000;0.1514;-0.1601;
1297.8000;0.1498;-0.1649;
1298.1000;0.1490;-0.1673;
1298.4000;0.1498;-0.1625;
1298.7000;0.1506;-0.1577;
1299.0000;0.1490;-0.1649;
1299.3000;0.1473;-0.1649;
1299.6000;0.1465;-0.1625;
1299.9000;0.1530;-0.1458;
1300.2000;0.1498;-0.1625;
1300.5000;0.1490;-0.1625;
1300.8000;0.1514;-0.1577;
1301.1000;0.1490;-0.1601;
1301.4000;0.1522;-0.1482;
1301.7000;0.1555;-0.1386;
1302.0000;0.1514;-0.1505;
1302.3000;0.1457;-0.1649;
1302.6000;0.1481;-0.1625;
1302.9000;0.1481;-0.1673;
1303.2000;0.1498;-0.1673;
1303.5000;0.1498;-0.1697;
1303.8000;0.1506;-0.1673;
1304.1000;0.1473;-0.1768;
1304.4000;0.1506;-0.1673;
1304.7000;0.1481;-0.1768;
1305.0000;0.1481;-0.1744;
1305.3000;0.1481;-0.1721;
1305.6000;0.1457;-0.1697;
1305.9000;0.1522;-0.1553;
1306.2000;0.1408;-0.1744;
1306.5000;0.1457;-0.1649;
1306.8000;0.1547;-0.1338;
1307.1000;0.1506;-0.1434;
1307.4000;0.1530;-0.1434;
1307.7000;0.1490;-0.1601;
1308.0000;0.1498;-0.1649;
1308.3000;0.1490;-0.1721;
1308.6000;0.1514;-0.1721;
1308.9000;0.1498;-0.1721;
1309.2000;0.1490;-0.1721;
1309.5000;0.1522;-0.1625;
1309.8000;0.1514;-0.1625;
1310.1000;0.1473;-0.1673;
1310.4000;0.1522;-0.1553;
1310.7000;0.1449;-0.1673;
1311.0000;0.1473;-0.1625;
1311.3000;0.1506;-0.1577;
1311.6000;0.1490;-0.1601;
1311.9000;0.1490;-0.1673;
1312.2000;0.1514;-0.1649;
1312.5000;0.1498;-0.1649;
1312.8000;0.1555;-0.1601;
1313.1000;0.1490;-0.1768;
1313.4000;0.1481;-0.1744;
1313.7000;0.1481;-0.1744;
1314.0000;0.1473;-0.1721;
1314.3000;0.1490;-0.1673;
1314.6000;0.1498;-0.1625;
1314.9000;0.1522;-0.1649;
1315.2000;0.1490;-0.1721;
1315.5000;0.1498;-0.1744;
1315.8000;0.1498;-0.1625;
1316.1000;0.1490;-0.1697;
1316.4000;0.1473;-0.1673;
1316.7000;0.1506;-0.1577;
1317.0000;0.1481;-0.1577;
1317.3000;0.1490;-0.1458;
1317.6000;0.1514;-0.1338;
1317.9000;0.1498;-0.1434;
1318.2000;0.1481;-0.1434;
1318.5000;0.1498;-0.1386;
1318.8000;0.1514;-0.1362;
1319.1000;0.1490;-0.1458;
1319.4000;0.1473;-0.1529;
1319.7000;0.1481;-0.1601;
1320.0000;0.1498;-0.1601;
1320.3000;0.1506;-0.1577;
1320.6000;0.1481;-0.1577;
1320.9000;0.1441;-0.1649;
1321.2000;0.1481;-0.1601;
1321.5000;0.1506;-0.1505;
1321.8000;0.1481;-0.1601;
1322.1000;0.1481;-0.1673;
1322.4000;0.1498;-0.1601;
1322.7000;0.1514;-0.1505;
1323.0000;0.1498;-0.1553;
1323.3000;0.1514;-0.1553;
1323.6000;0.1457;-0.1697;
1323.9000;0.1368;-0.1983;
1324.2000;0.1506;-0.1673;
1324.5000;0.1473;-0.1768;
1324.8000;0.1498;-0.1721;
1325.1000;0.1506;-0.1744;
1325.4000;0.1498;-0.1864;
1325.7000;0.1490;-0.1840;
1326.0000;0.1506;-0.1768;
1326.3000;0.1490;-0.1768;
1326.6000;0.1514;-0.1744;
1326.9000;0.1473;-0.1721;
1327.2000;0.1498;-0.1625;
1327.5000;0.1498;-0.1625;
1327.8000;0.1473;-0.1649;
1328.1000;0.1506;-0.1625;
1328.4000;0.1490;-0.1625;
1328.7000;0.1498;-0.1649;
1329.0000;0.1514;-0.1673;
1329.3000;0.1490;-0.1744;
1329.6000;0.1490;-0.1768;
1329.9000;0.1490;-0.1792;
1330.2000;0.1490;-0.1816;
1330.5000;0.1481;-0.1768;
1330.8000;0.1449;-0.1816;
1331.1000;0.1498;-0.1673;
1331.4000;0.1490;-0.1697;
1331.7000;0.1473;-0.1744;
1332.0000;0.1498;-0.1697;
1332.3000;0.1481;-0.1697;
1332.6000;0.1514;-0.1601;
1332.9000;0.1506;-0.1601;
1333.2000;0.1490;-0.1601;
1333.5000;0.1481;-0.1625;
1333.8000;0.1506;-0.1553;
1334.1000;0.1449;-0.1744;
1334.4000;0.1473;-0.1577;
1334.7000;0.1506;-0.1649;
1335.0000;0.1481;-0.1721;
1335.3000;0.1481;-0.1649;
1335.6000;0.1481;-0.1673;
1335.9000;0.1522;-0.1673;
1336.2000;0.1490;-0.1673;
1336.5000;0.1481;-0.1625;
1336.8000;0.1506;-0.1577;
1337.1000;0.1498;-0.1625;
1337.4000;0.1506;-0.1601;
1337.7000;0.1449;-0.1768;
1338.0000;0.1481;-0.1649;
1338.3000;0.1490;-0.1697;
1338.6000;0.1514;-0.1625;
1338.9000;0.1433;-0.1864;
1339.2000;0.1498;-0.1673;
1339.5000;0.1473;-0.1721;
1339.8000;0.1514;-0.1721;
1340.1000;0.1498;-0.1768;
1340.4000;0.1506;-0.1768;
1340.7000;0.1490;-0.1744;
1341.0000;0.1498;-0.1673;
1341.3000;0.1490;-0.1673;
1341.6000;0.1522;-0.1577;
1341.9000;0.1481;-0.1673;
1342.2000;0.1457;-0.1792;
1342.5000;0.1490;-0.1697;
1342.8000;0.1441;-0.1816;
1343.1000;0.1490;-0.1721;
1343.4000;0.1514;-0.1649;
1343.7000;0.1473;-0.1744;
1344.0000;0.1481;-0.1649;
1344.3000;0.1498;-0.1673;
1344.6000;0.1514;-0.1673;
1344.9000;0.1498;-0.1697;
1345.2000;0.1473;-0.1744;
1345.5000;0.1506;-0.1649;
1345.8000;0.1522;-0.1529;
1346.1000;0.1498;-0.1625;
1346.4000;0.1498;-0.1625;
1346.7000;0.1506;-0.1601;
1347.0000;0.1498;-0.1577;
1347.3000;0.1498;-0.1553;
1347.6000;0.1490;-0.1553;
1347.9000;0.1498;-0.1649;
1348.2000;0.1514;-0.1697;
1348.5000;0.1514;-0.1697;
1348.8000;0.1514;-0.1721;
1349.1000;0.1490;-0.1744;
1349.4000;0.1457;-0.1744;
1349.7000;0.1490;-0.1577;
1350.0000;0.1490;-0.1601;
1350.3000;0.1498;-0.1553;
1350.6000;0.1506;-0.1505;
1350.9000;0.1498;-0.1529;
1351.2000;0.1457;-0.1601;
1351.5000;0.1490;-0.1553;
1351.8000;0.1490;-0.1529;
1352.1000;0.1506;-0.1553;
1352.4000;0.1555;-0.1434;
1352.7000;0.1498;-0.1601;
1353.0000;0.1522;-0.1601;
1353.3000;0.1473;-0.1721;
1353.6000;0.1490;-0.1673;
1353.9000;0.1481;-0.1649;
1354.2000;0.1506;-0.1505;
1354.5000;0.1473;-0.1529;
1354.8000;0.1481;-0.1505;
1355.1000;0.1481;-0.1505;
1355.4000;0.1343;-0.1840;
1355.7000;0.1473;-0.1577;
1356.0000;0.1473;-0.1505;
1356.3000;0.1506;-0.1458;
1356.6000;0.1530;-0.1434;
1356.9000;0.1506;-0.1577;
1357.2000;0.1473;-0.1697;
1357.5000;0.1498;-0.1625;
1357.8000;0.1481;-0.1697;
1358.1000;0.1506;-0.1577;
1358.4000;0.1473;-0.1529;
1358.7000;0.1481;-0.1458;
1359.0000;0.1473;-0.1529;
1359.3000;0.1490;-0.1553;
1359.6000;0.1433;-0.1792;
1359.9000;0.1490;-0.1697;
1360.2000;0.1490;-0.1697;
1360.5000;0.1441;-0.1768;
1360.8000;0.1498;-0.1625;
1361.1000;0.1571;-0.1458;
1361.4000;0.1473;-0.1840;
1361.7000;0.1392;-0.1959;
1362.0000;0.1481;-0.1649;
1362.3000;0.1522;-0.1505;
1362.6000;0.1514;-0.1434;
1362.9000;0.1416;-0.1697;
1363.2000;0.1506;-0.1529;
1363.5000;0.1473;-0.1529;
1363.8000;0.1465;-0.1482;
1364.1000;0.1490;-0.1482;
1364.4000;0.1498;-0.1458;
1364.7000;0.1457;-0.1482;
1365.0000;0.1547;-0.1266;
1365.3000;0.1514;-0.1434;
1365.6000;0.1481;-0.1529;
1365.9000;0.1359;-0.1816;
1366.2000;0.1449;-0.1649;
1366.5000;0.1530;-0.1505;
1366.8000;0.1490;-0.1625;
1367.1000;0.1506;-0.1553;
1367.4000;0.1506;-0.1505;
1367.7000;0.1481;-0.1577;
1368.0000;0.1490;-0.1482;
1368.3000;0.1498;-0.1505;
1368.6000;0.1506;-0.1482;
1368.9000;0.1490;-0.1601;
1369.2000;0.1481;-0.1721;
1369.5000;0.1506;-0.1649;
1369.8000;0.1498;-0.1625;
1370.1000;0.1473;-0.1649;
1370.4000;0.1465;-0.1697;
1370.7000;0.1547;-0.1482;
1371.0000;0.1481;-0.1673;
1371.3000;0.1490;-0.1721;
1371.6000;0.1368;-0.2007;
1371.9000;0.1449;-0.1768;
1372.2000;0.1457;-0.1673;
1372.5000;0.1571;-0.1362;
1372.8000;0.1490;-0.1505;
1373.1000;0.1498;-0.1505;
1373.4000;0.1530;-0.1362;
1373.7000;0.1522;-0.1434;
1374.0000;0.1490;-0.1434;
1374.3000;0.1506;-0.1386;
1374.6000;0.1506;-0.1362;
1374.9000;0.1514;-0.1362;
1375.2000;0.1481;-0.1482;
1375.5000;0.1490;-0.1458;
1375.8000;0.1514;-0.1434;
1376.1000;0.1490;-0.1529;
1376.4000;0.1555;-0.1386;
1376.7000;0.1490;-0.1553;
1377.0000;0.1473;-0.1601;
1377.3000;0.1498;-0.1505;
1377.6000;0.1400;-0.1721;
1377.9000;0.1473;-0.1577;
1378.2000;0.1506;-0.1505;
1378.5000;0.1416;-0.1625;
1378.8000;0.1498;-0.1458;
1379.1000;0.1465;-0.1601;
1379.4000;0.1498;-0.1458;
1379.7000;0.1604;-0.1147;
1380.0000;0.1490;-0.1458;
1380.3000;0.1490;-0.1482;
1380.6000;0.1465;-0.1529;
1380.9000;0.1490;-0.1458;
1381.2000;0.1465;-0.1482;
1381.5000;0.1481;-0.1434;
1381.8000;0.1481;-0.1434;
1382.1000;0.1359;-0.1816;
1382.4000;0.1498;-0.1458;
1382.7000;0.1530;-0.1410;
1383.0000;0.1506;-0.1482;
1383.3000;0.1481;-0.1529;
1383.6000;0.1490;-0.1553;
1383.9000;0.1481;-0.1577;
1384.2000;0.1490;-0.1577;
1384.5000;0.1506;-0.1482;
1384.8000;0.1498;-0.1577;
1385.1000;0.1481;-0.1553;
1385.4000;0.1490;-0.1529;
1385.7000;0.1490;-0.1529;
1386.0000;0.1490;-0.1553;
1386.3000;0.1514;-0.1577;
1386.6000;0.1514;-0.1577;
1386.9000;0.1514;-0.1553;
1387.2000;0.1498;-0.1553;
1387.5000;0.1473;-0.1505;
1387.8000;0.1498;-0.1362;
1388.1000;0.1465;-0.1386;
1388.4000;0.1530;-0.1219;
1388.7000;0.1481;-0.1362;
1389.0000;0.1506;-0.1290;
1389.3000;0.1498;-0.1314;
1389.6000;0.1506;-0.1386;
1389.9000;0.1481;-0.1458;
1390.2000;0.1473;-0.1505;
1390.5000;0.1530;-0.1362;
1390.8000;0.1498;-0.1410;
1391.1000;0.1473;-0.1505;
1391.4000;0.1530;-0.1434;
1391.7000;0.1465;-0.1673;
1392.0000;0.1506;-0.1625;
1392.3000;0.1498;-0.1553;
1392.6000;0.1481;-0.1577;
1392.9000;0.1522;-0.1434;
1393.2000;0.1498;-0.1482;
1393.5000;0.1457;-0.1601;
1393.8000;0.1481;-0.1649;
1394.1000;0.1481;-0.1601;
1394.4000;0.1449;-0.1673;
1394.7000;0.1481;-0.1553;
1395.0000;0.1498;-0.1529;
1395.3000;0.1465;-0.1601;
1395.6000;0.1425;-0.1649;
1395.9000;0.1481;-0.1434;
1396.2000;0.1473;-0.1505;
1396.5000;0.1473;-0.1601;
1396.8000;0.1490;-0.1482;
1397.1000;0.1481;-0.1529;
1397.4000;0.1425;-0.1768;
1397.7000;0.1457;-0.1601;
1398.0000;0.1498;-0.1529;
1398.3000;0.1473;-0.1577;
1398.6000;0.1473;-0.1505;
1398.9000;0.1449;-0.1577;
1399.2000;0.1481;-0.1434;
1399.5000;0.1481;-0.1434;
1399.8000;0.1498;-0.1338;
