time/ms;Fluo/V;P700 deltaI/I x10³;
-199.8000;0.1620;-0.0932;
-199.5000;0.1506;-0.1266;
-199.2000;0.1457;-0.1338;
-198.9000;0.1530;-0.1171;
-198.6000;0.1522;-0.1219;
-198.3000;0.1530;-0.1195;
-198.0000;0.1563;-0.1051;
-197.7000;0.1490;-0.1219;
-197.4000;0.1490;-0.1266;
-197.1000;0.1490;-0.1314;
-196.8000;0.1506;-0.1243;
-196.5000;0.1530;-0.1195;
-196.2000;0.1547;-0.1147;
-195.9000;0.1506;-0.1314;
-195.6000;0.1587;-0.1075;
-195.3000;0.1522;-0.1266;
-195.0000;0.1522;-0.1099;
-194.7000;0.1449;-0.1195;
-194.4000;0.1498;-0.1004;
-194.1000;0.1563;-0.0812;
-193.8000;0.1514;-0.0956;
-193.5000;0.1490;-0.1123;
-193.2000;0.1522;-0.1075;
-192.9000;0.1490;-0.1195;
-192.6000;0.1490;-0.1171;
-192.3000;0.1498;-0.1219;
-192.0000;0.1498;-0.1266;
-191.7000;0.1506;-0.1171;
-191.4000;0.1506;-0.1171;
-191.1000;0.1579;-0.1004;
-190.8000;0.1498;-0.1123;
-190.5000;0.1522;-0.1051;
-190.2000;0.1530;-0.1075;
-189.9000;0.1547;-0.1004;
-189.6000;0.1514;-0.1123;
-189.3000;0.1481;-0.1219;
-189.0000;0.1555;-0.0980;
-188.7000;0.1522;-0.1123;
-188.4000;0.1465;-0.1195;
-188.1000;0.1490;-0.1123;
-187.8000;0.1498;-0.1123;
-187.5000;0.1522;-0.1075;
-187.2000;0.1522;-0.1075;
-186.9000;0.1425;-0.1410;
-186.6000;0.1514;-0.1051;
-186.3000;0.1571;-0.0908;
-186.0000;0.1498;-0.1099;
-185.7000;0.1514;-0.1099;
-185.4000;0.1514;-0.1099;
-185.1000;0.1530;-0.1004;
-184.8000;0.1530;-0.0980;
-184.5000;0.1481;-0.1075;
-184.2000;0.1538;-0.0980;
-183.9000;0.1490;-0.1099;
-183.6000;0.1530;-0.0980;
-183.3000;0.1514;-0.1051;
-183.0000;0.1490;-0.1075;
-182.7000;0.1522;-0.1028;
-182.4000;0.1465;-0.1219;
-182.1000;0.1490;-0.1290;
-181.8000;0.1506;-0.1266;
-181.5000;0.1506;-0.1195;
-181.2000;0.1400;-0.1410;
-180.9000;0.1498;-0.1123;
-180.6000;0.1522;-0.1099;
-180.3000;0.1538;-0.1123;
-180.0000;0.1595;-0.0932;
-179.7000;0.1514;-0.1075;
-179.4000;0.1595;-0.0980;
-179.1000;0.1530;-0.1147;
-178.8000;0.1522;-0.1171;
-178.5000;0.1522;-0.1147;
-178.2000;0.1514;-0.1195;
-177.9000;0.1522;-0.1028;
-177.6000;0.1522;-0.1075;
-177.3000;0.1514;-0.1099;
-177.0000;0.1449;-0.1338;
-176.7000;0.1514;-0.1099;
-176.4000;0.1506;-0.1051;
-176.1000;0.1530;-0.1004;
-175.8000;0.1514;-0.1075;
-175.5000;0.1522;-0.0980;
-175.2000;0.1490;-0.1099;
-174.9000;0.1498;-0.1051;
-174.6000;0.1506;-0.1051;
-174.3000;0.1506;-0.1099;
-174.0000;0.1506;-0.1075;
-173.7000;0.1522;-0.0884;
-173.4000;0.1514;-0.0812;
-173.1000;0.1498;-0.0908;
-172.8000;0.1514;-0.0884;
-172.5000;0.1498;-0.0908;
-172.2000;0.1514;-0.0812;
-171.9000;0.1522;-0.0789;
-171.6000;0.1555;-0.0717;
-171.3000;0.1514;-0.0836;
-171.0000;0.1571;-0.0597;
-170.7000;0.1514;-0.0860;
-170.4000;0.1514;-0.0908;
-170.1000;0.1490;-0.1028;
-169.8000;0.1522;-0.1004;
-169.5000;0.1522;-0.1075;
-169.2000;0.1530;-0.1051;
-168.9000;0.1530;-0.1028;
-168.6000;0.1530;-0.1051;
-168.3000;0.1538;-0.1028;
-168.0000;0.1506;-0.1171;
-167.7000;0.1530;-0.1051;
-167.4000;0.1481;-0.1028;
-167.1000;0.1506;-0.0932;
-166.8000;0.1490;-0.1004;
-166.5000;0.1441;-0.1195;
-166.2000;0.1522;-0.1051;
-165.9000;0.1522;-0.1123;
-165.6000;0.1506;-0.1147;
-165.3000;0.1506;-0.1028;
-165.0000;0.1465;-0.1075;
-164.7000;0.1506;-0.0956;
-164.4000;0.1449;-0.1099;
-164.1000;0.1530;-0.0860;
-163.8000;0.1514;-0.0932;
-163.5000;0.1506;-0.0932;
-163.2000;0.1514;-0.0956;
-162.9000;0.1465;-0.1075;
-162.6000;0.1514;-0.1004;
-162.3000;0.1547;-0.0812;
-162.0000;0.1473;-0.0980;
-161.7000;0.1506;-0.0860;
-161.4000;0.1530;-0.0884;
-161.1000;0.1498;-0.0956;
-160.8000;0.1522;-0.1051;
-160.5000;0.1522;-0.1004;
-160.2000;0.1530;-0.0980;
-159.9000;0.1490;-0.0980;
-159.6000;0.1522;-0.0908;
-159.3000;0.1498;-0.1004;
-159.0000;0.1514;-0.1028;
-158.7000;0.1522;-0.1123;
-158.4000;0.1506;-0.1147;
-158.1000;0.1522;-0.1004;
-157.8000;0.1514;-0.1051;
-157.5000;0.1506;-0.1123;
-157.2000;0.1506;-0.1219;
-156.9000;0.1522;-0.1123;
-156.6000;0.1506;-0.1195;
-156.3000;0.1522;-0.1123;
-156.0000;0.1514;-0.1171;
-155.7000;0.1506;-0.1171;
-155.4000;0.1498;-0.1219;
-155.1000;0.1514;-0.1219;
-154.8000;0.1563;-0.1075;
-154.5000;0.1522;-0.1171;
-154.2000;0.1530;-0.1123;
-153.9000;0.1514;-0.1243;
-153.6000;0.1514;-0.1219;
-153.3000;0.1441;-0.1362;
-153.0000;0.1538;-0.1195;
-152.7000;0.1514;-0.1219;
-152.4000;0.1538;-0.1147;
-152.1000;0.1530;-0.1171;
-151.8000;0.1530;-0.1147;
-151.5000;0.1522;-0.1219;
-151.2000;0.1514;-0.1219;
-150.9000;0.1506;-0.1195;
-150.6000;0.1522;-0.1075;
-150.3000;0.1490;-0.1099;
-150.0000;0.1506;-0.1051;
-149.7000;0.1481;-0.1099;
-149.4000;0.1506;-0.1051;
-149.1000;0.1522;-0.1147;
-148.8000;0.1498;-0.1171;
-148.5000;0.1506;-0.1147;
-148.2000;0.1530;-0.1195;
-147.9000;0.1408;-0.1577;
-147.6000;0.1473;-0.1386;
-147.3000;0.1530;-0.1243;
-147.0000;0.1449;-0.1529;
-146.7000;0.1587;-0.1123;
-146.4000;0.1522;-0.1266;
-146.1000;0.1473;-0.1410;
-145.8000;0.1514;-0.1266;
-145.5000;0.1522;-0.1195;
-145.2000;0.1514;-0.1266;
-144.9000;0.1522;-0.1171;
-144.6000;0.1433;-0.1362;
-144.3000;0.1498;-0.1243;
-144.0000;0.1563;-0.1004;
-143.7000;0.1498;-0.1219;
-143.4000;0.1490;-0.1266;
-143.1000;0.1514;-0.1243;
-142.8000;0.1522;-0.1314;
-142.5000;0.1376;-0.1625;
-142.2000;0.1522;-0.1219;
-141.9000;0.1457;-0.1314;
-141.6000;0.1571;-0.1099;
-141.3000;0.1522;-0.1147;
-141.0000;0.1538;-0.1123;
-140.7000;0.1498;-0.1266;
-140.4000;0.1481;-0.1338;
-140.1000;0.1522;-0.1338;
-139.8000;0.1514;-0.1338;
-139.5000;0.1555;-0.1243;
-139.2000;0.1506;-0.1410;
-138.9000;0.1514;-0.1386;
-138.6000;0.1522;-0.1386;
-138.3000;0.1555;-0.1290;
-138.0000;0.1547;-0.1266;
-137.7000;0.1620;-0.0932;
-137.4000;0.1498;-0.1362;
-137.1000;0.1506;-0.1290;
-136.8000;0.1538;-0.1219;
-136.5000;0.1530;-0.1266;
-136.2000;0.1530;-0.1243;
-135.9000;0.1522;-0.1362;
-135.6000;0.1522;-0.1386;
-135.3000;0.1514;-0.1410;
-135.0000;0.1498;-0.1458;
-134.7000;0.1652;-0.1051;
-134.4000;0.1506;-0.1482;
-134.1000;0.1473;-0.1482;
-133.8000;0.1481;-0.1410;
-133.5000;0.1506;-0.1314;
-133.2000;0.1514;-0.1219;
-132.9000;0.1538;-0.1123;
-132.6000;0.1506;-0.1243;
-132.3000;0.1498;-0.1219;
-132.0000;0.1514;-0.1219;
-131.7000;0.1522;-0.1123;
-131.4000;0.1506;-0.1147;
-131.1000;0.1481;-0.1314;
-130.8000;0.1506;-0.1219;
-130.5000;0.1530;-0.1147;
-130.2000;0.1522;-0.1099;
-129.9000;0.1571;-0.1028;
-129.6000;0.1400;-0.1434;
-129.3000;0.1604;-0.0860;
-129.0000;0.1498;-0.1075;
-128.7000;0.1506;-0.1028;
-128.4000;0.1490;-0.1147;
-128.1000;0.1473;-0.1243;
-127.8000;0.1498;-0.1171;
-127.5000;0.1498;-0.1219;
-127.2000;0.1530;-0.1123;
-126.9000;0.1506;-0.1099;
-126.6000;0.1522;-0.1123;
-126.3000;0.1530;-0.1147;
-126.0000;0.1506;-0.1266;
-125.7000;0.1530;-0.1243;
-125.4000;0.1506;-0.1266;
-125.1000;0.1595;-0.1075;
-124.8000;0.1547;-0.1004;
-124.5000;0.1538;-0.1004;
-124.2000;0.1514;-0.1075;
-123.9000;0.1457;-0.1171;
-123.6000;0.1506;-0.0956;
-123.3000;0.1522;-0.0884;
-123.0000;0.1514;-0.0980;
-122.7000;0.1506;-0.1028;
-122.4000;0.1506;-0.1123;
-122.1000;0.1465;-0.1219;
-121.8000;0.1514;-0.1075;
-121.5000;0.1506;-0.1099;
-121.2000;0.1498;-0.1147;
-120.9000;0.1506;-0.1099;
-120.6000;0.1579;-0.0932;
-120.3000;0.1506;-0.1099;
-120.0000;0.1506;-0.1004;
-119.7000;0.1522;-0.0956;
-119.4000;0.1514;-0.1051;
-119.1000;0.1506;-0.1171;
-118.8000;0.1522;-0.1243;
-118.5000;0.1514;-0.1219;
-118.2000;0.1498;-0.1243;
-117.9000;0.1530;-0.1171;
-117.6000;0.1408;-0.1482;
-117.3000;0.1473;-0.1243;
-117.0000;0.1514;-0.1099;
-116.7000;0.1514;-0.1171;
-116.4000;0.1563;-0.0980;
-116.1000;0.1514;-0.1004;
-115.8000;0.1506;-0.1075;
-115.5000;0.1530;-0.1004;
-115.2000;0.1547;-0.0836;
-114.9000;0.1514;-0.0908;
-114.6000;0.1530;-0.1028;
-114.3000;0.1595;-0.0789;
-114.0000;0.1514;-0.1147;
-113.7000;0.1481;-0.1290;
-113.4000;0.1473;-0.1362;
-113.1000;0.1612;-0.1051;
-112.8000;0.1473;-0.1338;
-112.5000;0.1522;-0.1219;
-112.2000;0.1636;-0.0956;
-111.9000;0.1530;-0.1123;
-111.6000;0.1652;-0.0693;
-111.3000;0.1530;-0.1028;
-111.0000;0.1522;-0.1004;
-110.7000;0.1522;-0.1075;
-110.4000;0.1538;-0.1147;
-110.1000;0.1473;-0.1219;
-109.8000;0.1481;-0.1314;
-109.5000;0.1481;-0.1314;
-109.2000;0.1514;-0.1290;
-108.9000;0.1506;-0.1314;
-108.6000;0.1587;-0.1171;
-108.3000;0.1506;-0.1362;
-108.0000;0.1538;-0.1290;
-107.7000;0.1514;-0.1314;
-107.4000;0.1522;-0.1219;
-107.1000;0.1514;-0.1219;
-106.8000;0.1522;-0.1266;
-106.5000;0.1506;-0.1314;
-106.2000;0.1514;-0.1314;
-105.9000;0.1571;-0.1051;
-105.6000;0.1514;-0.1171;
-105.3000;0.1506;-0.1147;
-105.0000;0.1522;-0.1123;
-104.7000;0.1522;-0.1075;
-104.4000;0.1506;-0.1123;
-104.1000;0.1481;-0.1147;
-103.8000;0.1498;-0.1028;
-103.5000;0.1506;-0.0932;
-103.2000;0.1514;-0.0956;
-102.9000;0.1522;-0.0980;
-102.6000;0.1490;-0.1028;
-102.3000;0.1498;-0.1028;
-102.0000;0.1506;-0.1028;
-101.7000;0.1490;-0.1123;
-101.4000;0.1490;-0.1195;
-101.1000;0.1490;-0.1075;
-100.8000;0.1506;-0.1028;
-100.5000;0.1506;-0.0932;
-100.2000;0.1506;-0.0980;
-99.9000;0.1490;-0.1051;
-99.6000;0.1530;-0.1028;
-99.3000;0.1530;-0.1123;
-99.0000;0.1514;-0.1219;
-98.7000;0.1538;-0.1147;
-98.4000;0.1538;-0.1075;
-98.1000;0.1514;-0.1219;
-97.8000;0.1514;-0.1147;
-97.5000;0.1506;-0.1004;
-97.2000;0.1506;-0.0932;
-96.9000;0.1530;-0.0812;
-96.6000;0.1522;-0.0860;
-96.3000;0.1661;-0.0526;
-96.0000;0.1514;-0.0980;
-95.7000;0.1514;-0.1004;
-95.4000;0.1449;-0.1147;
-95.1000;0.1514;-0.1051;
-94.8000;0.1449;-0.1243;
-94.5000;0.1530;-0.1028;
-94.2000;0.1522;-0.1099;
-93.9000;0.1522;-0.1171;
-93.6000;0.1604;-0.0932;
-93.3000;0.1522;-0.1171;
-93.0000;0.1490;-0.1290;
-92.7000;0.1522;-0.1123;
-92.4000;0.1457;-0.1290;
-92.1000;0.1514;-0.1028;
-91.8000;0.1514;-0.1051;
-91.5000;0.1490;-0.1123;
-91.2000;0.1522;-0.1123;
-90.9000;0.1595;-0.0956;
-90.6000;0.1514;-0.1195;
-90.3000;0.1506;-0.1219;
-90.0000;0.1628;-0.0884;
-89.7000;0.1498;-0.1243;
-89.4000;0.1506;-0.1195;
-89.1000;0.1604;-0.0884;
-88.8000;0.1498;-0.1123;
-88.5000;0.1628;-0.0669;
-88.2000;0.1530;-0.1051;
-87.9000;0.1522;-0.1123;
-87.6000;0.1547;-0.1147;
-87.3000;0.1522;-0.1219;
-87.0000;0.1522;-0.1266;
-86.7000;0.1547;-0.1195;
-86.4000;0.1506;-0.1266;
-86.1000;0.1481;-0.1338;
-85.8000;0.1522;-0.1243;
-85.5000;0.1530;-0.1243;
-85.2000;0.1506;-0.1266;
-84.9000;0.1563;-0.1099;
-84.6000;0.1481;-0.1410;
-84.3000;0.1481;-0.1410;
-84.0000;0.1522;-0.1338;
-83.7000;0.1571;-0.1243;
-83.4000;0.1514;-0.1434;
-83.1000;0.1522;-0.1434;
-82.8000;0.1530;-0.1362;
-82.5000;0.1473;-0.1458;
-82.2000;0.1595;-0.1123;
-81.9000;0.1530;-0.1338;
-81.6000;0.1506;-0.1410;
-81.3000;0.1563;-0.1219;
-81.0000;0.1514;-0.1458;
-80.7000;0.1506;-0.1362;
-80.4000;0.1506;-0.1290;
-80.1000;0.1514;-0.1195;
-79.8000;0.1530;-0.1147;
-79.5000;0.1506;-0.1195;
-79.2000;0.1522;-0.1195;
-78.9000;0.1473;-0.1434;
-78.6000;0.1506;-0.1290;
-78.3000;0.1538;-0.1171;
-78.0000;0.1514;-0.1171;
-77.7000;0.1498;-0.1171;
-77.4000;0.1481;-0.1195;
-77.1000;0.1522;-0.1099;
-76.8000;0.1522;-0.1051;
-76.5000;0.1506;-0.1051;
-76.2000;0.1506;-0.1051;
-75.9000;0.1514;-0.0956;
-75.6000;0.1490;-0.1028;
-75.3000;0.1490;-0.1051;
-75.0000;0.1514;-0.0980;
-74.7000;0.1555;-0.0860;
-74.4000;0.1522;-0.0980;
-74.1000;0.1538;-0.0860;
-73.8000;0.1490;-0.1099;
-73.5000;0.1473;-0.1147;
-73.2000;0.1555;-0.0932;
-72.9000;0.1498;-0.1147;
-72.6000;0.1498;-0.1171;
-72.3000;0.1522;-0.1123;
-72.0000;0.1522;-0.1147;
-71.7000;0.1547;-0.1051;
-71.4000;0.1530;-0.1051;
-71.1000;0.1506;-0.1075;
-70.8000;0.1522;-0.0980;
-70.5000;0.1522;-0.0932;
-70.2000;0.1522;-0.0812;
-69.9000;0.1547;-0.0789;
-69.6000;0.1506;-0.0884;
-69.3000;0.1498;-0.0908;
-69.0000;0.1506;-0.0884;
-68.7000;0.1498;-0.0956;
-68.4000;0.1498;-0.1004;
-68.1000;0.1506;-0.0980;
-67.8000;0.1530;-0.0980;
-67.5000;0.1490;-0.1195;
-67.2000;0.1538;-0.1123;
-66.9000;0.1465;-0.1290;
-66.6000;0.1506;-0.1219;
-66.3000;0.1514;-0.1147;
-66.0000;0.1514;-0.1147;
-65.7000;0.1522;-0.1099;
-65.4000;0.1498;-0.1147;
-65.1000;0.1514;-0.1195;
-64.8000;0.1522;-0.1171;
-64.5000;0.1506;-0.1195;
-64.2000;0.1498;-0.1219;
-63.9000;0.1506;-0.1147;
-63.6000;0.1514;-0.1051;
-63.3000;0.1555;-0.0884;
-63.0000;0.1498;-0.0932;
-62.7000;0.1522;-0.0908;
-62.4000;0.1506;-0.0956;
-62.1000;0.1579;-0.0860;
-61.8000;0.1530;-0.0980;
-61.5000;0.1530;-0.0956;
-61.2000;0.1522;-0.0884;
-60.9000;0.1522;-0.0765;
-60.6000;0.1514;-0.0765;
-60.3000;0.1522;-0.0765;
-60.0000;0.1522;-0.0812;
-59.7000;0.1522;-0.0812;
-59.4000;0.1490;-0.0860;
-59.1000;0.1490;-0.0860;
-58.8000;0.1514;-0.0956;
-58.5000;0.1490;-0.1075;
-58.2000;0.1490;-0.1099;
-57.9000;0.1522;-0.1051;
-57.6000;0.1506;-0.1028;
-57.3000;0.1506;-0.1051;
-57.0000;0.1498;-0.1099;
-56.7000;0.1506;-0.1075;
-56.4000;0.1522;-0.0956;
-56.1000;0.1547;-0.0884;
-55.8000;0.1530;-0.1004;
-55.5000;0.1522;-0.1028;
-55.2000;0.1481;-0.1195;
-54.9000;0.1506;-0.1028;
-54.6000;0.1514;-0.1123;
-54.3000;0.1522;-0.1123;
-54.0000;0.1490;-0.1123;
-53.7000;0.1522;-0.1051;
-53.4000;0.1555;-0.0956;
-53.1000;0.1514;-0.1004;
-52.8000;0.1498;-0.1075;
-52.5000;0.1620;-0.0789;
-52.2000;0.1595;-0.0908;
-51.9000;0.1530;-0.1123;
-51.6000;0.1522;-0.1028;
-51.3000;0.1498;-0.1028;
-51.0000;0.1481;-0.1028;
-50.7000;0.1522;-0.1004;
-50.4000;0.1490;-0.0980;
-50.1000;0.1522;-0.0884;
-49.8000;0.1514;-0.0884;
-49.5000;0.1522;-0.0932;
-49.2000;0.1490;-0.1028;
-48.9000;0.1514;-0.1075;
-48.6000;0.1522;-0.1051;
-48.3000;0.1506;-0.1099;
-48.0000;0.1514;-0.1123;
-47.7000;0.1522;-0.1171;
-47.4000;0.1400;-0.1529;
-47.1000;0.1530;-0.1195;
-46.8000;0.1473;-0.1338;
-46.5000;0.1547;-0.1147;
-46.2000;0.1514;-0.1147;
-45.9000;0.1522;-0.1195;
-45.6000;0.1522;-0.1219;
-45.3000;0.1514;-0.1147;
-45.0000;0.1514;-0.1147;
-44.7000;0.1530;-0.1171;
-44.4000;0.1530;-0.1171;
-44.1000;0.1514;-0.1147;
-43.8000;0.1522;-0.1195;
-43.5000;0.1522;-0.1195;
-43.2000;0.1514;-0.1195;
-42.9000;0.1498;-0.1171;
-42.6000;0.1530;-0.1195;
-42.3000;0.1490;-0.1266;
-42.0000;0.1498;-0.1266;
-41.7000;0.1506;-0.1219;
-41.4000;0.1498;-0.1243;
-41.1000;0.1530;-0.1243;
-40.8000;0.1506;-0.1290;
-40.5000;0.1514;-0.1338;
-40.2000;0.1506;-0.1338;
-39.9000;0.1506;-0.1266;
-39.6000;0.1530;-0.1266;
-39.3000;0.1514;-0.1290;
-39.0000;0.1498;-0.1290;
-38.7000;0.1506;-0.1195;
-38.4000;0.1514;-0.1171;
-38.1000;0.1538;-0.1075;
-37.8000;0.1522;-0.1051;
-37.5000;0.1547;-0.1028;
-37.2000;0.1465;-0.1171;
-36.9000;0.1514;-0.1123;
-36.6000;0.1538;-0.1099;
-36.3000;0.1522;-0.1123;
-36.0000;0.1538;-0.1051;
-35.7000;0.1538;-0.1028;
-35.4000;0.1498;-0.1075;
-35.1000;0.1498;-0.1147;
-34.8000;0.1514;-0.1219;
-34.5000;0.1538;-0.1123;
-34.2000;0.1538;-0.1171;
-33.9000;0.1595;-0.0980;
-33.6000;0.1506;-0.1219;
-33.3000;0.1425;-0.1410;
-33.0000;0.1514;-0.1075;
-32.7000;0.1514;-0.0980;
-32.4000;0.1547;-0.0860;
-32.1000;0.1481;-0.1099;
-31.8000;0.1538;-0.1075;
-31.5000;0.1506;-0.1075;
-31.2000;0.1425;-0.1362;
-30.9000;0.1522;-0.1004;
-30.6000;0.1506;-0.1075;
-30.3000;0.1530;-0.1099;
-30.0000;0.1587;-0.0956;
-29.7000;0.1506;-0.1243;
-29.4000;0.1498;-0.1243;
-29.1000;0.1506;-0.1171;
-28.8000;0.1522;-0.1075;
-28.5000;0.1579;-0.1004;
-28.2000;0.1506;-0.1195;
-27.9000;0.1490;-0.1314;
-27.6000;0.1514;-0.1219;
-27.3000;0.1506;-0.1266;
-27.0000;0.1514;-0.1362;
-26.7000;0.1514;-0.1338;
-26.4000;0.1506;-0.1314;
-26.1000;0.1506;-0.1314;
-25.8000;0.1481;-0.1410;
-25.5000;0.1514;-0.1290;
-25.2000;0.1441;-0.1482;
-24.9000;0.1514;-0.1290;
-24.6000;0.1506;-0.1266;
-24.3000;0.1441;-0.1410;
-24.0000;0.1538;-0.1147;
-23.7000;0.1506;-0.1171;
-23.4000;0.1425;-0.1362;
-23.1000;0.1538;-0.1123;
-22.8000;0.1522;-0.1147;
-22.5000;0.1498;-0.1123;
-22.2000;0.1522;-0.1123;
-21.9000;0.1506;-0.1266;
-21.6000;0.1514;-0.1266;
-21.3000;0.1555;-0.1195;
-21.0000;0.1506;-0.1266;
-20.7000;0.1547;-0.1147;
-20.4000;0.1530;-0.1147;
-20.1000;0.1522;-0.1051;
-19.8000;0.1514;-0.1075;
-19.5000;0.1514;-0.1075;
-19.2000;0.1514;-0.1123;
-18.9000;0.1547;-0.1004;
-18.6000;0.1498;-0.1075;
-18.3000;0.1522;-0.1075;
-18.0000;0.1522;-0.1123;
-17.7000;0.1563;-0.0980;
-17.4000;0.1522;-0.1051;
-17.1000;0.1514;-0.1075;
-16.8000;0.1457;-0.1195;
-16.5000;0.1506;-0.1028;
-16.2000;0.1522;-0.1051;
-15.9000;0.1506;-0.1147;
-15.6000;0.1490;-0.1171;
-15.3000;0.1538;-0.0980;
-15.0000;0.1547;-0.1051;
-14.7000;0.1498;-0.1195;
-14.4000;0.1514;-0.1243;
-14.1000;0.1506;-0.1195;
-13.8000;0.1547;-0.1051;
-13.5000;0.1530;-0.1099;
-13.2000;0.1514;-0.1147;
-12.9000;0.1538;-0.1051;
-12.6000;0.1522;-0.1099;
-12.3000;0.1555;-0.0980;
-12.0000;0.1538;-0.1028;
-11.7000;0.1498;-0.1075;
-11.4000;0.1514;-0.1075;
-11.1000;0.1538;-0.1028;
-10.8000;0.1473;-0.1171;
-10.5000;0.1498;-0.1147;
-10.2000;0.1522;-0.1051;
-9.9000;0.1506;-0.1099;
-9.6000;0.1506;-0.1028;
-9.3000;0.1514;-0.0980;
-9.0000;0.1490;-0.1075;
-8.7000;0.1498;-0.1147;
-8.4000;0.1514;-0.1123;
-8.1000;0.1522;-0.1147;
-7.8000;0.1433;-0.1434;
-7.5000;0.1506;-0.1147;
-7.2000;0.1522;-0.1147;
-6.9000;0.1514;-0.1266;
-6.6000;0.1506;-0.1290;
-6.3000;0.1538;-0.1147;
-6.0000;0.1514;-0.1123;
-5.7000;0.1433;-0.1386;
-5.4000;0.1522;-0.1075;
-5.1000;0.1522;-0.1051;
-4.8000;0.1514;-0.1004;
-4.5000;0.1506;-0.0932;
-4.2000;0.1506;-0.0956;
-3.9000;0.1522;-0.1028;
-3.6000;0.1530;-0.1051;
-3.3000;0.1571;-0.0980;
-3.0000;0.1547;-0.1028;
-2.7000;0.1547;-0.1028;
-2.4000;0.1620;-0.0812;
-2.1000;0.1530;-0.1147;
-1.8000;0.1538;-0.1099;
-1.5000;0.1587;-0.0956;
-1.2000;0.1522;-0.0980;
-0.9000;0.1514;-0.0980;
-0.6000;0.1530;-0.0884;
-0.3000;0.1538;-0.0860;
0.0000;0.1538;-0.0860;
0.3000;0.1506;-0.1386;
0.6000;0.1661;-0.0789;
0.9000;0.1522;-0.1028;
1.2000;0.1555;-0.0884;
1.5000;0.1530;-0.0812;
1.8000;0.1522;-0.0645;
2.1000;0.1555;-0.0454;
2.4000;0.1530;-0.0335;
2.7000;0.1522;-0.0239;
3.0000;0.1563;-0.0072;
3.3000;0.1547;-0.0072;
3.6000;0.1547;-0.0048;
3.9000;0.1636;0.0096;
4.2000;0.1628;0.0167;
4.5000;0.1563;0.0072;
4.8000;0.1555;0.0143;
5.1000;0.1538;0.0096;
5.4000;0.1563;0.0167;
5.7000;0.1538;0.0024;
6.0000;0.1563;0.0096;
6.3000;0.1547;0.0048;
6.6000;0.1571;0.0143;
6.9000;0.1636;0.0335;
7.2000;0.1547;0.0119;
7.5000;0.1555;0.0119;
7.8000;0.1563;0.0191;
8.1000;0.1530;0.0096;
8.4000;0.1579;0.0263;
8.7000;0.1538;0.0191;
9.0000;0.1538;0.0215;
9.3000;0.1571;0.0311;
9.6000;0.1579;0.0215;
9.9000;0.1571;0.0191;
10.2000;0.1547;0.0143;
10.5000;0.1571;0.0191;
10.8000;0.1555;0.0215;
11.1000;0.1587;0.0215;
11.4000;0.1473;0.0000;
11.7000;0.1563;0.0215;
12.0000;0.1555;0.0215;
12.3000;0.1563;0.0167;
12.6000;0.1563;0.0072;
12.9000;0.1563;0.0143;
13.2000;0.1571;0.0191;
13.5000;0.1595;0.0143;
13.8000;0.1547;-0.0024;
14.1000;0.1555;0.0072;
14.4000;0.1571;0.0143;
14.7000;0.1547;0.0119;
15.0000;0.1563;0.0167;
15.3000;0.1563;0.0096;
15.6000;0.1555;-0.0024;
15.9000;0.1563;0.0000;
16.2000;0.1547;-0.0024;
16.5000;0.1571;0.0048;
16.8000;0.1555;-0.0024;
17.1000;0.1547;0.0024;
17.4000;0.1563;0.0143;
17.7000;0.1563;0.0096;
18.0000;0.1555;0.0191;
18.3000;0.1530;0.0239;
18.6000;0.1538;0.0215;
18.9000;0.1555;0.0239;
19.2000;0.1555;0.0167;
19.5000;0.1652;0.0382;
19.8000;0.1563;0.0143;
20.1000;0.1555;0.0119;
20.4000;0.1571;0.0048;
20.7000;0.1555;0.0048;
21.0000;0.1555;0.0167;
21.3000;0.1547;0.0167;
21.6000;0.1579;0.0263;
21.9000;0.1547;0.0191;
22.2000;0.1563;0.0119;
22.5000;0.1571;0.0096;
22.8000;0.1563;0.0191;
23.1000;0.1547;0.0072;
23.4000;0.1555;0.0096;
23.7000;0.1538;0.0072;
24.0000;0.1563;0.0215;
24.3000;0.1538;0.0167;
24.6000;0.1441;-0.0143;
24.9000;0.1587;0.0143;
25.2000;0.1563;0.0119;
25.5000;0.1571;0.0167;
25.8000;0.1628;0.0263;
26.1000;0.1563;0.0191;
26.4000;0.1547;0.0072;
26.7000;0.1506;-0.0024;
27.0000;0.1587;0.0167;
27.3000;0.1571;0.0167;
27.6000;0.1555;0.0167;
27.9000;0.1563;0.0191;
28.2000;0.1587;0.0215;
28.5000;0.1563;0.0119;
28.8000;0.1587;0.0167;
29.1000;0.1563;0.0096;
29.4000;0.1563;0.0119;
29.7000;0.1530;0.0000;
30.0000;0.1571;0.0119;
30.3000;0.1555;0.0096;
30.6000;0.1547;0.0119;
30.9000;0.1555;0.0191;
31.2000;0.1555;0.0239;
31.5000;0.1685;0.0550;
31.8000;0.1563;0.0215;
32.1000;0.1547;0.0311;
32.4000;0.1555;0.0454;
32.7000;0.1538;0.0358;
33.0000;0.1563;0.0287;
33.3000;0.1538;0.0119;
33.6000;0.1530;0.0119;
33.9000;0.1416;-0.0143;
34.2000;0.1547;0.0072;
34.5000;0.1555;0.0143;
34.8000;0.1547;0.0096;
35.1000;0.1579;0.0119;
35.4000;0.1571;0.0143;
35.7000;0.1538;0.0143;
36.0000;0.1538;0.0048;
36.3000;0.1555;0.0143;
36.6000;0.1514;0.0096;
36.9000;0.1538;0.0215;
37.2000;0.1506;0.0096;
37.5000;0.1555;0.0239;
37.8000;0.1555;0.0143;
38.1000;0.1555;0.0167;
38.4000;0.1514;0.0072;
38.7000;0.1555;0.0143;
39.0000;0.1563;0.0215;
39.3000;0.1506;0.0072;
39.6000;0.1555;0.0215;
39.9000;0.1555;0.0191;
40.2000;0.1547;0.0263;
40.5000;0.1555;0.0287;
40.8000;0.1530;0.0143;
41.1000;0.1547;0.0191;
41.4000;0.1481;0.0024;
41.7000;0.1555;0.0143;
42.0000;0.1555;0.0215;
42.3000;0.1555;0.0239;
42.6000;0.1571;0.0263;
42.9000;0.1506;0.0191;
43.2000;0.1522;0.0311;
43.5000;0.1628;0.0430;
43.8000;0.1530;0.0167;
44.1000;0.1538;0.0167;
44.4000;0.1587;0.0239;
44.7000;0.1465;0.0072;
45.0000;0.1555;0.0263;
45.3000;0.1530;0.0191;
45.6000;0.1555;0.0287;
45.9000;0.1595;0.0335;
46.2000;0.1547;0.0215;
46.5000;0.1555;0.0239;
46.8000;0.1530;0.0167;
47.1000;0.1563;0.0263;
47.4000;0.1563;0.0382;
47.7000;0.1563;0.0335;
48.0000;0.1555;0.0382;
48.3000;0.1547;0.0358;
48.6000;0.1522;0.0239;
48.9000;0.1563;0.0358;
49.2000;0.1530;0.0382;
49.5000;0.1579;0.0526;
49.8000;0.1465;0.0215;
50.1000;0.1530;0.0406;
50.4000;0.1530;0.0430;
50.7000;0.1563;0.0550;
51.0000;0.1579;0.0597;
51.3000;0.1579;0.0550;
51.6000;0.1555;0.0454;
51.9000;0.1636;0.0669;
52.2000;0.1604;0.0550;
52.5000;0.1530;0.0478;
52.8000;0.1538;0.0597;
53.1000;0.1555;0.0597;
53.4000;0.1579;0.0669;
53.7000;0.1547;0.0526;
54.0000;0.1555;0.0526;
54.3000;0.1563;0.0502;
54.6000;0.1547;0.0358;
54.9000;0.1555;0.0382;
55.2000;0.1538;0.0382;
55.5000;0.1547;0.0406;
55.8000;0.1530;0.0526;
56.1000;0.1547;0.0550;
56.4000;0.1547;0.0478;
56.7000;0.1620;0.0669;
57.0000;0.1563;0.0574;
57.3000;0.1555;0.0550;
57.6000;0.1498;0.0406;
57.9000;0.1530;0.0502;
58.2000;0.1555;0.0621;
58.5000;0.1571;0.0574;
58.8000;0.1555;0.0550;
59.1000;0.1522;0.0454;
59.4000;0.1555;0.0574;
59.7000;0.1530;0.0478;
60.0000;0.1571;0.0526;
60.3000;0.1522;0.0406;
60.6000;0.1555;0.0478;
60.9000;0.1547;0.0382;
61.2000;0.1547;0.0358;
61.5000;0.1538;0.0406;
61.8000;0.1465;0.0239;
62.1000;0.1547;0.0478;
62.4000;0.1571;0.0502;
62.7000;0.1587;0.0454;
63.0000;0.1571;0.0311;
63.3000;0.1538;0.0263;
63.6000;0.1579;0.0406;
63.9000;0.1555;0.0406;
64.2000;0.1612;0.0550;
64.5000;0.1506;0.0311;
64.8000;0.1604;0.0502;
65.1000;0.1604;0.0502;
65.4000;0.1579;0.0454;
65.7000;0.1538;0.0406;
66.0000;0.1538;0.0382;
66.3000;0.1555;0.0478;
66.6000;0.1538;0.0406;
66.9000;0.1473;0.0215;
67.2000;0.1547;0.0406;
67.5000;0.1514;0.0311;
67.8000;0.1538;0.0406;
68.1000;0.1547;0.0311;
68.4000;0.1563;0.0215;
68.7000;0.1555;0.0167;
69.0000;0.1547;0.0167;
69.3000;0.1555;0.0239;
69.6000;0.1547;0.0143;
69.9000;0.1547;0.0119;
70.2000;0.1555;0.0167;
70.5000;0.1481;-0.0048;
70.8000;0.1538;0.0072;
71.1000;0.1547;0.0167;
71.4000;0.1547;0.0215;
71.7000;0.1555;0.0239;
72.0000;0.1571;0.0167;
72.3000;0.1547;0.0096;
72.6000;0.1555;0.0191;
72.9000;0.1547;0.0215;
73.2000;0.1547;0.0287;
73.5000;0.1538;0.0311;
73.8000;0.1538;0.0287;
74.1000;0.1579;0.0406;
74.4000;0.1579;0.0382;
74.7000;0.1555;0.0239;
75.0000;0.1579;0.0263;
75.3000;0.1579;0.0263;
75.6000;0.1555;0.0335;
75.9000;0.1555;0.0358;
76.2000;0.1579;0.0382;
76.5000;0.1538;0.0335;
76.8000;0.1530;0.0311;
77.1000;0.1571;0.0526;
77.4000;0.1563;0.0430;
77.7000;0.1571;0.0382;
78.0000;0.1563;0.0335;
78.3000;0.1514;0.0191;
78.6000;0.1538;0.0239;
78.9000;0.1555;0.0287;
79.2000;0.1555;0.0311;
79.5000;0.1547;0.0335;
79.8000;0.1563;0.0358;
80.1000;0.1563;0.0382;
80.4000;0.1563;0.0430;
80.7000;0.1547;0.0335;
81.0000;0.1547;0.0335;
81.3000;0.1563;0.0358;
81.6000;0.1571;0.0358;
81.9000;0.1547;0.0311;
82.2000;0.1604;0.0478;
82.5000;0.1604;0.0621;
82.8000;0.1587;0.0478;
83.1000;0.1579;0.0406;
83.4000;0.1563;0.0406;
83.7000;0.1571;0.0382;
84.0000;0.1571;0.0382;
84.3000;0.1555;0.0311;
84.6000;0.1571;0.0311;
84.9000;0.1522;0.0191;
85.2000;0.1555;0.0119;
85.5000;0.1571;0.0119;
85.8000;0.1563;0.0048;
86.1000;0.1563;0.0000;
86.4000;0.1571;0.0024;
86.7000;0.1530;0.0024;
87.0000;0.1587;0.0215;
87.3000;0.1652;0.0382;
87.6000;0.1530;0.0096;
87.9000;0.1563;0.0143;
88.2000;0.1571;0.0239;
88.5000;0.1547;0.0191;
88.8000;0.1563;0.0263;
89.1000;0.1538;0.0191;
89.4000;0.1579;0.0263;
89.7000;0.1563;0.0191;
90.0000;0.1555;0.0119;
90.3000;0.1555;0.0143;
90.6000;0.1555;0.0119;
90.9000;0.1563;0.0119;
91.2000;0.1522;0.0072;
91.5000;0.1563;0.0167;
91.8000;0.1587;0.0311;
92.1000;0.1612;0.0382;
92.4000;0.1571;0.0263;
92.7000;0.1555;0.0263;
93.0000;0.1522;0.0215;
93.3000;0.1563;0.0406;
93.6000;0.1538;0.0335;
93.9000;0.1563;0.0335;
94.2000;0.1506;0.0215;
94.5000;0.1555;0.0311;
94.8000;0.1547;0.0287;
95.1000;0.1547;0.0311;
95.4000;0.1547;0.0382;
95.7000;0.1579;0.0430;
96.0000;0.1579;0.0430;
96.3000;0.1579;0.0454;
96.6000;0.1571;0.0550;
96.9000;0.1538;0.0502;
97.2000;0.1571;0.0550;
97.5000;0.1571;0.0454;
97.8000;0.1530;0.0382;
98.1000;0.1563;0.0454;
98.4000;0.1555;0.0430;
98.7000;0.1579;0.0382;
99.0000;0.1563;0.0358;
99.3000;0.1555;0.0335;
99.6000;0.1538;0.0311;
99.9000;0.1563;0.0287;
100.2000;0.1449;-0.0072;
100.5000;0.1547;0.0239;
100.8000;0.1563;0.0287;
101.1000;0.1555;0.0239;
101.4000;0.1555;0.0215;
101.7000;0.1514;0.0143;
102.0000;0.1555;0.0215;
102.3000;0.1612;0.0430;
102.6000;0.1555;0.0382;
102.9000;0.1547;0.0358;
103.2000;0.1538;0.0311;
103.5000;0.1571;0.0406;
103.8000;0.1465;0.0096;
104.1000;0.1538;0.0358;
104.4000;0.1473;0.0191;
104.7000;0.1579;0.0382;
105.0000;0.1547;0.0311;
105.3000;0.1530;0.0215;
105.6000;0.1563;0.0358;
105.9000;0.1547;0.0311;
106.2000;0.1587;0.0382;
106.5000;0.1465;0.0119;
106.8000;0.1571;0.0550;
107.1000;0.1514;0.0454;
107.4000;0.1555;0.0550;
107.7000;0.1555;0.0478;
108.0000;0.1547;0.0406;
108.3000;0.1563;0.0478;
108.6000;0.1555;0.0430;
108.9000;0.1563;0.0382;
109.2000;0.1612;0.0502;
109.5000;0.1547;0.0287;
109.8000;0.1538;0.0287;
110.1000;0.1555;0.0287;
110.4000;0.1538;0.0239;
110.7000;0.1579;0.0335;
111.0000;0.1547;0.0215;
111.3000;0.1547;0.0287;
111.6000;0.1547;0.0311;
111.9000;0.1579;0.0382;
112.2000;0.1538;0.0287;
112.5000;0.1579;0.0287;
112.8000;0.1555;0.0263;
113.1000;0.1555;0.0263;
113.4000;0.1490;0.0167;
113.7000;0.1563;0.0311;
114.0000;0.1547;0.0215;
114.3000;0.1522;0.0167;
114.6000;0.1506;0.0119;
114.9000;0.1538;0.0215;
115.2000;0.1644;0.0430;
115.5000;0.1563;0.0215;
115.8000;0.1490;0.0096;
116.1000;0.1595;0.0263;
116.4000;0.1571;0.0072;
116.7000;0.1498;-0.0072;
117.0000;0.1547;0.0096;
117.3000;0.1547;0.0143;
117.6000;0.1547;0.0096;
117.9000;0.1538;0.0096;
118.2000;0.1571;0.0167;
118.5000;0.1547;0.0096;
118.8000;0.1555;0.0119;
119.1000;0.1555;0.0239;
119.4000;0.1555;0.0335;
119.7000;0.1555;0.0287;
120.0000;0.1538;0.0239;
120.3000;0.1538;0.0311;
120.6000;0.1612;0.0478;
120.9000;0.1555;0.0287;
121.2000;0.1538;0.0263;
121.5000;0.1547;0.0287;
121.8000;0.1579;0.0406;
122.1000;0.1547;0.0335;
122.4000;0.1530;0.0311;
122.7000;0.1579;0.0430;
123.0000;0.1555;0.0358;
123.3000;0.1563;0.0382;
123.6000;0.1547;0.0263;
123.9000;0.1563;0.0239;
124.2000;0.1538;0.0119;
124.5000;0.1555;0.0167;
124.8000;0.1457;-0.0119;
125.1000;0.1555;0.0119;
125.4000;0.1547;0.0191;
125.7000;0.1522;0.0096;
126.0000;0.1547;0.0143;
126.3000;0.1563;0.0167;
126.6000;0.1563;0.0335;
126.9000;0.1547;0.0287;
127.2000;0.1587;0.0287;
127.5000;0.1538;0.0215;
127.8000;0.1555;0.0239;
128.1000;0.1555;0.0263;
128.4000;0.1530;0.0287;
128.7000;0.1555;0.0335;
129.0000;0.1522;0.0311;
129.3000;0.1530;0.0263;
129.6000;0.1571;0.0358;
129.9000;0.1555;0.0311;
130.2000;0.1538;0.0239;
130.5000;0.1538;0.0215;
130.8000;0.1563;0.0215;
131.1000;0.1538;0.0119;
131.4000;0.1555;0.0263;
131.7000;0.1547;0.0239;
132.0000;0.1514;0.0000;
132.3000;0.1555;0.0096;
132.6000;0.1522;0.0024;
132.9000;0.1563;0.0096;
133.2000;0.1555;0.0072;
133.5000;0.1555;0.0143;
133.8000;0.1620;0.0478;
134.1000;0.1538;0.0215;
134.4000;0.1547;0.0287;
134.7000;0.1547;0.0215;
135.0000;0.1538;0.0215;
135.3000;0.1555;0.0287;
135.6000;0.1538;0.0239;
135.9000;0.1563;0.0215;
136.2000;0.1555;0.0143;
136.5000;0.1571;0.0239;
136.8000;0.1547;0.0143;
137.1000;0.1555;0.0024;
137.4000;0.1563;0.0048;
137.7000;0.1555;0.0024;
138.0000;0.1555;0.0096;
138.3000;0.1579;0.0119;
138.6000;0.1604;0.0311;
138.9000;0.1481;0.0000;
139.2000;0.1514;0.0239;
139.5000;0.1530;0.0335;
139.8000;0.1530;0.0191;
140.1000;0.1547;0.0311;
140.4000;0.1522;0.0358;
140.7000;0.1547;0.0358;
141.0000;0.1547;0.0335;
141.3000;0.1538;0.0335;
141.6000;0.1538;0.0358;
141.9000;0.1530;0.0406;
142.2000;0.1555;0.0478;
142.5000;0.1555;0.0430;
142.8000;0.1579;0.0454;
143.1000;0.1547;0.0287;
143.4000;0.1547;0.0167;
143.7000;0.1579;0.0239;
144.0000;0.1555;0.0167;
144.3000;0.1538;0.0072;
144.6000;0.1612;0.0287;
144.9000;0.1595;0.0215;
145.2000;0.1563;0.0191;
145.5000;0.1538;0.0096;
145.8000;0.1547;0.0143;
146.1000;0.1490;-0.0048;
146.4000;0.1587;0.0215;
146.7000;0.1571;0.0143;
147.0000;0.1530;0.0024;
147.3000;0.1538;0.0024;
147.6000;0.1563;0.0143;
147.9000;0.1555;0.0119;
148.2000;0.1547;0.0119;
148.5000;0.1612;0.0311;
148.8000;0.1547;0.0096;
149.1000;0.1449;-0.0191;
149.4000;0.1538;-0.0048;
149.7000;0.1538;0.0000;
150.0000;0.1538;0.0024;
150.3000;0.1571;0.0143;
150.6000;0.1538;0.0143;
150.9000;0.1530;0.0191;
151.2000;0.1563;0.0287;
151.5000;0.1661;0.0597;
151.8000;0.1547;0.0287;
152.1000;0.1538;0.0263;
152.4000;0.1563;0.0382;
152.7000;0.1571;0.0358;
153.0000;0.1555;0.0311;
153.3000;0.1555;0.0191;
153.6000;0.1530;0.0119;
153.9000;0.1530;0.0215;
154.2000;0.1547;0.0287;
154.5000;0.1579;0.0358;
154.8000;0.1563;0.0335;
155.1000;0.1563;0.0311;
155.4000;0.1669;0.0645;
155.7000;0.1530;0.0287;
156.0000;0.1522;0.0263;
156.3000;0.1563;0.0406;
156.6000;0.1547;0.0430;
156.9000;0.1685;0.0741;
157.2000;0.1555;0.0358;
157.5000;0.1604;0.0430;
157.8000;0.1490;0.0119;
158.1000;0.1563;0.0263;
158.4000;0.1555;0.0191;
158.7000;0.1433;-0.0119;
159.0000;0.1514;0.0119;
159.3000;0.1628;0.0406;
159.6000;0.1547;0.0191;
159.9000;0.1481;0.0048;
160.2000;0.1547;0.0263;
160.5000;0.1555;0.0263;
160.8000;0.1563;0.0287;
161.1000;0.1522;0.0239;
161.4000;0.1538;0.0239;
161.7000;0.1538;0.0191;
162.0000;0.1563;0.0119;
162.3000;0.1571;0.0096;
162.6000;0.1547;-0.0024;
162.9000;0.1481;-0.0167;
163.2000;0.1530;0.0096;
163.5000;0.1530;0.0143;
163.8000;0.1563;0.0167;
164.1000;0.1571;0.0167;
164.4000;0.1571;0.0167;
164.7000;0.1530;0.0119;
165.0000;0.1530;0.0096;
165.3000;0.1555;0.0167;
165.6000;0.1538;0.0096;
165.9000;0.1547;0.0167;
166.2000;0.1563;0.0167;
166.5000;0.1579;0.0239;
166.8000;0.1571;0.0263;
167.1000;0.1571;0.0263;
167.4000;0.1547;0.0143;
167.7000;0.1579;0.0215;
168.0000;0.1547;0.0048;
168.3000;0.1555;0.0191;
168.6000;0.1547;0.0215;
168.9000;0.1530;0.0191;
169.2000;0.1547;0.0191;
169.5000;0.1530;0.0239;
169.8000;0.1547;0.0167;
170.1000;0.1538;0.0215;
170.4000;0.1522;0.0191;
170.7000;0.1547;0.0215;
171.0000;0.1538;0.0167;
171.3000;0.1563;0.0215;
171.6000;0.1547;0.0167;
171.9000;0.1547;0.0191;
172.2000;0.1571;0.0287;
172.5000;0.1652;0.0454;
172.8000;0.1555;0.0167;
173.1000;0.1538;0.0239;
173.4000;0.1547;0.0215;
173.7000;0.1547;0.0239;
174.0000;0.1522;0.0167;
174.3000;0.1547;0.0119;
174.6000;0.1555;0.0096;
174.9000;0.1547;-0.0024;
175.2000;0.1595;0.0024;
175.5000;0.1490;-0.0358;
175.8000;0.1571;-0.0191;
176.1000;0.1538;-0.0191;
176.4000;0.1538;-0.0096;
176.7000;0.1563;-0.0048;
177.0000;0.1563;-0.0096;
177.3000;0.1514;-0.0096;
177.6000;0.1555;0.0096;
177.9000;0.1563;0.0167;
178.2000;0.1530;0.0072;
178.5000;0.1506;-0.0119;
178.8000;0.1669;0.0311;
179.1000;0.1522;-0.0024;
179.4000;0.1587;0.0191;
179.7000;0.1538;-0.0024;
180.0000;0.1547;-0.0024;
180.3000;0.1587;0.0096;
180.6000;0.1579;0.0096;
180.9000;0.1547;-0.0143;
181.2000;0.1555;-0.0167;
181.5000;0.1636;0.0024;
181.8000;0.1555;-0.0191;
182.1000;0.1538;-0.0239;
182.4000;0.1571;-0.0167;
182.7000;0.1530;-0.0215;
183.0000;0.1547;-0.0119;
183.3000;0.1530;-0.0048;
183.6000;0.1571;0.0143;
183.9000;0.1538;0.0143;
184.2000;0.1563;0.0311;
184.5000;0.1587;0.0287;
184.8000;0.1555;0.0215;
185.1000;0.1555;0.0215;
185.4000;0.1547;0.0167;
185.7000;0.1522;0.0024;
186.0000;0.1522;0.0024;
186.3000;0.1547;0.0215;
186.6000;0.1571;0.0263;
186.9000;0.1563;0.0263;
187.2000;0.1522;0.0048;
187.5000;0.1628;0.0311;
187.8000;0.1563;0.0119;
188.1000;0.1538;0.0072;
188.4000;0.1555;0.0143;
188.7000;0.1538;0.0167;
189.0000;0.1547;0.0239;
189.3000;0.1563;0.0239;
189.6000;0.1530;0.0119;
189.9000;0.1538;0.0072;
190.2000;0.1538;0.0143;
190.5000;0.1538;0.0215;
190.8000;0.1522;0.0167;
191.1000;0.1547;0.0215;
191.4000;0.1522;0.0167;
191.7000;0.1538;0.0287;
192.0000;0.1555;0.0263;
192.3000;0.1547;0.0239;
192.6000;0.1538;0.0239;
192.9000;0.1571;0.0311;
193.2000;0.1555;0.0311;
193.5000;0.1579;0.0335;
193.8000;0.1538;0.0287;
194.1000;0.1547;0.0311;
194.4000;0.1604;0.0454;
194.7000;0.1522;0.0239;
195.0000;0.1547;0.0263;
195.3000;0.1563;0.0335;
195.6000;0.1530;0.0239;
195.9000;0.1473;0.0119;
196.2000;0.1530;0.0263;
196.5000;0.1563;0.0239;
196.8000;0.1547;0.0167;
197.1000;0.1555;0.0096;
197.4000;0.1555;0.0048;
197.7000;0.1538;0.0096;
198.0000;0.1547;0.0287;
198.3000;0.1604;0.0430;
198.6000;0.1547;0.0287;
198.9000;0.1547;0.0311;
199.2000;0.1563;0.0311;
199.5000;0.1514;0.0143;
199.8000;0.1530;0.0143;
200.1000;0.1547;0.0239;
200.4000;0.1530;0.0215;
200.7000;0.1579;0.0287;
201.0000;0.1555;0.0191;
201.3000;0.1538;0.0119;
201.6000;0.1555;0.0215;
201.9000;0.1530;0.0191;
202.2000;0.1481;0.0072;
202.5000;0.1530;0.0191;
202.8000;0.1481;0.0048;
203.1000;0.1538;0.0239;
203.4000;0.1530;0.0287;
203.7000;0.1538;0.0239;
204.0000;0.1563;0.0311;
204.3000;0.1547;0.0382;
204.6000;0.1547;0.0406;
204.9000;0.1547;0.0382;
205.2000;0.1579;0.0502;
205.5000;0.1555;0.0478;
205.8000;0.1563;0.0430;
206.1000;0.1555;0.0406;
206.4000;0.1571;0.0430;
206.7000;0.1506;0.0287;
207.0000;0.1547;0.0358;
207.3000;0.1538;0.0335;
207.6000;0.1538;0.0263;
207.9000;0.1555;0.0358;
208.2000;0.1547;0.0358;
208.5000;0.1538;0.0358;
208.8000;0.1555;0.0358;
209.1000;0.1530;0.0406;
209.4000;0.1612;0.0645;
209.7000;0.1522;0.0358;
210.0000;0.1555;0.0311;
210.3000;0.1530;0.0215;
210.6000;0.1563;0.0311;
210.9000;0.1563;0.0335;
211.2000;0.1547;0.0382;
211.5000;0.1530;0.0311;
211.8000;0.1530;0.0239;
212.1000;0.1538;0.0287;
212.4000;0.1547;0.0335;
212.7000;0.1538;0.0239;
213.0000;0.1547;0.0287;
213.3000;0.1555;0.0239;
213.6000;0.1555;0.0215;
213.9000;0.1547;0.0191;
214.2000;0.1530;0.0167;
214.5000;0.1514;0.0191;
214.8000;0.1522;0.0215;
215.1000;0.1514;0.0311;
215.4000;0.1571;0.0478;
215.7000;0.1538;0.0478;
216.0000;0.1555;0.0382;
216.3000;0.1669;0.0717;
216.6000;0.1522;0.0263;
216.9000;0.1514;0.0119;
217.2000;0.1571;0.0239;
217.5000;0.1579;0.0335;
217.8000;0.1595;0.0430;
218.1000;0.1506;0.0215;
218.4000;0.1538;0.0239;
218.7000;0.1538;0.0191;
219.0000;0.1547;0.0072;
219.3000;0.1538;0.0048;
219.6000;0.1538;0.0119;
219.9000;0.1547;0.0191;
220.2000;0.1538;0.0215;
220.5000;0.1490;0.0096;
220.8000;0.1547;0.0263;
221.1000;0.1579;0.0406;
221.4000;0.1579;0.0358;
221.7000;0.1547;0.0263;
222.0000;0.1547;0.0239;
222.3000;0.1538;0.0382;
222.6000;0.1547;0.0406;
222.9000;0.1530;0.0358;
223.2000;0.1522;0.0382;
223.5000;0.1538;0.0382;
223.8000;0.1555;0.0358;
224.1000;0.1563;0.0263;
224.4000;0.1538;0.0335;
224.7000;0.1547;0.0382;
225.0000;0.1547;0.0311;
225.3000;0.1555;0.0239;
225.6000;0.1547;0.0215;
225.9000;0.1555;0.0263;
226.2000;0.1571;0.0287;
226.5000;0.1579;0.0311;
226.8000;0.1530;0.0191;
227.1000;0.1538;0.0119;
227.4000;0.1563;0.0096;
227.7000;0.1538;0.0167;
228.0000;0.1571;0.0119;
228.3000;0.1555;0.0096;
228.6000;0.1547;0.0191;
228.9000;0.1538;0.0096;
229.2000;0.1530;0.0048;
229.5000;0.1538;0.0072;
229.8000;0.1547;0.0072;
230.1000;0.1571;0.0119;
230.4000;0.1547;0.0096;
230.7000;0.1555;0.0119;
231.0000;0.1555;0.0024;
231.3000;0.1530;-0.0048;
231.6000;0.1587;0.0143;
231.9000;0.1571;0.0143;
232.2000;0.1563;0.0119;
232.5000;0.1538;0.0119;
232.8000;0.1538;0.0072;
233.1000;0.1555;0.0096;
233.4000;0.1547;0.0072;
233.7000;0.1555;0.0048;
234.0000;0.1563;0.0024;
234.3000;0.1563;0.0048;
234.6000;0.1555;-0.0024;
234.9000;0.1506;-0.0119;
235.2000;0.1538;-0.0072;
235.5000;0.1555;-0.0024;
235.8000;0.1555;0.0048;
236.1000;0.1555;0.0119;
236.4000;0.1555;0.0191;
236.7000;0.1538;0.0096;
237.0000;0.1538;0.0048;
237.3000;0.1538;0.0000;
237.6000;0.1433;-0.0215;
237.9000;0.1547;0.0072;
238.2000;0.1538;0.0024;
238.5000;0.1555;0.0072;
238.8000;0.1538;-0.0024;
239.1000;0.1490;-0.0048;
239.4000;0.1555;0.0096;
239.7000;0.1555;0.0096;
240.0000;0.1555;0.0143;
240.3000;0.1538;0.0096;
240.6000;0.1579;0.0215;
240.9000;0.1555;0.0072;
241.2000;0.1538;0.0119;
241.5000;0.1547;0.0119;
241.8000;0.1498;0.0096;
242.1000;0.1547;0.0167;
242.4000;0.1522;0.0119;
242.7000;0.1563;0.0167;
243.0000;0.1547;0.0096;
243.3000;0.1563;0.0143;
243.6000;0.1530;0.0048;
243.9000;0.1530;-0.0024;
244.2000;0.1530;0.0048;
244.5000;0.1538;0.0072;
244.8000;0.1538;-0.0024;
245.1000;0.1530;0.0024;
245.4000;0.1595;0.0239;
245.7000;0.1538;0.0143;
246.0000;0.1555;0.0191;
246.3000;0.1547;0.0143;
246.6000;0.1538;0.0143;
246.9000;0.1604;0.0287;
247.2000;0.1555;0.0167;
247.5000;0.1547;0.0167;
247.8000;0.1538;0.0191;
248.1000;0.1547;0.0239;
248.4000;0.1547;0.0287;
248.7000;0.1547;0.0263;
249.0000;0.1595;0.0382;
249.3000;0.1530;0.0072;
249.6000;0.1538;-0.0048;
249.9000;0.1547;0.0048;
250.2000;0.1547;0.0024;
250.5000;0.1530;-0.0024;
250.8000;0.1547;0.0048;
251.1000;0.1530;-0.0048;
251.4000;0.1522;-0.0167;
251.7000;0.1563;-0.0024;
252.0000;0.1538;-0.0072;
252.3000;0.1612;0.0119;
252.6000;0.1555;0.0048;
252.9000;0.1555;0.0048;
253.2000;0.1538;0.0024;
253.5000;0.1538;-0.0072;
253.8000;0.1571;-0.0024;
254.1000;0.1490;-0.0119;
254.4000;0.1530;0.0024;
254.7000;0.1636;0.0215;
255.0000;0.1538;0.0000;
255.3000;0.1498;-0.0048;
255.6000;0.1587;0.0215;
255.9000;0.1555;0.0096;
256.2000;0.1547;0.0096;
256.5000;0.1547;0.0119;
256.8000;0.1563;0.0119;
257.1000;0.1547;0.0143;
257.4000;0.1563;0.0143;
257.7000;0.1547;0.0000;
258.0000;0.1555;0.0072;
258.3000;0.1547;0.0119;
258.6000;0.1563;0.0239;
258.9000;0.1547;0.0335;
259.2000;0.1547;0.0263;
259.5000;0.1530;0.0167;
259.8000;0.1522;0.0119;
260.1000;0.1547;0.0287;
260.4000;0.1555;0.0311;
260.7000;0.1563;0.0287;
261.0000;0.1547;0.0215;
261.3000;0.1563;0.0239;
261.6000;0.1555;0.0263;
261.9000;0.1555;0.0191;
262.2000;0.1547;0.0048;
262.5000;0.1547;0.0048;
262.8000;0.1490;-0.0048;
263.1000;0.1522;-0.0024;
263.4000;0.1563;0.0024;
263.7000;0.1547;-0.0072;
264.0000;0.1555;0.0024;
264.3000;0.1579;0.0119;
264.6000;0.1563;0.0000;
264.9000;0.1595;0.0024;
265.2000;0.1571;0.0024;
265.5000;0.1538;-0.0024;
265.8000;0.1547;0.0048;
266.1000;0.1563;0.0024;
266.4000;0.1555;0.0000;
266.7000;0.1538;-0.0024;
267.0000;0.1547;0.0000;
267.3000;0.1538;-0.0048;
267.6000;0.1555;0.0072;
267.9000;0.1538;-0.0048;
268.2000;0.1563;-0.0048;
268.5000;0.1563;-0.0096;
268.8000;0.1538;-0.0096;
269.1000;0.1555;-0.0048;
269.4000;0.1547;0.0024;
269.7000;0.1522;0.0000;
270.0000;0.1530;-0.0024;
270.3000;0.1579;0.0096;
270.6000;0.1563;0.0024;
270.9000;0.1612;0.0167;
271.2000;0.1579;0.0024;
271.5000;0.1579;0.0072;
271.8000;0.1538;0.0024;
272.1000;0.1538;0.0000;
272.4000;0.1547;0.0000;
272.7000;0.1555;0.0000;
273.0000;0.1547;0.0072;
273.3000;0.1522;-0.0143;
273.6000;0.1522;-0.0239;
273.9000;0.1628;0.0048;
274.2000;0.1579;-0.0048;
274.5000;0.1571;-0.0096;
274.8000;0.1547;-0.0143;
275.1000;0.1555;-0.0048;
275.4000;0.1571;0.0048;
275.7000;0.1547;-0.0024;
276.0000;0.1433;-0.0382;
276.3000;0.1530;-0.0263;
276.6000;0.1555;-0.0096;
276.9000;0.1669;0.0263;
277.2000;0.1563;0.0000;
277.5000;0.1490;-0.0167;
277.8000;0.1547;-0.0072;
278.1000;0.1547;-0.0048;
278.4000;0.1538;-0.0048;
278.7000;0.1473;-0.0311;
279.0000;0.1538;-0.0072;
279.3000;0.1579;0.0096;
279.6000;0.1538;-0.0024;
279.9000;0.1538;-0.0048;
280.2000;0.1555;0.0000;
280.5000;0.1620;0.0167;
280.8000;0.1563;0.0000;
281.1000;0.1538;-0.0072;
281.4000;0.1538;-0.0048;
281.7000;0.1490;-0.0215;
282.0000;0.1555;0.0072;
282.3000;0.1563;0.0191;
282.6000;0.1555;0.0143;
282.9000;0.1571;0.0191;
283.2000;0.1547;0.0191;
283.5000;0.1530;0.0191;
283.8000;0.1661;0.0478;
284.1000;0.1530;0.0167;
284.4000;0.1555;0.0096;
284.7000;0.1555;0.0072;
285.0000;0.1547;0.0048;
285.3000;0.1530;0.0024;
285.6000;0.1530;0.0096;
285.9000;0.1547;0.0263;
286.2000;0.1547;0.0239;
286.5000;0.1555;0.0239;
286.8000;0.1579;0.0263;
287.1000;0.1547;0.0119;
287.4000;0.1530;0.0096;
287.7000;0.1555;0.0191;
288.0000;0.1547;0.0167;
288.3000;0.1522;0.0096;
288.6000;0.1522;0.0024;
288.9000;0.1522;0.0072;
289.2000;0.1538;0.0096;
289.5000;0.1555;0.0239;
289.8000;0.1555;0.0263;
290.1000;0.1547;0.0263;
290.4000;0.1530;0.0167;
290.7000;0.1595;0.0287;
291.0000;0.1538;0.0167;
291.3000;0.1522;0.0119;
291.6000;0.1506;0.0167;
291.9000;0.1514;0.0191;
292.2000;0.1530;0.0263;
292.5000;0.1571;0.0287;
292.8000;0.1538;0.0191;
293.1000;0.1669;0.0526;
293.4000;0.1530;0.0191;
293.7000;0.1530;0.0239;
294.0000;0.1522;0.0215;
294.3000;0.1547;0.0287;
294.6000;0.1530;0.0311;
294.9000;0.1473;0.0167;
295.2000;0.1538;0.0215;
295.5000;0.1547;0.0239;
295.8000;0.1555;0.0287;
296.1000;0.1547;0.0239;
296.4000;0.1538;0.0215;
296.7000;0.1547;0.0191;
297.0000;0.1538;0.0239;
297.3000;0.1530;0.0263;
297.6000;0.1538;0.0311;
297.9000;0.1587;0.0406;
298.2000;0.1555;0.0263;
298.5000;0.1555;0.0311;
298.8000;0.1457;0.0072;
299.1000;0.1441;0.0024;
299.4000;0.1538;0.0215;
299.7000;0.1555;0.0263;
300.0000;0.1538;0.0215;
300.3000;0.1498;0.0143;
300.6000;0.1547;0.0263;
300.9000;0.1563;0.0191;
301.2000;0.1628;0.0430;
301.5000;0.1555;0.0215;
301.8000;0.1563;0.0263;
302.1000;0.1538;0.0143;
302.4000;0.1538;0.0072;
302.7000;0.1563;0.0024;
303.0000;0.1571;0.0072;
303.3000;0.1547;0.0024;
303.6000;0.1563;-0.0024;
303.9000;0.1571;-0.0024;
304.2000;0.1644;0.0239;
304.5000;0.1506;-0.0143;
304.8000;0.1604;0.0024;
305.1000;0.1530;-0.0096;
305.4000;0.1563;-0.0024;
305.7000;0.1538;-0.0048;
306.0000;0.1538;-0.0048;
306.3000;0.1587;0.0191;
306.6000;0.1547;0.0048;
306.9000;0.1555;0.0119;
307.2000;0.1522;0.0143;
307.5000;0.1538;0.0191;
307.8000;0.1547;0.0143;
308.1000;0.1514;0.0072;
308.4000;0.1555;0.0167;
308.7000;0.1538;0.0096;
309.0000;0.1530;0.0000;
309.3000;0.1514;-0.0048;
309.6000;0.1555;0.0048;
309.9000;0.1538;0.0096;
310.2000;0.1563;0.0072;
310.5000;0.1530;0.0000;
310.8000;0.1530;0.0000;
311.1000;0.1522;-0.0048;
311.4000;0.1522;0.0024;
311.7000;0.1538;0.0096;
312.0000;0.1555;0.0119;
312.3000;0.1563;0.0143;
312.6000;0.1547;0.0048;
312.9000;0.1685;0.0406;
313.2000;0.1530;0.0024;
313.5000;0.1530;0.0072;
313.8000;0.1547;0.0024;
314.1000;0.1563;0.0143;
314.4000;0.1571;0.0191;
314.7000;0.1530;0.0072;
315.0000;0.1547;0.0167;
315.3000;0.1465;0.0072;
315.6000;0.1555;0.0263;
315.9000;0.1587;0.0335;
316.2000;0.1522;0.0191;
316.5000;0.1563;0.0358;
316.8000;0.1547;0.0287;
317.1000;0.1538;0.0287;
317.4000;0.1538;0.0263;
317.7000;0.1538;0.0239;
318.0000;0.1547;0.0239;
318.3000;0.1530;0.0096;
318.6000;0.1547;0.0143;
318.9000;0.1563;0.0143;
319.2000;0.1547;0.0072;
319.5000;0.1563;0.0167;
319.8000;0.1563;0.0096;
320.1000;0.1538;-0.0048;
320.4000;0.1538;0.0024;
320.7000;0.1538;0.0048;
321.0000;0.1547;0.0167;
321.3000;0.1530;0.0167;
321.6000;0.1538;0.0191;
321.9000;0.1547;0.0143;
322.2000;0.1538;0.0024;
322.5000;0.1555;0.0143;
322.8000;0.1555;0.0215;
323.1000;0.1538;0.0239;
323.4000;0.1538;0.0239;
323.7000;0.1514;0.0143;
324.0000;0.1522;0.0191;
324.3000;0.1555;0.0287;
324.6000;0.1571;0.0311;
324.9000;0.1555;0.0263;
325.2000;0.1595;0.0406;
325.5000;0.1547;0.0239;
325.8000;0.1522;0.0239;
326.1000;0.1547;0.0335;
326.4000;0.1555;0.0382;
326.7000;0.1555;0.0406;
327.0000;0.1547;0.0311;
327.3000;0.1555;0.0263;
327.6000;0.1661;0.0526;
327.9000;0.1498;0.0167;
328.2000;0.1530;0.0143;
328.5000;0.1522;0.0167;
328.8000;0.1514;0.0215;
329.1000;0.1530;0.0215;
329.4000;0.1555;0.0311;
329.7000;0.1514;0.0119;
330.0000;0.1587;0.0239;
330.3000;0.1555;0.0263;
330.6000;0.1457;-0.0048;
330.9000;0.1522;0.0143;
331.2000;0.1612;0.0335;
331.5000;0.1538;0.0143;
331.8000;0.1547;0.0096;
332.1000;0.1538;0.0096;
332.4000;0.1555;0.0119;
332.7000;0.1538;0.0048;
333.0000;0.1530;0.0000;
333.3000;0.1547;0.0096;
333.6000;0.1538;0.0167;
333.9000;0.1530;0.0143;
334.2000;0.1522;0.0072;
334.5000;0.1547;0.0048;
334.8000;0.1514;0.0000;
335.1000;0.1473;-0.0096;
335.4000;0.1538;0.0072;
335.7000;0.1530;0.0096;
336.0000;0.1555;0.0263;
336.3000;0.1563;0.0311;
336.6000;0.1449;-0.0072;
336.9000;0.1555;0.0263;
337.2000;0.1538;0.0239;
337.5000;0.1538;0.0287;
337.8000;0.1538;0.0239;
338.1000;0.1563;0.0287;
338.4000;0.1547;0.0239;
338.7000;0.1563;0.0263;
339.0000;0.1547;0.0215;
339.3000;0.1538;0.0191;
339.6000;0.1538;0.0263;
339.9000;0.1571;0.0335;
340.2000;0.1465;0.0096;
340.5000;0.1481;0.0191;
340.8000;0.1514;0.0191;
341.1000;0.1538;0.0167;
341.4000;0.1563;0.0263;
341.7000;0.1530;0.0143;
342.0000;0.1547;0.0215;
342.3000;0.1563;0.0287;
342.6000;0.1604;0.0382;
342.9000;0.1547;0.0311;
343.2000;0.1555;0.0335;
343.5000;0.1522;0.0239;
343.8000;0.1530;0.0215;
344.1000;0.1571;0.0335;
344.4000;0.1547;0.0239;
344.7000;0.1538;0.0167;
345.0000;0.1644;0.0478;
345.3000;0.1563;0.0263;
345.6000;0.1579;0.0287;
345.9000;0.1547;0.0263;
346.2000;0.1538;0.0215;
346.5000;0.1652;0.0478;
346.8000;0.1571;0.0239;
347.1000;0.1538;0.0167;
347.4000;0.1538;0.0096;
347.7000;0.1563;0.0024;
348.0000;0.1571;0.0072;
348.3000;0.1522;-0.0072;
348.6000;0.1579;0.0096;
348.9000;0.1498;-0.0096;
349.2000;0.1538;-0.0119;
349.5000;0.1465;-0.0358;
349.8000;0.1555;-0.0191;
350.1000;0.1547;-0.0215;
350.4000;0.1563;-0.0191;
350.7000;0.1514;-0.0239;
351.0000;0.1547;-0.0167;
351.3000;0.1522;-0.0143;
351.6000;0.1498;-0.0215;
351.9000;0.1563;0.0000;
352.2000;0.1506;-0.0096;
352.5000;0.1547;0.0096;
352.8000;0.1547;0.0119;
353.1000;0.1498;0.0072;
353.4000;0.1538;0.0000;
353.7000;0.1514;-0.0024;
354.0000;0.1555;0.0024;
354.3000;0.1555;0.0024;
354.6000;0.1555;0.0024;
354.9000;0.1547;0.0048;
355.2000;0.1530;0.0048;
355.5000;0.1555;0.0191;
355.8000;0.1538;0.0167;
356.1000;0.1547;0.0167;
356.4000;0.1547;0.0167;
356.7000;0.1530;0.0072;
357.0000;0.1530;0.0143;
357.3000;0.1547;0.0215;
357.6000;0.1555;0.0311;
357.9000;0.1514;0.0239;
358.2000;0.1555;0.0287;
358.5000;0.1555;0.0263;
358.8000;0.1563;0.0239;
359.1000;0.1522;0.0096;
359.4000;0.1465;-0.0096;
359.7000;0.1538;0.0096;
360.0000;0.1522;0.0072;
360.3000;0.1538;0.0024;
360.6000;0.1571;0.0191;
360.9000;0.1555;0.0119;
361.2000;0.1498;0.0024;
361.5000;0.1538;0.0143;
361.8000;0.1498;0.0048;
362.1000;0.1579;0.0287;
362.4000;0.1555;0.0215;
362.7000;0.1547;0.0239;
363.0000;0.1555;0.0287;
363.3000;0.1571;0.0358;
363.6000;0.1530;0.0263;
363.9000;0.1547;0.0311;
364.2000;0.1547;0.0358;
364.5000;0.1547;0.0454;
364.8000;0.1538;0.0454;
365.1000;0.1538;0.0358;
365.4000;0.1547;0.0382;
365.7000;0.1530;0.0382;
366.0000;0.1465;0.0119;
366.3000;0.1547;0.0335;
366.6000;0.1547;0.0239;
366.9000;0.1547;0.0287;
367.2000;0.1530;0.0263;
367.5000;0.1522;0.0191;
367.8000;0.1669;0.0430;
368.1000;0.1530;0.0167;
368.4000;0.1538;0.0119;
368.7000;0.1522;0.0072;
369.0000;0.1547;0.0167;
369.3000;0.1465;0.0072;
369.6000;0.1547;0.0287;
369.9000;0.1563;0.0382;
370.2000;0.1522;0.0263;
370.5000;0.1522;0.0239;
370.8000;0.1530;0.0167;
371.1000;0.1547;0.0263;
371.4000;0.1538;0.0215;
371.7000;0.1538;0.0239;
372.0000;0.1530;0.0239;
372.3000;0.1538;0.0239;
372.6000;0.1522;0.0119;
372.9000;0.1506;0.0048;
373.2000;0.1514;0.0072;
373.5000;0.1514;0.0167;
373.8000;0.1530;0.0239;
374.1000;0.1441;-0.0048;
374.4000;0.1538;0.0215;
374.7000;0.1571;0.0263;
375.0000;0.1555;0.0239;
375.3000;0.1530;0.0143;
375.6000;0.1538;0.0239;
375.9000;0.1522;0.0191;
376.2000;0.1547;0.0167;
376.5000;0.1538;0.0143;
376.8000;0.1522;0.0072;
377.1000;0.1498;0.0024;
377.4000;0.1555;0.0143;
377.7000;0.1498;-0.0024;
378.0000;0.1555;0.0024;
378.3000;0.1538;-0.0024;
378.6000;0.1547;0.0072;
378.9000;0.1538;0.0096;
379.2000;0.1669;0.0454;
379.5000;0.1547;0.0143;
379.8000;0.1604;0.0335;
380.1000;0.1555;0.0215;
380.4000;0.1563;0.0287;
380.7000;0.1563;0.0311;
381.0000;0.1547;0.0311;
381.3000;0.1555;0.0239;
381.6000;0.1571;0.0263;
381.9000;0.1538;0.0215;
382.2000;0.1530;0.0263;
382.5000;0.1530;0.0263;
382.8000;0.1538;0.0263;
383.1000;0.1587;0.0478;
383.4000;0.1514;0.0239;
383.7000;0.1547;0.0382;
384.0000;0.1538;0.0335;
384.3000;0.1547;0.0287;
384.6000;0.1555;0.0311;
384.9000;0.1571;0.0406;
385.2000;0.1563;0.0382;
385.5000;0.1538;0.0406;
385.8000;0.1530;0.0430;
386.1000;0.1571;0.0478;
386.4000;0.1555;0.0430;
386.7000;0.1530;0.0311;
387.0000;0.1604;0.0502;
387.3000;0.1530;0.0215;
387.6000;0.1563;0.0287;
387.9000;0.1538;0.0239;
388.2000;0.1547;0.0311;
388.5000;0.1547;0.0382;
388.8000;0.1498;0.0358;
389.1000;0.1538;0.0454;
389.4000;0.1547;0.0502;
389.7000;0.1547;0.0502;
390.0000;0.1538;0.0478;
390.3000;0.1563;0.0550;
390.6000;0.1555;0.0574;
390.9000;0.1538;0.0430;
391.2000;0.1530;0.0263;
391.5000;0.1530;0.0311;
391.8000;0.1538;0.0287;
392.1000;0.1563;0.0335;
392.4000;0.1547;0.0335;
392.7000;0.1555;0.0335;
393.0000;0.1563;0.0382;
393.3000;0.1571;0.0454;
393.6000;0.1547;0.0358;
393.9000;0.1506;0.0287;
394.2000;0.1538;0.0454;
394.5000;0.1547;0.0478;
394.8000;0.1514;0.0335;
395.1000;0.1547;0.0382;
395.4000;0.1587;0.0454;
395.7000;0.1538;0.0311;
396.0000;0.1547;0.0335;
396.3000;0.1490;0.0239;
396.6000;0.1587;0.0478;
396.9000;0.1547;0.0335;
397.2000;0.1530;0.0382;
397.5000;0.1547;0.0311;
397.8000;0.1530;0.0119;
398.1000;0.1547;0.0143;
398.4000;0.1506;0.0096;
398.7000;0.1530;0.0167;
399.0000;0.1538;0.0239;
399.3000;0.1538;0.0287;
399.6000;0.1522;0.0263;
399.9000;0.1555;0.0335;
400.2000;0.1555;0.0406;
400.5000;0.1538;0.0382;
400.8000;0.1563;0.0454;
401.1000;0.1547;0.0382;
401.4000;0.1514;0.0358;
401.7000;0.1563;0.0430;
402.0000;0.1571;0.0478;
402.3000;0.1547;0.0382;
402.6000;0.1571;0.0454;
402.9000;0.1555;0.0430;
403.2000;0.1555;0.0478;
403.5000;0.1555;0.0430;
403.8000;0.1514;0.0311;
404.1000;0.1579;0.0502;
404.4000;0.1538;0.0358;
404.7000;0.1555;0.0406;
405.0000;0.1538;0.0382;
405.3000;0.1530;0.0335;
405.6000;0.1522;0.0287;
405.9000;0.1547;0.0382;
406.2000;0.1538;0.0311;
406.5000;0.1563;0.0454;
406.8000;0.1522;0.0311;
407.1000;0.1538;0.0358;
407.4000;0.1595;0.0406;
407.7000;0.1579;0.0358;
408.0000;0.1547;0.0287;
408.3000;0.1538;0.0287;
408.6000;0.1547;0.0335;
408.9000;0.1587;0.0382;
409.2000;0.1547;0.0287;
409.5000;0.1514;0.0215;
409.8000;0.1563;0.0287;
410.1000;0.1547;0.0311;
410.4000;0.1547;0.0311;
410.7000;0.1538;0.0239;
411.0000;0.1628;0.0430;
411.3000;0.1563;0.0263;
411.6000;0.1579;0.0215;
411.9000;0.1571;0.0287;
412.2000;0.1538;0.0191;
412.5000;0.1555;0.0215;
412.8000;0.1530;0.0096;
413.1000;0.1547;0.0072;
413.4000;0.1547;0.0143;
413.7000;0.1530;0.0143;
414.0000;0.1538;0.0072;
414.3000;0.1530;0.0072;
414.6000;0.1563;0.0072;
414.9000;0.1530;0.0119;
415.2000;0.1547;0.0167;
415.5000;0.1555;0.0215;
415.8000;0.1538;0.0215;
416.1000;0.1563;0.0311;
416.4000;0.1547;0.0239;
416.7000;0.1547;0.0263;
417.0000;0.1538;0.0239;
417.3000;0.1547;0.0239;
417.6000;0.1530;0.0191;
417.9000;0.1555;0.0263;
418.2000;0.1522;0.0191;
418.5000;0.1628;0.0454;
418.8000;0.1547;0.0287;
419.1000;0.1547;0.0382;
419.4000;0.1522;0.0358;
419.7000;0.1514;0.0335;
420.0000;0.1522;0.0287;
420.3000;0.1620;0.0454;
420.6000;0.1514;0.0215;
420.9000;0.1538;0.0406;
421.2000;0.1563;0.0454;
421.5000;0.1571;0.0550;
421.8000;0.1555;0.0526;
422.1000;0.1514;0.0382;
422.4000;0.1547;0.0430;
422.7000;0.1555;0.0430;
423.0000;0.1555;0.0311;
423.3000;0.1506;0.0287;
423.6000;0.1425;0.0119;
423.9000;0.1555;0.0430;
424.2000;0.1587;0.0430;
424.5000;0.1514;0.0287;
424.8000;0.1538;0.0335;
425.1000;0.1522;0.0311;
425.4000;0.1538;0.0335;
425.7000;0.1555;0.0358;
426.0000;0.1538;0.0263;
426.3000;0.1555;0.0263;
426.6000;0.1538;0.0335;
426.9000;0.1530;0.0335;
427.2000;0.1530;0.0311;
427.5000;0.1547;0.0358;
427.8000;0.1530;0.0358;
428.1000;0.1563;0.0502;
428.4000;0.1547;0.0478;
428.7000;0.1563;0.0502;
429.0000;0.1612;0.0717;
429.3000;0.1547;0.0597;
429.6000;0.1530;0.0597;
429.9000;0.1506;0.0550;
430.2000;0.1538;0.0645;
430.5000;0.1563;0.0621;
430.8000;0.1530;0.0550;
431.1000;0.1538;0.0574;
431.4000;0.1547;0.0574;
431.7000;0.1555;0.0550;
432.0000;0.1530;0.0502;
432.3000;0.1522;0.0454;
432.6000;0.1547;0.0526;
432.9000;0.1555;0.0550;
433.2000;0.1563;0.0550;
433.5000;0.1538;0.0502;
433.8000;0.1506;0.0382;
434.1000;0.1538;0.0430;
434.4000;0.1571;0.0478;
434.7000;0.1555;0.0430;
435.0000;0.1538;0.0454;
435.3000;0.1538;0.0430;
435.6000;0.1530;0.0335;
435.9000;0.1522;0.0311;
436.2000;0.1538;0.0263;
436.5000;0.1538;0.0239;
436.8000;0.1547;0.0263;
437.1000;0.1547;0.0215;
437.4000;0.1538;0.0239;
437.7000;0.1530;0.0239;
438.0000;0.1547;0.0239;
438.3000;0.1538;0.0215;
438.6000;0.1538;0.0191;
438.9000;0.1547;0.0191;
439.2000;0.1530;0.0239;
439.5000;0.1538;0.0239;
439.8000;0.1547;0.0335;
440.1000;0.1538;0.0335;
440.4000;0.1538;0.0311;
440.7000;0.1555;0.0358;
441.0000;0.1481;0.0191;
441.3000;0.1538;0.0311;
441.6000;0.1530;0.0263;
441.9000;0.1465;0.0048;
442.2000;0.1538;0.0215;
442.5000;0.1530;0.0191;
442.8000;0.1530;0.0096;
443.1000;0.1547;0.0072;
443.4000;0.1571;0.0167;
443.7000;0.1538;0.0191;
444.0000;0.1547;0.0167;
444.3000;0.1547;0.0311;
444.6000;0.1522;0.0311;
444.9000;0.1571;0.0406;
445.2000;0.1669;0.0597;
445.5000;0.1530;0.0287;
445.8000;0.1538;0.0335;
446.1000;0.1498;0.0215;
446.4000;0.1522;0.0239;
446.7000;0.1498;0.0239;
447.0000;0.1538;0.0335;
447.3000;0.1644;0.0669;
447.6000;0.1522;0.0287;
447.9000;0.1563;0.0406;
448.2000;0.1522;0.0263;
448.5000;0.1563;0.0430;
448.8000;0.1514;0.0311;
449.1000;0.1530;0.0382;
449.4000;0.1538;0.0430;
449.7000;0.1555;0.0406;
450.0000;0.1506;0.0287;
450.3000;0.1530;0.0430;
450.6000;0.1555;0.0550;
450.9000;0.1538;0.0502;
451.2000;0.1514;0.0550;
451.5000;0.1538;0.0597;
451.8000;0.1530;0.0597;
452.1000;0.1538;0.0550;
452.4000;0.1538;0.0574;
452.7000;0.1547;0.0526;
453.0000;0.1522;0.0430;
453.3000;0.1522;0.0382;
453.6000;0.1604;0.0550;
453.9000;0.1514;0.0311;
454.2000;0.1514;0.0263;
454.5000;0.1538;0.0287;
454.8000;0.1547;0.0263;
455.1000;0.1555;0.0263;
455.4000;0.1538;0.0263;
455.7000;0.1563;0.0335;
456.0000;0.1538;0.0358;
456.3000;0.1555;0.0430;
456.6000;0.1514;0.0239;
456.9000;0.1481;0.0119;
457.2000;0.1555;0.0454;
457.5000;0.1538;0.0430;
457.8000;0.1522;0.0263;
458.1000;0.1538;0.0263;
458.4000;0.1538;0.0358;
458.7000;0.1538;0.0406;
459.0000;0.1555;0.0382;
459.3000;0.1522;0.0263;
459.6000;0.1547;0.0358;
459.9000;0.1547;0.0502;
460.2000;0.1522;0.0550;
460.5000;0.1538;0.0526;
460.8000;0.1530;0.0550;
461.1000;0.1547;0.0645;
461.4000;0.1563;0.0645;
461.7000;0.1563;0.0597;
462.0000;0.1547;0.0574;
462.3000;0.1563;0.0526;
462.6000;0.1563;0.0526;
462.9000;0.1530;0.0502;
463.2000;0.1522;0.0478;
463.5000;0.1522;0.0430;
463.8000;0.1538;0.0358;
464.1000;0.1555;0.0478;
464.4000;0.1538;0.0478;
464.7000;0.1587;0.0574;
465.0000;0.1530;0.0502;
465.3000;0.1538;0.0621;
465.6000;0.1571;0.0693;
465.9000;0.1538;0.0597;
466.2000;0.1530;0.0597;
466.5000;0.1522;0.0526;
466.8000;0.1563;0.0597;
467.1000;0.1555;0.0526;
467.4000;0.1530;0.0454;
467.7000;0.1612;0.0550;
468.0000;0.1555;0.0430;
468.3000;0.1547;0.0406;
468.6000;0.1514;0.0358;
468.9000;0.1522;0.0382;
469.2000;0.1530;0.0454;
469.5000;0.1547;0.0502;
469.8000;0.1522;0.0478;
470.1000;0.1530;0.0454;
470.4000;0.1530;0.0478;
470.7000;0.1530;0.0478;
471.0000;0.1538;0.0382;
471.3000;0.1538;0.0311;
471.6000;0.1498;0.0239;
471.9000;0.1538;0.0406;
472.2000;0.1498;0.0311;
472.5000;0.1555;0.0478;
472.8000;0.1547;0.0454;
473.1000;0.1563;0.0502;
473.4000;0.1547;0.0478;
473.7000;0.1514;0.0478;
474.0000;0.1514;0.0478;
474.3000;0.1538;0.0478;
474.6000;0.1547;0.0526;
474.9000;0.1547;0.0478;
475.2000;0.1530;0.0430;
475.5000;0.1530;0.0454;
475.8000;0.1530;0.0406;
476.1000;0.1522;0.0335;
476.4000;0.1538;0.0430;
476.7000;0.1522;0.0358;
477.0000;0.1522;0.0406;
477.3000;0.1530;0.0502;
477.6000;0.1547;0.0526;
477.9000;0.1530;0.0621;
478.2000;0.1555;0.0526;
478.5000;0.1538;0.0478;
478.8000;0.1579;0.0526;
479.1000;0.1530;0.0335;
479.4000;0.1571;0.0454;
479.7000;0.1563;0.0478;
480.0000;0.1538;0.0430;
480.3000;0.1514;0.0358;
480.6000;0.1522;0.0382;
480.9000;0.1547;0.0478;
481.2000;0.1522;0.0430;
481.5000;0.1506;0.0382;
481.8000;0.1522;0.0478;
482.1000;0.1538;0.0574;
482.4000;0.1538;0.0597;
482.7000;0.1547;0.0669;
483.0000;0.1514;0.0526;
483.3000;0.1538;0.0621;
483.6000;0.1555;0.0574;
483.9000;0.1538;0.0478;
484.2000;0.1498;0.0430;
484.5000;0.1547;0.0597;
484.8000;0.1538;0.0597;
485.1000;0.1522;0.0478;
485.4000;0.1555;0.0550;
485.7000;0.1563;0.0526;
486.0000;0.1514;0.0430;
486.3000;0.1547;0.0502;
486.6000;0.1522;0.0430;
486.9000;0.1547;0.0430;
487.2000;0.1522;0.0382;
487.5000;0.1538;0.0406;
487.8000;0.1547;0.0430;
488.1000;0.1547;0.0335;
488.4000;0.1579;0.0382;
488.7000;0.1547;0.0263;
489.0000;0.1538;0.0311;
489.3000;0.1547;0.0406;
489.6000;0.1612;0.0597;
489.9000;0.1538;0.0406;
490.2000;0.1538;0.0382;
490.5000;0.1604;0.0597;
490.8000;0.1514;0.0454;
491.1000;0.1547;0.0478;
491.4000;0.1506;0.0335;
491.7000;0.1538;0.0478;
492.0000;0.1530;0.0526;
492.3000;0.1555;0.0574;
492.6000;0.1538;0.0526;
492.9000;0.1538;0.0550;
493.2000;0.1547;0.0574;
493.5000;0.1522;0.0478;
493.8000;0.1506;0.0430;
494.1000;0.1538;0.0502;
494.4000;0.1538;0.0478;
494.7000;0.1530;0.0478;
495.0000;0.1522;0.0550;
495.3000;0.1530;0.0526;
495.6000;0.1547;0.0454;
495.9000;0.1530;0.0406;
496.2000;0.1530;0.0454;
496.5000;0.1538;0.0406;
496.8000;0.1547;0.0478;
497.1000;0.1563;0.0478;
497.4000;0.1555;0.0406;
497.7000;0.1555;0.0382;
498.0000;0.1538;0.0335;
498.3000;0.1547;0.0358;
498.6000;0.1547;0.0382;
498.9000;0.1547;0.0406;
499.2000;0.1555;0.0358;
499.5000;0.1481;0.0048;
499.8000;0.1555;0.0239;
500.1000;0.1547;0.0263;
500.4000;0.1530;0.0239;
500.7000;0.1547;0.0358;
501.0000;0.1636;0.0717;
501.3000;0.1547;0.0430;
501.6000;0.1571;0.0526;
501.9000;0.1538;0.0478;
502.2000;0.1555;0.0454;
502.5000;0.1522;0.0287;
502.8000;0.1547;0.0382;
503.1000;0.1547;0.0335;
503.4000;0.1530;0.0287;
503.7000;0.1612;0.0550;
504.0000;0.1587;0.0574;
504.3000;0.1538;0.0382;
504.6000;0.1473;0.0239;
504.9000;0.1547;0.0454;
505.2000;0.1595;0.0454;
505.5000;0.1555;0.0382;
505.8000;0.1530;0.0263;
506.1000;0.1522;0.0311;
506.4000;0.1547;0.0335;
506.7000;0.1547;0.0406;
507.0000;0.1538;0.0382;
507.3000;0.1538;0.0382;
507.6000;0.1547;0.0382;
507.9000;0.1538;0.0382;
508.2000;0.1547;0.0478;
508.5000;0.1538;0.0430;
508.8000;0.1571;0.0454;
509.1000;0.1555;0.0382;
509.4000;0.1538;0.0335;
509.7000;0.1538;0.0287;
510.0000;0.1538;0.0263;
510.3000;0.1522;0.0335;
510.6000;0.1490;0.0239;
510.9000;0.1522;0.0311;
511.2000;0.1490;0.0239;
511.5000;0.1547;0.0430;
511.8000;0.1538;0.0478;
512.1000;0.1530;0.0430;
512.4000;0.1522;0.0287;
512.7000;0.1538;0.0311;
513.0000;0.1522;0.0287;
513.3000;0.1530;0.0311;
513.6000;0.1522;0.0263;
513.9000;0.1547;0.0263;
514.2000;0.1563;0.0335;
514.5000;0.1490;0.0096;
514.8000;0.1555;0.0358;
515.1000;0.1555;0.0287;
515.4000;0.1563;0.0287;
515.7000;0.1563;0.0263;
516.0000;0.1473;-0.0048;
516.3000;0.1669;0.0430;
516.6000;0.1555;0.0096;
516.9000;0.1530;0.0143;
517.2000;0.1587;0.0239;
517.5000;0.1538;0.0167;
517.8000;0.1669;0.0574;
518.1000;0.1530;0.0239;
518.4000;0.1547;0.0239;
518.7000;0.1538;0.0239;
519.0000;0.1530;0.0239;
519.3000;0.1547;0.0263;
519.6000;0.1555;0.0263;
519.9000;0.1547;0.0287;
520.2000;0.1522;0.0311;
520.5000;0.1538;0.0430;
520.8000;0.1547;0.0454;
521.1000;0.1555;0.0358;
521.4000;0.1547;0.0335;
521.7000;0.1538;0.0335;
522.0000;0.1547;0.0263;
522.3000;0.1604;0.0430;
522.6000;0.1538;0.0167;
522.9000;0.1555;0.0096;
523.2000;0.1547;0.0024;
523.5000;0.1547;-0.0024;
523.8000;0.1530;0.0000;
524.1000;0.1555;0.0048;
524.4000;0.1522;0.0024;
524.7000;0.1547;0.0072;
525.0000;0.1547;0.0167;
525.3000;0.1506;0.0000;
525.6000;0.1563;0.0096;
525.9000;0.1547;0.0000;
526.2000;0.1563;0.0048;
526.5000;0.1538;-0.0024;
526.8000;0.1538;0.0000;
527.1000;0.1514;-0.0048;
527.4000;0.1538;0.0000;
527.7000;0.1514;-0.0024;
528.0000;0.1514;0.0048;
528.3000;0.1530;0.0024;
528.6000;0.1530;0.0096;
528.9000;0.1547;0.0143;
529.2000;0.1530;0.0000;
529.5000;0.1538;0.0143;
529.8000;0.1538;0.0119;
530.1000;0.1571;0.0167;
530.4000;0.1555;0.0215;
530.7000;0.1522;0.0167;
531.0000;0.1538;0.0239;
531.3000;0.1530;0.0215;
531.6000;0.1555;0.0287;
531.9000;0.1547;0.0263;
532.2000;0.1563;0.0311;
532.5000;0.1555;0.0287;
532.8000;0.1530;0.0239;
533.1000;0.1530;0.0239;
533.4000;0.1538;0.0215;
533.7000;0.1547;0.0311;
534.0000;0.1530;0.0215;
534.3000;0.1522;0.0263;
534.6000;0.1555;0.0358;
534.9000;0.1538;0.0263;
535.2000;0.1538;0.0239;
535.5000;0.1433;-0.0119;
535.8000;0.1547;0.0143;
536.1000;0.1481;0.0024;
536.4000;0.1522;0.0191;
536.7000;0.1652;0.0502;
537.0000;0.1555;0.0239;
537.3000;0.1538;0.0263;
537.6000;0.1547;0.0239;
537.9000;0.1547;0.0335;
538.2000;0.1547;0.0335;
538.5000;0.1522;0.0311;
538.8000;0.1538;0.0358;
539.1000;0.1522;0.0143;
539.4000;0.1538;0.0072;
539.7000;0.1547;0.0024;
540.0000;0.1514;-0.0072;
540.3000;0.1490;-0.0143;
540.6000;0.1579;0.0143;
540.9000;0.1555;0.0000;
541.2000;0.1547;0.0096;
541.5000;0.1555;0.0167;
541.8000;0.1498;0.0000;
542.1000;0.1538;0.0072;
542.4000;0.1563;0.0143;
542.7000;0.1530;0.0096;
543.0000;0.1530;0.0143;
543.3000;0.1425;-0.0167;
543.6000;0.1547;0.0072;
543.9000;0.1473;-0.0143;
544.2000;0.1522;-0.0072;
544.5000;0.1522;-0.0024;
544.8000;0.1530;-0.0024;
545.1000;0.1538;0.0119;
545.4000;0.1514;0.0143;
545.7000;0.1530;0.0287;
546.0000;0.1490;0.0119;
546.3000;0.1506;0.0263;
546.6000;0.1595;0.0382;
546.9000;0.1620;0.0526;
547.2000;0.1530;0.0263;
547.5000;0.1514;0.0119;
547.8000;0.1530;0.0167;
548.1000;0.1547;0.0119;
548.4000;0.1538;0.0096;
548.7000;0.1530;0.0119;
549.0000;0.1547;0.0119;
549.3000;0.1563;0.0167;
549.6000;0.1530;0.0143;
549.9000;0.1538;0.0215;
550.2000;0.1563;0.0335;
550.5000;0.1612;0.0502;
550.8000;0.1538;0.0335;
551.1000;0.1555;0.0382;
551.4000;0.1547;0.0382;
551.7000;0.1538;0.0335;
552.0000;0.1563;0.0358;
552.3000;0.1538;0.0358;
552.6000;0.1522;0.0311;
552.9000;0.1538;0.0382;
553.2000;0.1538;0.0478;
553.5000;0.1530;0.0454;
553.8000;0.1563;0.0550;
554.1000;0.1514;0.0358;
554.4000;0.1547;0.0526;
554.7000;0.1530;0.0430;
555.0000;0.1604;0.0550;
555.3000;0.1530;0.0382;
555.6000;0.1547;0.0406;
555.9000;0.1449;0.0048;
556.2000;0.1538;0.0263;
556.5000;0.1538;0.0239;
556.8000;0.1538;0.0191;
557.1000;0.1538;0.0263;
557.4000;0.1538;0.0311;
557.7000;0.1555;0.0263;
558.0000;0.1522;0.0191;
558.3000;0.1547;0.0382;
558.6000;0.1563;0.0430;
558.9000;0.1514;0.0358;
559.2000;0.1547;0.0430;
559.5000;0.1538;0.0430;
559.8000;0.1547;0.0454;
560.1000;0.1538;0.0406;
560.4000;0.1538;0.0311;
560.7000;0.1547;0.0311;
561.0000;0.1538;0.0287;
561.3000;0.1530;0.0239;
561.6000;0.1579;0.0406;
561.9000;0.1522;0.0263;
562.2000;0.1563;0.0382;
562.5000;0.1530;0.0335;
562.8000;0.1538;0.0335;
563.1000;0.1547;0.0406;
563.4000;0.1538;0.0430;
563.7000;0.1538;0.0430;
564.0000;0.1547;0.0502;
564.3000;0.1571;0.0621;
564.6000;0.1441;0.0239;
564.9000;0.1547;0.0454;
565.2000;0.1579;0.0574;
565.5000;0.1547;0.0406;
565.8000;0.1538;0.0478;
566.1000;0.1595;0.0693;
566.4000;0.1506;0.0430;
566.7000;0.1547;0.0526;
567.0000;0.1522;0.0454;
567.3000;0.1547;0.0454;
567.6000;0.1538;0.0454;
567.9000;0.1498;0.0311;
568.2000;0.1538;0.0502;
568.5000;0.1555;0.0550;
568.8000;0.1579;0.0621;
569.1000;0.1530;0.0550;
569.4000;0.1538;0.0550;
569.7000;0.1547;0.0526;
570.0000;0.1538;0.0430;
570.3000;0.1555;0.0406;
570.6000;0.1555;0.0311;
570.9000;0.1530;0.0239;
571.2000;0.1522;0.0239;
571.5000;0.1490;0.0119;
571.8000;0.1547;0.0382;
572.1000;0.1530;0.0335;
572.4000;0.1555;0.0430;
572.7000;0.1555;0.0478;
573.0000;0.1481;0.0382;
573.3000;0.1555;0.0502;
573.6000;0.1563;0.0574;
573.9000;0.1587;0.0502;
574.2000;0.1555;0.0406;
574.5000;0.1498;0.0143;
574.8000;0.1530;0.0263;
575.1000;0.1547;0.0287;
575.4000;0.1538;0.0382;
575.7000;0.1555;0.0454;
576.0000;0.1522;0.0382;
576.3000;0.1555;0.0382;
576.6000;0.1555;0.0311;
576.9000;0.1644;0.0454;
577.2000;0.1530;0.0191;
577.5000;0.1571;0.0263;
577.8000;0.1530;0.0167;
578.1000;0.1644;0.0478;
578.4000;0.1538;0.0143;
578.7000;0.1563;0.0167;
579.0000;0.1530;0.0096;
579.3000;0.1538;0.0191;
579.6000;0.1538;0.0215;
579.9000;0.1563;0.0287;
580.2000;0.1425;-0.0024;
580.5000;0.1522;0.0335;
580.8000;0.1563;0.0406;
581.1000;0.1555;0.0287;
581.4000;0.1522;0.0167;
581.7000;0.1530;0.0239;
582.0000;0.1604;0.0382;
582.3000;0.1538;0.0191;
582.6000;0.1530;0.0167;
582.9000;0.1547;0.0143;
583.2000;0.1481;-0.0072;
583.5000;0.1481;-0.0072;
583.8000;0.1538;0.0072;
584.1000;0.1563;0.0167;
584.4000;0.1587;0.0143;
584.7000;0.1538;0.0072;
585.0000;0.1538;0.0096;
585.3000;0.1547;0.0048;
585.6000;0.1587;0.0215;
585.9000;0.1530;0.0000;
586.2000;0.1538;0.0024;
586.5000;0.1538;0.0000;
586.8000;0.1530;0.0072;
587.1000;0.1636;0.0430;
587.4000;0.1547;0.0191;
587.7000;0.1547;0.0239;
588.0000;0.1563;0.0263;
588.3000;0.1538;0.0215;
588.6000;0.1547;0.0191;
588.9000;0.1547;0.0167;
589.2000;0.1555;0.0263;
589.5000;0.1563;0.0263;
589.8000;0.1522;0.0143;
590.1000;0.1522;0.0072;
590.4000;0.1563;0.0239;
590.7000;0.1538;0.0119;
591.0000;0.1530;0.0143;
591.3000;0.1547;0.0143;
591.6000;0.1538;0.0143;
591.9000;0.1530;0.0119;
592.2000;0.1555;0.0167;
592.5000;0.1530;0.0143;
592.8000;0.1555;0.0263;
593.1000;0.1522;0.0191;
593.4000;0.1465;0.0096;
593.7000;0.1538;0.0239;
594.0000;0.1530;0.0239;
594.3000;0.1547;0.0311;
594.6000;0.1522;0.0263;
594.9000;0.1604;0.0382;
595.2000;0.1538;0.0167;
595.5000;0.1538;0.0215;
595.8000;0.1547;0.0311;
596.1000;0.1555;0.0335;
596.4000;0.1538;0.0311;
596.7000;0.1522;0.0239;
597.0000;0.1571;0.0287;
597.3000;0.1538;0.0287;
597.6000;0.1563;0.0287;
597.9000;0.1579;0.0287;
598.2000;0.1538;0.0215;
598.5000;0.1522;0.0191;
598.8000;0.1530;0.0143;
599.1000;0.1522;0.0096;
599.4000;0.1547;0.0215;
599.7000;0.1530;0.0239;
600.0000;0.1522;0.0167;
600.3000;0.1522;0.0096;
600.6000;0.1555;0.0143;
600.9000;0.1506;-0.0048;
601.2000;0.1538;0.0096;
601.5000;0.1538;-0.0024;
601.8000;0.1530;-0.0119;
602.1000;0.1555;-0.0119;
602.4000;0.1522;-0.0239;
602.7000;0.1547;-0.0215;
603.0000;0.1563;-0.0239;
603.3000;0.1555;-0.0430;
603.6000;0.1547;-0.0550;
603.9000;0.1514;-0.0645;
604.2000;0.1547;-0.0597;
604.5000;0.1530;-0.0741;
604.8000;0.1530;-0.0741;
605.1000;0.1514;-0.0741;
605.4000;0.1490;-0.0812;
605.7000;0.1530;-0.0717;
606.0000;0.1530;-0.0836;
606.3000;0.1522;-0.0860;
606.6000;0.1555;-0.0765;
606.9000;0.1514;-0.0836;
607.2000;0.1579;-0.0669;
607.5000;0.1400;-0.1195;
607.8000;0.1514;-0.0884;
608.1000;0.1555;-0.0789;
608.4000;0.1449;-0.1051;
608.7000;0.1506;-0.0932;
609.0000;0.1498;-0.1004;
609.3000;0.1490;-0.1028;
609.6000;0.1506;-0.0956;
609.9000;0.1490;-0.1028;
610.2000;0.1514;-0.0956;
610.5000;0.1490;-0.0956;
610.8000;0.1563;-0.0789;
611.1000;0.1506;-0.1028;
611.4000;0.1514;-0.0980;
611.7000;0.1490;-0.1075;
612.0000;0.1384;-0.1410;
612.3000;0.1506;-0.1123;
612.6000;0.1522;-0.1028;
612.9000;0.1506;-0.1099;
613.2000;0.1465;-0.1171;
613.5000;0.1514;-0.1099;
613.8000;0.1498;-0.1123;
614.1000;0.1506;-0.1147;
614.4000;0.1506;-0.1195;
614.7000;0.1506;-0.1266;
615.0000;0.1498;-0.1266;
615.3000;0.1490;-0.1243;
615.6000;0.1514;-0.1219;
615.9000;0.1506;-0.1219;
616.2000;0.1506;-0.1290;
616.5000;0.1473;-0.1314;
616.8000;0.1563;-0.1147;
617.1000;0.1506;-0.1243;
617.4000;0.1425;-0.1529;
617.7000;0.1644;-0.1004;
618.0000;0.1514;-0.1362;
618.3000;0.1498;-0.1362;
618.6000;0.1547;-0.1171;
618.9000;0.1579;-0.1099;
619.2000;0.1473;-0.1362;
619.5000;0.1538;-0.1195;
619.8000;0.1425;-0.1505;
620.1000;0.1490;-0.1290;
620.4000;0.1547;-0.1147;
620.7000;0.1506;-0.1338;
621.0000;0.1481;-0.1410;
621.3000;0.1522;-0.1290;
621.6000;0.1530;-0.1266;
621.9000;0.1506;-0.1243;
622.2000;0.1498;-0.1219;
622.5000;0.1506;-0.1099;
622.8000;0.1506;-0.1075;
623.1000;0.1514;-0.1028;
623.4000;0.1490;-0.1051;
623.7000;0.1506;-0.0956;
624.0000;0.1514;-0.0932;
624.3000;0.1490;-0.0980;
624.6000;0.1490;-0.1028;
624.9000;0.1481;-0.0980;
625.2000;0.1506;-0.0980;
625.5000;0.1498;-0.0980;
625.8000;0.1490;-0.1004;
626.1000;0.1481;-0.1075;
626.4000;0.1506;-0.1051;
626.7000;0.1490;-0.1051;
627.0000;0.1506;-0.1028;
627.3000;0.1506;-0.1028;
627.6000;0.1498;-0.1099;
627.9000;0.1522;-0.1075;
628.2000;0.1490;-0.1123;
628.5000;0.1506;-0.1051;
628.8000;0.1498;-0.1051;
629.1000;0.1498;-0.1075;
629.4000;0.1514;-0.1028;
629.7000;0.1514;-0.1004;
630.0000;0.1473;-0.1123;
630.3000;0.1506;-0.1028;
630.6000;0.1506;-0.0980;
630.9000;0.1490;-0.1075;
631.2000;0.1555;-0.0765;
631.5000;0.1384;-0.1243;
631.8000;0.1465;-0.1051;
632.1000;0.1498;-0.0980;
632.4000;0.1465;-0.1051;
632.7000;0.1473;-0.1123;
633.0000;0.1498;-0.0980;
633.3000;0.1473;-0.1028;
633.6000;0.1506;-0.0956;
633.9000;0.1506;-0.1051;
634.2000;0.1538;-0.0932;
634.5000;0.1490;-0.1028;
634.8000;0.1506;-0.0956;
635.1000;0.1490;-0.1028;
635.4000;0.1473;-0.1028;
635.7000;0.1595;-0.0669;
636.0000;0.1506;-0.0932;
636.3000;0.1481;-0.0932;
636.6000;0.1481;-0.0980;
636.9000;0.1506;-0.1004;
637.2000;0.1465;-0.1123;
637.5000;0.1481;-0.1075;
637.8000;0.1506;-0.1028;
638.1000;0.1506;-0.1028;
638.4000;0.1490;-0.1028;
638.7000;0.1473;-0.1075;
639.0000;0.1506;-0.1004;
639.3000;0.1522;-0.1099;
639.6000;0.1506;-0.1195;
639.9000;0.1498;-0.1171;
640.2000;0.1506;-0.1147;
640.5000;0.1514;-0.1171;
640.8000;0.1473;-0.1171;
641.1000;0.1514;-0.1099;
641.4000;0.1490;-0.1028;
641.7000;0.1473;-0.1147;
642.0000;0.1498;-0.1028;
642.3000;0.1498;-0.1075;
642.6000;0.1490;-0.1051;
642.9000;0.1490;-0.0956;
643.2000;0.1522;-0.0932;
643.5000;0.1506;-0.1028;
643.8000;0.1441;-0.1147;
644.1000;0.1506;-0.1004;
644.4000;0.1563;-0.0812;
644.7000;0.1465;-0.1099;
645.0000;0.1490;-0.1028;
645.3000;0.1490;-0.0932;
645.6000;0.1376;-0.1171;
645.9000;0.1490;-0.0860;
646.2000;0.1514;-0.0836;
646.5000;0.1433;-0.1051;
646.8000;0.1490;-0.0884;
647.1000;0.1538;-0.0812;
647.4000;0.1498;-0.0908;
647.7000;0.1490;-0.0980;
648.0000;0.1457;-0.1075;
648.3000;0.1498;-0.1028;
648.6000;0.1522;-0.1004;
648.9000;0.1514;-0.0980;
649.2000;0.1465;-0.1028;
649.5000;0.1506;-0.0932;
649.8000;0.1481;-0.1051;
650.1000;0.1547;-0.0812;
650.4000;0.1481;-0.0980;
650.7000;0.1481;-0.0980;
651.0000;0.1514;-0.0908;
651.3000;0.1490;-0.1099;
651.6000;0.1473;-0.1147;
651.9000;0.1498;-0.1075;
652.2000;0.1490;-0.1099;
652.5000;0.1481;-0.1171;
652.8000;0.1514;-0.1051;
653.1000;0.1514;-0.1075;
653.4000;0.1498;-0.1075;
653.7000;0.1449;-0.1195;
654.0000;0.1498;-0.1075;
654.3000;0.1498;-0.1123;
654.6000;0.1473;-0.1219;
654.9000;0.1498;-0.1075;
655.2000;0.1563;-0.0932;
655.5000;0.1359;-0.1529;
655.8000;0.1522;-0.1147;
656.1000;0.1425;-0.1410;
656.4000;0.1498;-0.1243;
656.7000;0.1514;-0.1266;
657.0000;0.1506;-0.1243;
657.3000;0.1433;-0.1314;
657.6000;0.1555;-0.1051;
657.9000;0.1506;-0.1219;
658.2000;0.1490;-0.1219;
658.5000;0.1481;-0.1123;
658.8000;0.1506;-0.1147;
659.1000;0.1490;-0.1195;
659.4000;0.1506;-0.1219;
659.7000;0.1498;-0.1219;
660.0000;0.1530;-0.1195;
660.3000;0.1514;-0.1195;
660.6000;0.1522;-0.1123;
660.9000;0.1490;-0.1171;
661.2000;0.1522;-0.1171;
661.5000;0.1490;-0.1195;
661.8000;0.1522;-0.1123;
662.1000;0.1514;-0.1147;
662.4000;0.1514;-0.1171;
662.7000;0.1490;-0.1171;
663.0000;0.1490;-0.1195;
663.3000;0.1506;-0.1171;
663.6000;0.1449;-0.1243;
663.9000;0.1498;-0.1099;
664.2000;0.1506;-0.1075;
664.5000;0.1506;-0.1004;
664.8000;0.1506;-0.1075;
665.1000;0.1522;-0.1004;
665.4000;0.1465;-0.1171;
665.7000;0.1514;-0.1051;
666.0000;0.1498;-0.1099;
666.3000;0.1498;-0.1147;
666.6000;0.1481;-0.1219;
666.9000;0.1514;-0.1147;
667.2000;0.1522;-0.1171;
667.5000;0.1506;-0.1219;
667.8000;0.1481;-0.1195;
668.1000;0.1506;-0.1219;
668.4000;0.1538;-0.1123;
668.7000;0.1490;-0.1314;
669.0000;0.1498;-0.1314;
669.3000;0.1514;-0.1243;
669.6000;0.1481;-0.1290;
669.9000;0.1490;-0.1243;
670.2000;0.1514;-0.1195;
670.5000;0.1506;-0.1171;
670.8000;0.1498;-0.1123;
671.1000;0.1498;-0.1219;
671.4000;0.1498;-0.1147;
671.7000;0.1481;-0.1266;
672.0000;0.1514;-0.1219;
672.3000;0.1481;-0.1219;
672.6000;0.1498;-0.1028;
672.9000;0.1490;-0.1075;
673.2000;0.1481;-0.1099;
673.5000;0.1530;-0.1004;
673.8000;0.1538;-0.0956;
674.1000;0.1547;-0.0932;
674.4000;0.1498;-0.0908;
674.7000;0.1498;-0.0932;
675.0000;0.1498;-0.0908;
675.3000;0.1498;-0.0956;
675.6000;0.1522;-0.0932;
675.9000;0.1522;-0.0908;
676.2000;0.1522;-0.0956;
676.5000;0.1498;-0.1051;
676.8000;0.1465;-0.1195;
677.1000;0.1481;-0.1099;
677.4000;0.1498;-0.1099;
677.7000;0.1473;-0.1123;
678.0000;0.1498;-0.1051;
678.3000;0.1506;-0.1004;
678.6000;0.1514;-0.0932;
678.9000;0.1506;-0.0932;
679.2000;0.1481;-0.0908;
679.5000;0.1433;-0.1051;
679.8000;0.1498;-0.0789;
680.1000;0.1498;-0.0836;
680.4000;0.1514;-0.0884;
680.7000;0.1514;-0.0908;
681.0000;0.1514;-0.0932;
681.3000;0.1490;-0.1028;
681.6000;0.1498;-0.1051;
681.9000;0.1498;-0.0956;
682.2000;0.1498;-0.0980;
682.5000;0.1490;-0.1051;
682.8000;0.1514;-0.0980;
683.1000;0.1481;-0.1028;
683.4000;0.1498;-0.0908;
683.7000;0.1555;-0.0693;
684.0000;0.1506;-0.0789;
684.3000;0.1498;-0.0836;
684.6000;0.1490;-0.1004;
684.9000;0.1506;-0.0956;
685.2000;0.1490;-0.1028;
685.5000;0.1481;-0.0980;
685.8000;0.1498;-0.0980;
686.1000;0.1506;-0.0956;
686.4000;0.1498;-0.1004;
686.7000;0.1481;-0.1075;
687.0000;0.1571;-0.0812;
687.3000;0.1498;-0.1099;
687.6000;0.1490;-0.1099;
687.9000;0.1481;-0.1099;
688.2000;0.1506;-0.1051;
688.5000;0.1547;-0.0884;
688.8000;0.1514;-0.0980;
689.1000;0.1490;-0.1051;
689.4000;0.1481;-0.1004;
689.7000;0.1506;-0.1004;
690.0000;0.1506;-0.1099;
690.3000;0.1514;-0.1171;
690.6000;0.1465;-0.1243;
690.9000;0.1490;-0.1123;
691.2000;0.1522;-0.1075;
691.5000;0.1506;-0.1147;
691.8000;0.1490;-0.1147;
692.1000;0.1514;-0.1051;
692.4000;0.1514;-0.1051;
692.7000;0.1563;-0.0908;
693.0000;0.1473;-0.1243;
693.3000;0.1538;-0.1099;
693.6000;0.1506;-0.1290;
693.9000;0.1522;-0.1195;
694.2000;0.1490;-0.1219;
694.5000;0.1498;-0.1219;
694.8000;0.1506;-0.1266;
695.1000;0.1506;-0.1243;
695.4000;0.1490;-0.1290;
695.7000;0.1490;-0.1290;
696.0000;0.1530;-0.1147;
696.3000;0.1490;-0.1314;
696.6000;0.1481;-0.1243;
696.9000;0.1498;-0.1243;
697.2000;0.1490;-0.1243;
697.5000;0.1465;-0.1362;
697.8000;0.1498;-0.1243;
698.1000;0.1481;-0.1266;
698.4000;0.1490;-0.1219;
698.7000;0.1498;-0.1243;
699.0000;0.1506;-0.1243;
699.3000;0.1490;-0.1338;
699.6000;0.1490;-0.1266;
699.9000;0.1473;-0.1266;
700.2000;0.1481;-0.1266;
700.5000;0.1490;-0.1243;
700.8000;0.1457;-0.1386;
701.1000;0.1490;-0.1290;
701.4000;0.1498;-0.1219;
701.7000;0.1490;-0.1147;
702.0000;0.1441;-0.1290;
702.3000;0.1498;-0.1147;
702.6000;0.1514;-0.1195;
702.9000;0.1498;-0.1266;
703.2000;0.1522;-0.1123;
703.5000;0.1506;-0.1171;
703.8000;0.1636;-0.0836;
704.1000;0.1506;-0.1219;
704.4000;0.1514;-0.1219;
704.7000;0.1506;-0.1314;
705.0000;0.1547;-0.1147;
705.3000;0.1514;-0.1290;
705.6000;0.1481;-0.1314;
705.9000;0.1490;-0.1338;
706.2000;0.1473;-0.1314;
706.5000;0.1441;-0.1362;
706.8000;0.1490;-0.1219;
707.1000;0.1587;-0.0932;
707.4000;0.1481;-0.1123;
707.7000;0.1490;-0.1147;
708.0000;0.1498;-0.1028;
708.3000;0.1498;-0.1004;
708.6000;0.1506;-0.0980;
708.9000;0.1506;-0.1004;
709.2000;0.1498;-0.0956;
709.5000;0.1473;-0.1028;
709.8000;0.1498;-0.1028;
710.1000;0.1506;-0.0980;
710.4000;0.1490;-0.0932;
710.7000;0.1522;-0.0980;
711.0000;0.1498;-0.1004;
711.3000;0.1481;-0.0980;
711.6000;0.1506;-0.0932;
711.9000;0.1490;-0.0980;
712.2000;0.1490;-0.1075;
712.5000;0.1547;-0.0956;
712.8000;0.1514;-0.1004;
713.1000;0.1506;-0.1051;
713.4000;0.1457;-0.1147;
713.7000;0.1425;-0.1195;
714.0000;0.1473;-0.1075;
714.3000;0.1514;-0.1004;
714.6000;0.1490;-0.1075;
714.9000;0.1408;-0.1338;
715.2000;0.1514;-0.1099;
715.5000;0.1506;-0.1171;
715.8000;0.1506;-0.1075;
716.1000;0.1465;-0.1075;
716.4000;0.1465;-0.1099;
716.7000;0.1473;-0.0956;
717.0000;0.1498;-0.0884;
717.3000;0.1530;-0.0812;
717.6000;0.1481;-0.0980;
717.9000;0.1498;-0.0908;
718.2000;0.1490;-0.0932;
718.5000;0.1490;-0.0956;
718.8000;0.1498;-0.0908;
719.1000;0.1498;-0.0956;
719.4000;0.1506;-0.1004;
719.7000;0.1506;-0.1004;
720.0000;0.1490;-0.1051;
720.3000;0.1498;-0.1075;
720.6000;0.1498;-0.1147;
720.9000;0.1514;-0.1147;
721.2000;0.1498;-0.1171;
721.5000;0.1506;-0.1147;
721.8000;0.1514;-0.1123;
722.1000;0.1514;-0.1171;
722.4000;0.1481;-0.1195;
722.7000;0.1490;-0.1290;
723.0000;0.1490;-0.1219;
723.3000;0.1490;-0.1219;
723.6000;0.1547;-0.1075;
723.9000;0.1514;-0.1075;
724.2000;0.1481;-0.1123;
724.5000;0.1490;-0.1051;
724.8000;0.1498;-0.1004;
725.1000;0.1506;-0.1051;
725.4000;0.1522;-0.0956;
725.7000;0.1425;-0.1195;
726.0000;0.1498;-0.1004;
726.3000;0.1498;-0.0884;
726.6000;0.1457;-0.1028;
726.9000;0.1530;-0.0765;
727.2000;0.1538;-0.0812;
727.5000;0.1498;-0.0860;
727.8000;0.1498;-0.0956;
728.1000;0.1522;-0.0836;
728.4000;0.1506;-0.0884;
728.7000;0.1254;-0.1601;
729.0000;0.1506;-0.1004;
729.3000;0.1538;-0.0932;
729.6000;0.1538;-0.0836;
729.9000;0.1579;-0.0717;
730.2000;0.1498;-0.0932;
730.5000;0.1490;-0.1028;
730.8000;0.1490;-0.1028;
731.1000;0.1481;-0.1051;
731.4000;0.1530;-0.0932;
731.7000;0.1490;-0.1075;
732.0000;0.1481;-0.1075;
732.3000;0.1514;-0.1051;
732.6000;0.1522;-0.1051;
732.9000;0.1522;-0.1051;
733.2000;0.1514;-0.1051;
733.5000;0.1498;-0.1147;
733.8000;0.1514;-0.1266;
734.1000;0.1514;-0.1195;
734.4000;0.1506;-0.1075;
734.7000;0.1473;-0.1099;
735.0000;0.1490;-0.1028;
735.3000;0.1506;-0.0932;
735.6000;0.1498;-0.0908;
735.9000;0.1506;-0.0860;
736.2000;0.1473;-0.0884;
736.5000;0.1490;-0.0956;
736.8000;0.1481;-0.0956;
737.1000;0.1522;-0.0908;
737.4000;0.1498;-0.0932;
737.7000;0.1522;-0.0908;
738.0000;0.1506;-0.0956;
738.3000;0.1506;-0.1004;
738.6000;0.1514;-0.1004;
738.9000;0.1498;-0.1099;
739.2000;0.1514;-0.0980;
739.5000;0.1506;-0.0956;
739.8000;0.1481;-0.1099;
740.1000;0.1506;-0.0956;
740.4000;0.1506;-0.0932;
740.7000;0.1481;-0.0980;
741.0000;0.1547;-0.0812;
741.3000;0.1522;-0.0836;
741.6000;0.1506;-0.0789;
741.9000;0.1514;-0.0765;
742.2000;0.1555;-0.0621;
742.5000;0.1490;-0.0789;
742.8000;0.1506;-0.0812;
743.1000;0.1498;-0.0836;
743.4000;0.1538;-0.0621;
743.7000;0.1514;-0.0717;
744.0000;0.1506;-0.0765;
744.3000;0.1506;-0.0812;
744.6000;0.1490;-0.0932;
744.9000;0.1481;-0.0884;
745.2000;0.1498;-0.0908;
745.5000;0.1522;-0.0860;
745.8000;0.1514;-0.0860;
746.1000;0.1490;-0.0956;
746.4000;0.1547;-0.0884;
746.7000;0.1498;-0.1051;
747.0000;0.1522;-0.0932;
747.3000;0.1506;-0.1004;
747.6000;0.1433;-0.1099;
747.9000;0.1506;-0.0932;
748.2000;0.1498;-0.1028;
748.5000;0.1547;-0.0836;
748.8000;0.1481;-0.1004;
749.1000;0.1490;-0.0932;
749.4000;0.1514;-0.0765;
749.7000;0.1595;-0.0597;
750.0000;0.1359;-0.1243;
750.3000;0.1465;-0.1051;
750.6000;0.1506;-0.0932;
750.9000;0.1498;-0.0932;
751.2000;0.1481;-0.0956;
751.5000;0.1490;-0.0980;
751.8000;0.1506;-0.0980;
752.1000;0.1449;-0.1147;
752.4000;0.1506;-0.1051;
752.7000;0.1498;-0.1004;
753.0000;0.1506;-0.1004;
753.3000;0.1514;-0.1147;
753.6000;0.1498;-0.1147;
753.9000;0.1498;-0.1171;
754.2000;0.1490;-0.1075;
754.5000;0.1473;-0.1051;
754.8000;0.1514;-0.0908;
755.1000;0.1490;-0.0908;
755.4000;0.1498;-0.0860;
755.7000;0.1498;-0.0836;
756.0000;0.1498;-0.0812;
756.3000;0.1490;-0.0836;
756.6000;0.1514;-0.0812;
756.9000;0.1441;-0.1051;
757.2000;0.1481;-0.0932;
757.5000;0.1473;-0.0956;
757.8000;0.1465;-0.1075;
758.1000;0.1490;-0.1051;
758.4000;0.1465;-0.1123;
758.7000;0.1465;-0.1195;
759.0000;0.1498;-0.1243;
759.3000;0.1498;-0.1195;
759.6000;0.1514;-0.1123;
759.9000;0.1457;-0.1243;
760.2000;0.1498;-0.1171;
760.5000;0.1490;-0.1123;
760.8000;0.1555;-0.0884;
761.1000;0.1498;-0.1051;
761.4000;0.1579;-0.0789;
761.7000;0.1563;-0.0908;
762.0000;0.1490;-0.1171;
762.3000;0.1473;-0.1123;
762.6000;0.1506;-0.1004;
762.9000;0.1506;-0.0956;
763.2000;0.1481;-0.0932;
763.5000;0.1473;-0.0908;
763.8000;0.1506;-0.0812;
764.1000;0.1481;-0.0860;
764.4000;0.1490;-0.0812;
764.7000;0.1490;-0.0789;
765.0000;0.1514;-0.0836;
765.3000;0.1530;-0.0908;
765.6000;0.1506;-0.0932;
765.9000;0.1530;-0.0860;
766.2000;0.1473;-0.0980;
766.5000;0.1457;-0.1004;
766.8000;0.1481;-0.0980;
767.1000;0.1530;-0.0908;
767.4000;0.1392;-0.1219;
767.7000;0.1498;-0.0884;
768.0000;0.1481;-0.0836;
768.3000;0.1490;-0.0765;
768.6000;0.1530;-0.0717;
768.9000;0.1498;-0.0884;
769.2000;0.1449;-0.0956;
769.5000;0.1506;-0.0836;
769.8000;0.1490;-0.0956;
770.1000;0.1490;-0.0908;
770.4000;0.1498;-0.0860;
770.7000;0.1506;-0.0956;
771.0000;0.1530;-0.0836;
771.3000;0.1490;-0.1004;
771.6000;0.1555;-0.0836;
771.9000;0.1481;-0.1051;
772.2000;0.1498;-0.1051;
772.5000;0.1514;-0.0932;
772.8000;0.1481;-0.0932;
773.1000;0.1481;-0.0956;
773.4000;0.1490;-0.0932;
773.7000;0.1481;-0.0956;
774.0000;0.1506;-0.0908;
774.3000;0.1481;-0.0980;
774.6000;0.1490;-0.1028;
774.9000;0.1498;-0.0956;
775.2000;0.1522;-0.0956;
775.5000;0.1481;-0.0956;
775.8000;0.1490;-0.0884;
776.1000;0.1498;-0.0812;
776.4000;0.1506;-0.0789;
776.7000;0.1506;-0.0812;
777.0000;0.1514;-0.0860;
777.3000;0.1490;-0.0860;
777.6000;0.1490;-0.0860;
777.9000;0.1481;-0.0908;
778.2000;0.1498;-0.0884;
778.5000;0.1481;-0.0836;
778.8000;0.1506;-0.0836;
779.1000;0.1490;-0.0836;
779.4000;0.1473;-0.0860;
779.7000;0.1498;-0.0860;
780.0000;0.1514;-0.0860;
780.3000;0.1498;-0.0812;
780.6000;0.1547;-0.0812;
780.9000;0.1522;-0.0884;
781.2000;0.1498;-0.0980;
781.5000;0.1506;-0.0908;
781.8000;0.1473;-0.1028;
782.1000;0.1514;-0.0980;
782.4000;0.1522;-0.0980;
782.7000;0.1506;-0.1051;
783.0000;0.1506;-0.1075;
783.3000;0.1490;-0.1123;
783.6000;0.1490;-0.1147;
783.9000;0.1473;-0.1195;
784.2000;0.1506;-0.1123;
784.5000;0.1473;-0.1099;
784.8000;0.1465;-0.1099;
785.1000;0.1514;-0.0980;
785.4000;0.1506;-0.1099;
785.7000;0.1481;-0.1147;
786.0000;0.1416;-0.1290;
786.3000;0.1465;-0.1219;
786.6000;0.1506;-0.1147;
786.9000;0.1498;-0.1266;
787.2000;0.1538;-0.1195;
787.5000;0.1481;-0.1410;
787.8000;0.1490;-0.1458;
788.1000;0.1481;-0.1458;
788.4000;0.1481;-0.1362;
788.7000;0.1481;-0.1362;
789.0000;0.1498;-0.1410;
789.3000;0.1498;-0.1410;
789.6000;0.1506;-0.1434;
789.9000;0.1481;-0.1434;
790.2000;0.1400;-0.1673;
790.5000;0.1481;-0.1386;
790.8000;0.1498;-0.1386;
791.1000;0.1481;-0.1434;
791.4000;0.1368;-0.1697;
791.7000;0.1514;-0.1290;
792.0000;0.1498;-0.1362;
792.3000;0.1490;-0.1290;
792.6000;0.1506;-0.1290;
792.9000;0.1514;-0.1219;
793.2000;0.1506;-0.1171;
793.5000;0.1506;-0.1171;
793.8000;0.1547;-0.1028;
794.1000;0.1514;-0.1123;
794.4000;0.1522;-0.1123;
794.7000;0.1481;-0.1123;
795.0000;0.1498;-0.1099;
795.3000;0.1498;-0.1075;
795.6000;0.1490;-0.1075;
795.9000;0.1506;-0.1028;
796.2000;0.1473;-0.1075;
796.5000;0.1433;-0.1266;
796.8000;0.1457;-0.1195;
797.1000;0.1457;-0.1243;
797.4000;0.1498;-0.1123;
797.7000;0.1498;-0.1243;
798.0000;0.1457;-0.1290;
798.3000;0.1481;-0.1314;
798.6000;0.1490;-0.1338;
798.9000;0.1514;-0.1195;
799.2000;0.1514;-0.1075;
799.5000;0.1514;-0.1099;
799.8000;0.1604;-0.0932;
800.1000;0.1498;-0.1171;
800.4000;0.1473;-0.1314;
800.7000;0.1490;-0.1290;
801.0000;0.1490;-0.1219;
801.3000;0.1498;-0.1171;
801.6000;0.1490;-0.1147;
801.9000;0.1506;-0.1051;
802.2000;0.1490;-0.1075;
802.5000;0.1490;-0.1147;
802.8000;0.1498;-0.1051;
803.1000;0.1498;-0.1028;
803.4000;0.1490;-0.1004;
803.7000;0.1490;-0.1051;
804.0000;0.1433;-0.1243;
804.3000;0.1481;-0.1123;
804.6000;0.1498;-0.1099;
804.9000;0.1620;-0.0693;
805.2000;0.1490;-0.1051;
805.5000;0.1490;-0.1051;
805.8000;0.1498;-0.1028;
806.1000;0.1449;-0.1099;
806.4000;0.1514;-0.0956;
806.7000;0.1506;-0.0932;
807.0000;0.1481;-0.0956;
807.3000;0.1498;-0.0956;
807.6000;0.1359;-0.1290;
807.9000;0.1514;-0.1028;
808.2000;0.1498;-0.1147;
808.5000;0.1514;-0.1123;
808.8000;0.1514;-0.1099;
809.1000;0.1538;-0.1004;
809.4000;0.1481;-0.1171;
809.7000;0.1506;-0.1099;
810.0000;0.1490;-0.1171;
810.3000;0.1506;-0.1123;
810.6000;0.1473;-0.1171;
810.9000;0.1416;-0.1219;
811.2000;0.1490;-0.0932;
811.5000;0.1490;-0.0980;
811.8000;0.1473;-0.1051;
812.1000;0.1547;-0.0932;
812.4000;0.1490;-0.1075;
812.7000;0.1490;-0.1123;
813.0000;0.1506;-0.1099;
813.3000;0.1490;-0.1171;
813.6000;0.1498;-0.1171;
813.9000;0.1506;-0.1099;
814.2000;0.1490;-0.1123;
814.5000;0.1498;-0.1243;
814.8000;0.1498;-0.1314;
815.1000;0.1465;-0.1386;
815.4000;0.1449;-0.1458;
815.7000;0.1498;-0.1386;
816.0000;0.1522;-0.1338;
816.3000;0.1514;-0.1386;
816.6000;0.1514;-0.1434;
816.9000;0.1522;-0.1529;
817.2000;0.1481;-0.1577;
817.5000;0.1506;-0.1482;
817.8000;0.1514;-0.1338;
818.1000;0.1481;-0.1386;
818.4000;0.1506;-0.1243;
818.7000;0.1449;-0.1458;
819.0000;0.1490;-0.1338;
819.3000;0.1498;-0.1266;
819.6000;0.1498;-0.1266;
819.9000;0.1498;-0.1266;
820.2000;0.1490;-0.1243;
820.5000;0.1490;-0.1290;
820.8000;0.1506;-0.1266;
821.1000;0.1514;-0.1243;
821.4000;0.1506;-0.1195;
821.7000;0.1506;-0.1243;
822.0000;0.1498;-0.1219;
822.3000;0.1368;-0.1577;
822.6000;0.1506;-0.1219;
822.9000;0.1465;-0.1290;
823.2000;0.1563;-0.1004;
823.5000;0.1490;-0.1195;
823.8000;0.1490;-0.1028;
824.1000;0.1506;-0.0956;
824.4000;0.1514;-0.0908;
824.7000;0.1490;-0.1028;
825.0000;0.1506;-0.1004;
825.3000;0.1506;-0.1004;
825.6000;0.1490;-0.0980;
825.9000;0.1506;-0.0932;
826.2000;0.1433;-0.1195;
826.5000;0.1498;-0.1051;
826.8000;0.1490;-0.1028;
827.1000;0.1490;-0.1075;
827.4000;0.1514;-0.0980;
827.7000;0.1490;-0.0932;
828.0000;0.1481;-0.0908;
828.3000;0.1514;-0.0908;
828.6000;0.1441;-0.1147;
828.9000;0.1506;-0.0884;
829.2000;0.1514;-0.0860;
829.5000;0.1481;-0.0956;
829.8000;0.1547;-0.0908;
830.1000;0.1449;-0.1099;
830.4000;0.1571;-0.0741;
830.7000;0.1506;-0.0932;
831.0000;0.1498;-0.0908;
831.3000;0.1506;-0.0884;
831.6000;0.1530;-0.0836;
831.9000;0.1498;-0.0980;
832.2000;0.1490;-0.0932;
832.5000;0.1498;-0.0836;
832.8000;0.1473;-0.0884;
833.1000;0.1506;-0.0812;
833.4000;0.1506;-0.0860;
833.7000;0.1481;-0.1004;
834.0000;0.1514;-0.1004;
834.3000;0.1498;-0.1051;
834.6000;0.1400;-0.1338;
834.9000;0.1498;-0.1147;
835.2000;0.1457;-0.1243;
835.5000;0.1514;-0.1147;
835.8000;0.1498;-0.1195;
836.1000;0.1490;-0.1171;
836.4000;0.1538;-0.1051;
836.7000;0.1481;-0.1243;
837.0000;0.1490;-0.1219;
837.3000;0.1530;-0.1099;
837.6000;0.1490;-0.1147;
837.9000;0.1498;-0.1099;
838.2000;0.1473;-0.1171;
838.5000;0.1538;-0.1028;
838.8000;0.1498;-0.1147;
839.1000;0.1481;-0.1147;
839.4000;0.1498;-0.1075;
839.7000;0.1449;-0.1219;
840.0000;0.1506;-0.1099;
840.3000;0.1481;-0.1051;
840.6000;0.1522;-0.0980;
840.9000;0.1498;-0.1147;
841.2000;0.1506;-0.1123;
841.5000;0.1498;-0.1099;
841.8000;0.1481;-0.1171;
842.1000;0.1498;-0.1147;
842.4000;0.1514;-0.1075;
842.7000;0.1490;-0.1051;
843.0000;0.1481;-0.1051;
843.3000;0.1506;-0.1099;
843.6000;0.1465;-0.1147;
843.9000;0.1490;-0.1147;
844.2000;0.1547;-0.1028;
844.5000;0.1522;-0.0980;
844.8000;0.1506;-0.1004;
845.1000;0.1506;-0.0908;
845.4000;0.1506;-0.0884;
845.7000;0.1522;-0.0789;
846.0000;0.1538;-0.0741;
846.3000;0.1392;-0.1171;
846.6000;0.1498;-0.0908;
846.9000;0.1490;-0.0980;
847.2000;0.1490;-0.0908;
847.5000;0.1490;-0.0884;
847.8000;0.1506;-0.0884;
848.1000;0.1481;-0.0908;
848.4000;0.1506;-0.0812;
848.7000;0.1506;-0.0741;
849.0000;0.1514;-0.0812;
849.3000;0.1514;-0.0789;
849.6000;0.1498;-0.0860;
849.9000;0.1490;-0.0884;
850.2000;0.1481;-0.0884;
850.5000;0.1465;-0.0932;
850.8000;0.1465;-0.0980;
851.1000;0.1506;-0.0908;
851.4000;0.1522;-0.0836;
851.7000;0.1457;-0.0980;
852.0000;0.1563;-0.0789;
852.3000;0.1514;-0.0980;
852.6000;0.1522;-0.0908;
852.9000;0.1538;-0.0812;
853.2000;0.1490;-0.1028;
853.5000;0.1555;-0.0741;
853.8000;0.1481;-0.0908;
854.1000;0.1490;-0.0932;
854.4000;0.1400;-0.1075;
854.7000;0.1473;-0.0860;
855.0000;0.1384;-0.1195;
855.3000;0.1514;-0.0812;
855.6000;0.1538;-0.0621;
855.9000;0.1481;-0.0693;
856.2000;0.1490;-0.0669;
856.5000;0.1522;-0.0669;
856.8000;0.1490;-0.0765;
857.1000;0.1514;-0.0669;
857.4000;0.1506;-0.0717;
857.7000;0.1514;-0.0717;
858.0000;0.1506;-0.0836;
858.3000;0.1579;-0.0621;
858.6000;0.1514;-0.0860;
858.9000;0.1498;-0.0812;
859.2000;0.1384;-0.1051;
859.5000;0.1481;-0.0765;
859.8000;0.1490;-0.0741;
860.1000;0.1522;-0.0597;
860.4000;0.1490;-0.0765;
860.7000;0.1506;-0.0741;
861.0000;0.1425;-0.0956;
861.3000;0.1416;-0.1075;
861.6000;0.1506;-0.0884;
861.9000;0.1563;-0.0765;
862.2000;0.1555;-0.0717;
862.5000;0.1514;-0.0717;
862.8000;0.1547;-0.0741;
863.1000;0.1441;-0.0908;
863.4000;0.1473;-0.0836;
863.7000;0.1628;-0.0526;
864.0000;0.1514;-0.0812;
864.3000;0.1506;-0.0884;
864.6000;0.1449;-0.1051;
864.9000;0.1506;-0.0908;
865.2000;0.1473;-0.1004;
865.5000;0.1498;-0.0956;
865.8000;0.1506;-0.0836;
866.1000;0.1498;-0.0860;
866.4000;0.1522;-0.0717;
866.7000;0.1514;-0.0717;
867.0000;0.1506;-0.0717;
867.3000;0.1498;-0.0789;
867.6000;0.1563;-0.0550;
867.9000;0.1514;-0.0669;
868.2000;0.1481;-0.0765;
868.5000;0.1506;-0.0693;
868.8000;0.1490;-0.0693;
869.1000;0.1490;-0.0741;
869.4000;0.1522;-0.0669;
869.7000;0.1473;-0.0812;
870.0000;0.1457;-0.0836;
870.3000;0.1465;-0.0812;
870.6000;0.1506;-0.0693;
870.9000;0.1481;-0.0765;
871.2000;0.1498;-0.0812;
871.5000;0.1490;-0.0860;
871.8000;0.1522;-0.0836;
872.1000;0.1506;-0.0908;
872.4000;0.1514;-0.0884;
872.7000;0.1514;-0.0956;
873.0000;0.1498;-0.0932;
873.3000;0.1506;-0.0932;
873.6000;0.1481;-0.1004;
873.9000;0.1498;-0.0980;
874.2000;0.1498;-0.1004;
874.5000;0.1490;-0.1028;
874.8000;0.1490;-0.0980;
875.1000;0.1490;-0.0956;
875.4000;0.1506;-0.1004;
875.7000;0.1563;-0.0836;
876.0000;0.1538;-0.0884;
876.3000;0.1481;-0.1004;
876.6000;0.1506;-0.0908;
876.9000;0.1400;-0.1171;
877.2000;0.1506;-0.0812;
877.5000;0.1473;-0.0836;
877.8000;0.1490;-0.0812;
878.1000;0.1481;-0.0860;
878.4000;0.1465;-0.0932;
878.7000;0.1498;-0.0765;
879.0000;0.1571;-0.0454;
879.3000;0.1498;-0.0741;
879.6000;0.1490;-0.0765;
879.9000;0.1587;-0.0526;
880.2000;0.1473;-0.0860;
880.5000;0.1514;-0.0789;
880.8000;0.1498;-0.0908;
881.1000;0.1498;-0.0884;
881.4000;0.1416;-0.1147;
881.7000;0.1490;-0.0860;
882.0000;0.1490;-0.0765;
882.3000;0.1514;-0.0765;
882.6000;0.1481;-0.0908;
882.9000;0.1481;-0.0932;
883.2000;0.1490;-0.0860;
883.5000;0.1498;-0.0860;
883.8000;0.1514;-0.0908;
884.1000;0.1481;-0.0932;
884.4000;0.1498;-0.0812;
884.7000;0.1595;-0.0574;
885.0000;0.1522;-0.0741;
885.3000;0.1465;-0.0956;
885.6000;0.1481;-0.0884;
885.9000;0.1498;-0.0884;
886.2000;0.1506;-0.0884;
886.5000;0.1498;-0.0932;
886.8000;0.1555;-0.0860;
887.1000;0.1514;-0.0860;
887.4000;0.1490;-0.0956;
887.7000;0.1498;-0.0884;
888.0000;0.1481;-0.0980;
888.3000;0.1473;-0.0884;
888.6000;0.1498;-0.0812;
888.9000;0.1514;-0.0836;
889.2000;0.1498;-0.0932;
889.5000;0.1465;-0.0932;
889.8000;0.1506;-0.0836;
890.1000;0.1514;-0.0765;
890.4000;0.1473;-0.0741;
890.7000;0.1498;-0.0693;
891.0000;0.1457;-0.0860;
891.3000;0.1498;-0.0741;
891.6000;0.1522;-0.0645;
891.9000;0.1498;-0.0669;
892.2000;0.1490;-0.0693;
892.5000;0.1490;-0.0717;
892.8000;0.1481;-0.0741;
893.1000;0.1514;-0.0645;
893.4000;0.1506;-0.0717;
893.7000;0.1514;-0.0741;
894.0000;0.1490;-0.0765;
894.3000;0.1514;-0.0741;
894.6000;0.1481;-0.0812;
894.9000;0.1514;-0.0789;
895.2000;0.1498;-0.0932;
895.5000;0.1514;-0.0884;
895.8000;0.1498;-0.0836;
896.1000;0.1498;-0.0860;
896.4000;0.1514;-0.0860;
896.7000;0.1481;-0.0908;
897.0000;0.1538;-0.0741;
897.3000;0.1490;-0.0836;
897.6000;0.1449;-0.0908;
897.9000;0.1506;-0.0693;
898.2000;0.1465;-0.0836;
898.5000;0.1481;-0.0836;
898.8000;0.1490;-0.0836;
899.1000;0.1506;-0.0836;
899.4000;0.1555;-0.0669;
899.7000;0.1490;-0.0812;
900.0000;0.1498;-0.0717;
900.3000;0.1514;-0.0717;
900.6000;0.1441;-0.0932;
900.9000;0.1473;-0.0836;
901.2000;0.1498;-0.0812;
901.5000;0.1514;-0.0765;
901.8000;0.1473;-0.0980;
902.1000;0.1481;-0.0980;
902.4000;0.1481;-0.0932;
902.7000;0.1498;-0.0884;
903.0000;0.1514;-0.0789;
903.3000;0.1498;-0.0860;
903.6000;0.1506;-0.0765;
903.9000;0.1506;-0.0717;
904.2000;0.1522;-0.0669;
904.5000;0.1522;-0.0789;
904.8000;0.1490;-0.0789;
905.1000;0.1490;-0.0789;
905.4000;0.1490;-0.0789;
905.7000;0.1506;-0.0741;
906.0000;0.1490;-0.0789;
906.3000;0.1433;-0.0884;
906.6000;0.1481;-0.0741;
906.9000;0.1514;-0.0669;
907.2000;0.1481;-0.0717;
907.5000;0.1498;-0.0765;
907.8000;0.1408;-0.1004;
908.1000;0.1522;-0.0741;
908.4000;0.1490;-0.0812;
908.7000;0.1498;-0.0789;
909.0000;0.1498;-0.0789;
909.3000;0.1498;-0.0884;
909.6000;0.1498;-0.0884;
909.9000;0.1498;-0.0932;
910.2000;0.1522;-0.0765;
910.5000;0.1506;-0.0789;
910.8000;0.1506;-0.0717;
911.1000;0.1530;-0.0669;
911.4000;0.1514;-0.0765;
911.7000;0.1433;-0.0932;
912.0000;0.1490;-0.0765;
912.3000;0.1514;-0.0741;
912.6000;0.1522;-0.0860;
912.9000;0.1530;-0.0860;
913.2000;0.1498;-0.0908;
913.5000;0.1498;-0.0908;
913.8000;0.1490;-0.0908;
914.1000;0.1481;-0.0980;
914.4000;0.1522;-0.1028;
914.7000;0.1490;-0.1123;
915.0000;0.1498;-0.1004;
915.3000;0.1481;-0.1051;
915.6000;0.1490;-0.1051;
915.9000;0.1522;-0.0980;
916.2000;0.1530;-0.1075;
916.5000;0.1473;-0.1195;
916.8000;0.1506;-0.1099;
917.1000;0.1514;-0.0980;
917.4000;0.1498;-0.0956;
917.7000;0.1530;-0.0908;
918.0000;0.1506;-0.0908;
918.3000;0.1498;-0.0908;
918.6000;0.1473;-0.1028;
918.9000;0.1498;-0.0980;
919.2000;0.1490;-0.0956;
919.5000;0.1514;-0.0836;
919.8000;0.1481;-0.0812;
920.1000;0.1522;-0.0741;
920.4000;0.1506;-0.0765;
920.7000;0.1481;-0.0836;
921.0000;0.1490;-0.0860;
921.3000;0.1490;-0.0884;
921.6000;0.1465;-0.0860;
921.9000;0.1506;-0.0741;
922.2000;0.1514;-0.0693;
922.5000;0.1400;-0.1075;
922.8000;0.1490;-0.0812;
923.1000;0.1490;-0.0765;
923.4000;0.1498;-0.0717;
923.7000;0.1530;-0.0669;
924.0000;0.1490;-0.0812;
924.3000;0.1481;-0.0860;
924.6000;0.1530;-0.0789;
924.9000;0.1465;-0.0956;
925.2000;0.1514;-0.0860;
925.5000;0.1441;-0.1028;
925.8000;0.1563;-0.0597;
926.1000;0.1498;-0.0765;
926.4000;0.1506;-0.0765;
926.7000;0.1490;-0.0741;
927.0000;0.1514;-0.0693;
927.3000;0.1506;-0.0789;
927.6000;0.1490;-0.0908;
927.9000;0.1449;-0.1028;
928.2000;0.1481;-0.0860;
928.5000;0.1498;-0.0884;
928.8000;0.1490;-0.0908;
929.1000;0.1481;-0.0884;
929.4000;0.1457;-0.1004;
929.7000;0.1498;-0.0908;
930.0000;0.1522;-0.0765;
930.3000;0.1506;-0.0860;
930.6000;0.1506;-0.0812;
930.9000;0.1498;-0.0812;
931.2000;0.1514;-0.0741;
931.5000;0.1514;-0.0741;
931.8000;0.1473;-0.0932;
932.1000;0.1481;-0.0980;
932.4000;0.1498;-0.0884;
932.7000;0.1506;-0.0884;
933.0000;0.1498;-0.0860;
933.3000;0.1506;-0.0860;
933.6000;0.1506;-0.0836;
933.9000;0.1490;-0.0884;
934.2000;0.1498;-0.0956;
934.5000;0.1490;-0.1004;
934.8000;0.1555;-0.0812;
935.1000;0.1481;-0.0932;
935.4000;0.1506;-0.0812;
935.7000;0.1490;-0.0789;
936.0000;0.1498;-0.0765;
936.3000;0.1481;-0.0860;
936.6000;0.1498;-0.0860;
936.9000;0.1506;-0.0836;
937.2000;0.1473;-0.0908;
937.5000;0.1587;-0.0621;
937.8000;0.1481;-0.0956;
938.1000;0.1530;-0.0789;
938.4000;0.1490;-0.0980;
938.7000;0.1571;-0.0693;
939.0000;0.1490;-0.0956;
939.3000;0.1547;-0.0765;
939.6000;0.1547;-0.0741;
939.9000;0.1498;-0.0956;
940.2000;0.1368;-0.1219;
940.5000;0.1498;-0.0836;
940.8000;0.1481;-0.0884;
941.1000;0.1473;-0.0765;
941.4000;0.1506;-0.0765;
941.7000;0.1441;-0.0980;
942.0000;0.1490;-0.0884;
942.3000;0.1490;-0.0956;
942.6000;0.1481;-0.0956;
942.9000;0.1498;-0.0956;
943.2000;0.1514;-0.0884;
943.5000;0.1522;-0.0884;
943.8000;0.1490;-0.0980;
944.1000;0.1481;-0.1028;
944.4000;0.1514;-0.0980;
944.7000;0.1498;-0.1028;
945.0000;0.1473;-0.1099;
945.3000;0.1506;-0.0956;
945.6000;0.1473;-0.0980;
945.9000;0.1449;-0.1051;
946.2000;0.1506;-0.0789;
946.5000;0.1481;-0.0836;
946.8000;0.1490;-0.0836;
947.1000;0.1498;-0.0932;
947.4000;0.1498;-0.0932;
947.7000;0.1514;-0.0860;
948.0000;0.1538;-0.0741;
948.3000;0.1498;-0.0860;
948.6000;0.1498;-0.0860;
948.9000;0.1555;-0.0741;
949.2000;0.1490;-0.0908;
949.5000;0.1498;-0.0908;
949.8000;0.1498;-0.1028;
950.1000;0.1498;-0.1004;
950.4000;0.1522;-0.1051;
950.7000;0.1522;-0.0932;
951.0000;0.1498;-0.1004;
951.3000;0.1481;-0.1028;
951.6000;0.1473;-0.1075;
951.9000;0.1506;-0.1051;
952.2000;0.1498;-0.0908;
952.5000;0.1490;-0.0932;
952.8000;0.1481;-0.0932;
953.1000;0.1547;-0.0765;
953.4000;0.1506;-0.0956;
953.7000;0.1506;-0.0980;
954.0000;0.1498;-0.1004;
954.3000;0.1481;-0.1075;
954.6000;0.1506;-0.1004;
954.9000;0.1490;-0.0956;
955.2000;0.1506;-0.0932;
955.5000;0.1514;-0.0884;
955.8000;0.1506;-0.0908;
956.1000;0.1498;-0.0908;
956.4000;0.1481;-0.0836;
956.7000;0.1555;-0.0717;
957.0000;0.1490;-0.0908;
957.3000;0.1481;-0.0932;
957.6000;0.1538;-0.0765;
957.9000;0.1473;-0.0980;
958.2000;0.1481;-0.0980;
958.5000;0.1506;-0.0932;
958.8000;0.1490;-0.0932;
959.1000;0.1498;-0.0908;
959.4000;0.1506;-0.0932;
959.7000;0.1481;-0.0980;
960.0000;0.1490;-0.0908;
960.3000;0.1473;-0.0860;
960.6000;0.1514;-0.0789;
960.9000;0.1490;-0.0812;
961.2000;0.1555;-0.0669;
961.5000;0.1506;-0.0812;
961.8000;0.1506;-0.0765;
962.1000;0.1506;-0.0693;
962.4000;0.1514;-0.0669;
962.7000;0.1498;-0.0693;
963.0000;0.1490;-0.0812;
963.3000;0.1481;-0.0932;
963.6000;0.1490;-0.0932;
963.9000;0.1506;-0.0956;
964.2000;0.1555;-0.0884;
964.5000;0.1490;-0.1004;
964.8000;0.1481;-0.0980;
965.1000;0.1465;-0.0956;
965.4000;0.1522;-0.0860;
965.7000;0.1530;-0.0789;
966.0000;0.1498;-0.0860;
966.3000;0.1498;-0.0836;
966.6000;0.1490;-0.0860;
966.9000;0.1457;-0.0956;
967.2000;0.1506;-0.0789;
967.5000;0.1490;-0.0860;
967.8000;0.1506;-0.0741;
968.1000;0.1506;-0.0693;
968.4000;0.1490;-0.0812;
968.7000;0.1530;-0.0789;
969.0000;0.1604;-0.0597;
969.3000;0.1514;-0.0884;
969.6000;0.1490;-0.1004;
969.9000;0.1490;-0.1004;
970.2000;0.1498;-0.1051;
970.5000;0.1441;-0.1219;
970.8000;0.1514;-0.1075;
971.1000;0.1433;-0.1243;
971.4000;0.1522;-0.0956;
971.7000;0.1522;-0.0980;
972.0000;0.1359;-0.1434;
972.3000;0.1473;-0.1004;
972.6000;0.1384;-0.1243;
972.9000;0.1506;-0.0884;
973.2000;0.1490;-0.0956;
973.5000;0.1506;-0.0860;
973.8000;0.1506;-0.0884;
974.1000;0.1506;-0.0908;
974.4000;0.1441;-0.1243;
974.7000;0.1490;-0.1051;
975.0000;0.1498;-0.0980;
975.3000;0.1481;-0.1028;
975.6000;0.1498;-0.1004;
975.9000;0.1498;-0.0980;
976.2000;0.1547;-0.0908;
976.5000;0.1514;-0.1004;
976.8000;0.1490;-0.1028;
977.1000;0.1522;-0.0884;
977.4000;0.1514;-0.0956;
977.7000;0.1506;-0.0980;
978.0000;0.1498;-0.1028;
978.3000;0.1506;-0.1123;
978.6000;0.1490;-0.1147;
978.9000;0.1506;-0.1028;
979.2000;0.1538;-0.0836;
979.5000;0.1473;-0.1051;
979.8000;0.1498;-0.1004;
980.1000;0.1449;-0.1219;
980.4000;0.1498;-0.1051;
980.7000;0.1498;-0.0932;
981.0000;0.1473;-0.1028;
981.3000;0.1506;-0.0884;
981.6000;0.1490;-0.0932;
981.9000;0.1416;-0.1028;
982.2000;0.1530;-0.0693;
982.5000;0.1522;-0.0765;
982.8000;0.1506;-0.0908;
983.1000;0.1514;-0.0884;
983.4000;0.1506;-0.0932;
983.7000;0.1595;-0.0741;
984.0000;0.1498;-0.0956;
984.3000;0.1506;-0.0860;
984.6000;0.1506;-0.0860;
984.9000;0.1465;-0.0980;
985.2000;0.1506;-0.0908;
985.5000;0.1498;-0.0956;
985.8000;0.1481;-0.1004;
986.1000;0.1514;-0.0932;
986.4000;0.1498;-0.0956;
986.7000;0.1514;-0.0956;
987.0000;0.1498;-0.0980;
987.3000;0.1498;-0.1099;
987.6000;0.1522;-0.1004;
987.9000;0.1506;-0.1123;
988.2000;0.1490;-0.1051;
988.5000;0.1498;-0.1028;
988.8000;0.1490;-0.1075;
989.1000;0.1506;-0.1004;
989.4000;0.1498;-0.1075;
989.7000;0.1498;-0.1028;
990.0000;0.1498;-0.1051;
990.3000;0.1490;-0.1004;
990.6000;0.1490;-0.0980;
990.9000;0.1441;-0.0980;
991.2000;0.1498;-0.0884;
991.5000;0.1433;-0.0980;
991.8000;0.1547;-0.0669;
992.1000;0.1522;-0.0741;
992.4000;0.1514;-0.0741;
992.7000;0.1490;-0.0789;
993.0000;0.1490;-0.0765;
993.3000;0.1514;-0.0765;
993.6000;0.1636;-0.0406;
993.9000;0.1498;-0.0717;
994.2000;0.1522;-0.0645;
994.5000;0.1498;-0.0765;
994.8000;0.1506;-0.0741;
995.1000;0.1465;-0.0789;
995.4000;0.1547;-0.0693;
995.7000;0.1481;-0.0836;
996.0000;0.1498;-0.0908;
996.3000;0.1473;-0.1004;
996.6000;0.1498;-0.0908;
996.9000;0.1490;-0.0860;
997.2000;0.1530;-0.0717;
997.5000;0.1490;-0.0836;
997.8000;0.1571;-0.0597;
998.1000;0.1490;-0.0741;
998.4000;0.1538;-0.0741;
998.7000;0.1538;-0.0789;
999.0000;0.1498;-0.0884;
999.3000;0.1514;-0.0860;
999.6000;0.1514;-0.0812;
999.9000;0.1514;-0.0765;
1000.2000;0.1498;-0.0812;
1000.5000;0.1490;-0.0884;
1000.8000;0.1498;-0.0860;
1001.1000;0.1498;-0.0860;
1001.4000;0.1498;-0.0908;
1001.7000;0.1490;-0.0932;
1002.0000;0.1612;-0.0502;
1002.3000;0.1522;-0.0789;
1002.6000;0.1490;-0.0908;
1002.9000;0.1481;-0.0956;
1003.2000;0.1571;-0.0765;
1003.5000;0.1490;-0.1004;
1003.8000;0.1522;-0.0908;
1004.1000;0.1498;-0.0932;
1004.4000;0.1490;-0.0980;
1004.7000;0.1506;-0.0980;
1005.0000;0.1555;-0.0860;
1005.3000;0.1490;-0.1004;
1005.6000;0.1506;-0.0956;
1005.9000;0.1498;-0.0980;
1006.2000;0.1498;-0.0908;
1006.5000;0.1490;-0.0884;
1006.8000;0.1506;-0.0980;
1007.1000;0.1481;-0.1028;
1007.4000;0.1498;-0.0932;
1007.7000;0.1490;-0.1075;
1008.0000;0.1498;-0.0932;
1008.3000;0.1498;-0.0980;
1008.6000;0.1498;-0.0956;
1008.9000;0.1498;-0.1028;
1009.2000;0.1481;-0.1171;
1009.5000;0.1506;-0.1195;
1009.8000;0.1514;-0.1243;
1010.1000;0.1498;-0.1290;
1010.4000;0.1506;-0.1290;
1010.7000;0.1530;-0.1171;
1011.0000;0.1498;-0.1123;
1011.3000;0.1522;-0.1051;
1011.6000;0.1506;-0.1004;
1011.9000;0.1490;-0.1028;
1012.2000;0.1498;-0.0932;
1012.5000;0.1490;-0.0836;
1012.8000;0.1506;-0.0765;
1013.1000;0.1498;-0.0884;
1013.4000;0.1498;-0.0884;
1013.7000;0.1571;-0.0693;
1014.0000;0.1571;-0.0789;
1014.3000;0.1514;-0.0956;
1014.6000;0.1522;-0.0860;
1014.9000;0.1506;-0.0884;
1015.2000;0.1490;-0.0956;
1015.5000;0.1433;-0.1171;
1015.8000;0.1498;-0.1004;
1016.1000;0.1498;-0.1051;
1016.4000;0.1490;-0.0980;
1016.7000;0.1490;-0.0956;
1017.0000;0.1579;-0.0765;
1017.3000;0.1498;-0.1075;
1017.6000;0.1579;-0.0789;
1017.9000;0.1490;-0.0980;
1018.2000;0.1481;-0.0980;
1018.5000;0.1490;-0.0956;
1018.8000;0.1555;-0.0765;
1019.1000;0.1498;-0.0980;
1019.4000;0.1530;-0.0908;
1019.7000;0.1473;-0.1004;
1020.0000;0.1473;-0.0932;
1020.3000;0.1506;-0.0860;
1020.6000;0.1481;-0.1028;
1020.9000;0.1498;-0.0956;
1021.2000;0.1481;-0.0980;
1021.5000;0.1514;-0.0884;
1021.8000;0.1498;-0.0836;
1022.1000;0.1530;-0.0812;
1022.4000;0.1481;-0.0884;
1022.7000;0.1498;-0.0765;
1023.0000;0.1514;-0.0836;
1023.3000;0.1490;-0.0932;
1023.6000;0.1506;-0.0860;
1023.9000;0.1506;-0.0860;
1024.2000;0.1506;-0.0908;
1024.5000;0.1498;-0.0884;
1024.8000;0.1498;-0.0956;
1025.1000;0.1457;-0.0980;
1025.4000;0.1506;-0.0908;
1025.7000;0.1498;-0.0860;
1026.0000;0.1490;-0.0836;
1026.3000;0.1514;-0.0836;
1026.6000;0.1506;-0.0860;
1026.9000;0.1506;-0.0908;
1027.2000;0.1490;-0.0908;
1027.5000;0.1498;-0.0932;
1027.8000;0.1490;-0.0789;
1028.1000;0.1490;-0.0860;
1028.4000;0.1449;-0.1028;
1028.7000;0.1481;-0.0932;
1029.0000;0.1465;-0.1123;
1029.3000;0.1506;-0.1051;
1029.6000;0.1514;-0.1051;
1029.9000;0.1514;-0.0932;
1030.2000;0.1490;-0.1099;
1030.5000;0.1506;-0.1051;
1030.8000;0.1522;-0.1147;
1031.1000;0.1506;-0.1266;
1031.4000;0.1481;-0.1290;
1031.7000;0.1514;-0.1171;
1032.0000;0.1530;-0.1147;
1032.3000;0.1506;-0.1219;
1032.6000;0.1506;-0.1266;
1032.9000;0.1490;-0.1219;
1033.2000;0.1498;-0.1147;
1033.5000;0.1481;-0.1147;
1033.8000;0.1498;-0.0980;
1034.1000;0.1490;-0.1028;
1034.4000;0.1514;-0.0908;
1034.7000;0.1506;-0.0932;
1035.0000;0.1490;-0.1028;
1035.3000;0.1506;-0.1004;
1035.6000;0.1506;-0.0956;
1035.9000;0.1530;-0.0932;
1036.2000;0.1514;-0.0860;
1036.5000;0.1506;-0.0860;
1036.8000;0.1490;-0.0932;
1037.1000;0.1604;-0.0789;
1037.4000;0.1473;-0.1075;
1037.7000;0.1498;-0.0980;
1038.0000;0.1481;-0.1075;
1038.3000;0.1490;-0.1075;
1038.6000;0.1490;-0.1099;
1038.9000;0.1522;-0.1051;
1039.2000;0.1498;-0.1171;
1039.5000;0.1506;-0.1123;
1039.8000;0.1481;-0.1171;
1040.1000;0.1604;-0.0860;
1040.4000;0.1490;-0.1171;
1040.7000;0.1522;-0.1123;
1041.0000;0.1490;-0.1123;
1041.3000;0.1481;-0.1099;
1041.6000;0.1498;-0.1123;
1041.9000;0.1514;-0.1051;
1042.2000;0.1506;-0.1028;
1042.5000;0.1579;-0.0884;
1042.8000;0.1514;-0.0956;
1043.1000;0.1368;-0.1362;
1043.4000;0.1433;-0.1219;
1043.7000;0.1490;-0.1075;
1044.0000;0.1481;-0.1099;
1044.3000;0.1498;-0.0980;
1044.6000;0.1514;-0.0980;
1044.9000;0.1498;-0.0932;
1045.2000;0.1498;-0.0956;
1045.5000;0.1506;-0.0884;
1045.8000;0.1514;-0.0860;
1046.1000;0.1514;-0.0812;
1046.4000;0.1498;-0.0860;
1046.7000;0.1506;-0.0884;
1047.0000;0.1498;-0.0884;
1047.3000;0.1636;-0.0526;
1047.6000;0.1498;-0.0908;
1047.9000;0.1514;-0.0932;
1048.2000;0.1490;-0.0980;
1048.5000;0.1498;-0.0908;
1048.8000;0.1490;-0.0956;
1049.1000;0.1563;-0.0812;
1049.4000;0.1498;-0.1028;
1049.7000;0.1498;-0.0980;
1050.0000;0.1498;-0.0884;
1050.3000;0.1506;-0.0860;
1050.6000;0.1498;-0.0836;
1050.9000;0.1498;-0.0860;
1051.2000;0.1490;-0.0932;
1051.5000;0.1522;-0.0836;
1051.8000;0.1514;-0.0932;
1052.1000;0.1514;-0.0932;
1052.4000;0.1506;-0.0956;
1052.7000;0.1481;-0.1028;
1053.0000;0.1498;-0.1004;
1053.3000;0.1498;-0.1099;
1053.6000;0.1498;-0.1051;
1053.9000;0.1490;-0.1147;
1054.2000;0.1522;-0.1051;
1054.5000;0.1433;-0.1290;
1054.8000;0.1498;-0.1147;
1055.1000;0.1498;-0.1219;
1055.4000;0.1506;-0.1243;
1055.7000;0.1498;-0.1314;
1056.0000;0.1473;-0.1410;
1056.3000;0.1498;-0.1410;
1056.6000;0.1506;-0.1362;
1056.9000;0.1490;-0.1434;
1057.2000;0.1498;-0.1434;
1057.5000;0.1506;-0.1386;
1057.8000;0.1506;-0.1338;
1058.1000;0.1490;-0.1386;
1058.4000;0.1506;-0.1314;
1058.7000;0.1563;-0.1219;
1059.0000;0.1506;-0.1362;
1059.3000;0.1481;-0.1434;
1059.6000;0.1481;-0.1410;
1059.9000;0.1506;-0.1243;
1060.2000;0.1514;-0.1123;
1060.5000;0.1506;-0.1099;
1060.8000;0.1498;-0.1099;
1061.1000;0.1481;-0.1123;
1061.4000;0.1473;-0.1099;
1061.7000;0.1538;-0.0956;
1062.0000;0.1530;-0.0884;
1062.3000;0.1555;-0.0884;
1062.6000;0.1490;-0.1028;
1062.9000;0.1514;-0.0956;
1063.2000;0.1555;-0.0932;
1063.5000;0.1481;-0.1099;
1063.8000;0.1490;-0.1051;
1064.1000;0.1506;-0.0956;
1064.4000;0.1481;-0.1004;
1064.7000;0.1473;-0.1099;
1065.0000;0.1571;-0.0860;
1065.3000;0.1490;-0.1123;
1065.6000;0.1490;-0.1099;
1065.9000;0.1490;-0.1123;
1066.2000;0.1473;-0.1219;
1066.5000;0.1571;-0.1028;
1066.8000;0.1514;-0.1219;
1067.1000;0.1571;-0.1123;
1067.4000;0.1498;-0.1410;
1067.7000;0.1506;-0.1386;
1068.0000;0.1636;-0.1051;
1068.3000;0.1498;-0.1290;
1068.6000;0.1506;-0.1243;
1068.9000;0.1514;-0.1314;
1069.2000;0.1498;-0.1338;
1069.5000;0.1514;-0.1266;
1069.8000;0.1457;-0.1362;
1070.1000;0.1490;-0.1338;
1070.4000;0.1392;-0.1577;
1070.7000;0.1514;-0.1266;
1071.0000;0.1490;-0.1338;
1071.3000;0.1457;-0.1410;
1071.6000;0.1481;-0.1314;
1071.9000;0.1506;-0.1243;
1072.2000;0.1481;-0.1290;
1072.5000;0.1514;-0.1147;
1072.8000;0.1498;-0.1219;
1073.1000;0.1514;-0.1243;
1073.4000;0.1506;-0.1243;
1073.7000;0.1490;-0.1243;
1074.0000;0.1481;-0.1195;
1074.3000;0.1506;-0.1147;
1074.6000;0.1522;-0.1075;
1074.9000;0.1400;-0.1410;
1075.2000;0.1506;-0.1099;
1075.5000;0.1473;-0.1243;
1075.8000;0.1506;-0.1243;
1076.1000;0.1498;-0.1219;
1076.4000;0.1490;-0.1266;
1076.7000;0.1506;-0.1266;
1077.0000;0.1490;-0.1243;
1077.3000;0.1490;-0.1219;
1077.6000;0.1490;-0.1171;
1077.9000;0.1465;-0.1219;
1078.2000;0.1490;-0.1147;
1078.5000;0.1522;-0.1004;
1078.8000;0.1481;-0.1123;
1079.1000;0.1498;-0.1099;
1079.4000;0.1506;-0.1028;
1079.7000;0.1538;-0.0836;
1080.0000;0.1514;-0.0860;
1080.3000;0.1506;-0.0956;
1080.6000;0.1481;-0.1004;
1080.9000;0.1498;-0.1004;
1081.2000;0.1514;-0.1075;
1081.5000;0.1498;-0.1147;
1081.8000;0.1457;-0.1219;
1082.1000;0.1481;-0.1147;
1082.4000;0.1506;-0.1123;
1082.7000;0.1514;-0.1099;
1083.0000;0.1473;-0.1171;
1083.3000;0.1498;-0.1147;
1083.6000;0.1514;-0.1123;
1083.9000;0.1498;-0.1123;
1084.2000;0.1498;-0.1171;
1084.5000;0.1522;-0.1171;
1084.8000;0.1514;-0.1219;
1085.1000;0.1522;-0.1195;
1085.4000;0.1490;-0.1362;
1085.7000;0.1506;-0.1314;
1086.0000;0.1425;-0.1553;
1086.3000;0.1490;-0.1410;
1086.6000;0.1473;-0.1458;
1086.9000;0.1514;-0.1410;
1087.2000;0.1473;-0.1362;
1087.5000;0.1490;-0.1243;
1087.8000;0.1514;-0.1290;
1088.1000;0.1506;-0.1266;
1088.4000;0.1490;-0.1219;
1088.7000;0.1514;-0.1243;
1089.0000;0.1522;-0.1243;
1089.3000;0.1481;-0.1290;
1089.6000;0.1481;-0.1386;
1089.9000;0.1481;-0.1314;
1090.2000;0.1506;-0.1290;
1090.5000;0.1530;-0.1314;
1090.8000;0.1481;-0.1482;
1091.1000;0.1311;-0.1912;
1091.4000;0.1490;-0.1434;
1091.7000;0.1587;-0.1219;
1092.0000;0.1457;-0.1529;
1092.3000;0.1465;-0.1505;
1092.6000;0.1498;-0.1505;
1092.9000;0.1481;-0.1482;
1093.2000;0.1498;-0.1505;
1093.5000;0.1481;-0.1529;
1093.8000;0.1498;-0.1410;
1094.1000;0.1441;-0.1505;
1094.4000;0.1506;-0.1362;
1094.7000;0.1530;-0.1243;
1095.0000;0.1522;-0.1219;
1095.3000;0.1481;-0.1219;
1095.6000;0.1481;-0.1219;
1095.9000;0.1449;-0.1219;
1096.2000;0.1498;-0.1171;
1096.5000;0.1514;-0.1147;
1096.8000;0.1514;-0.1147;
1097.1000;0.1490;-0.1266;
1097.4000;0.1490;-0.1314;
1097.7000;0.1498;-0.1219;
1098.0000;0.1498;-0.1123;
1098.3000;0.1498;-0.1075;
1098.6000;0.1514;-0.1123;
1098.9000;0.1490;-0.1266;
1099.2000;0.1522;-0.1266;
1099.5000;0.1490;-0.1314;
1099.8000;0.1481;-0.1362;
1100.1000;0.1481;-0.1290;
1100.4000;0.1490;-0.1195;
1100.7000;0.1473;-0.1243;
1101.0000;0.1514;-0.1075;
1101.3000;0.1514;-0.0980;
1101.6000;0.1498;-0.0980;
1101.9000;0.1522;-0.0860;
1102.2000;0.1506;-0.0980;
1102.5000;0.1490;-0.1075;
1102.8000;0.1530;-0.0980;
1103.1000;0.1473;-0.1099;
1103.4000;0.1498;-0.1028;
1103.7000;0.1481;-0.1051;
1104.0000;0.1473;-0.1123;
1104.3000;0.1498;-0.1028;
1104.6000;0.1498;-0.0956;
1104.9000;0.1433;-0.1075;
1105.2000;0.1481;-0.0956;
1105.5000;0.1506;-0.1051;
1105.8000;0.1506;-0.0956;
1106.1000;0.1522;-0.0932;
1106.4000;0.1473;-0.1075;
1106.7000;0.1538;-0.0908;
1107.0000;0.1425;-0.1219;
1107.3000;0.1514;-0.1028;
1107.6000;0.1498;-0.1051;
1107.9000;0.1481;-0.1171;
1108.2000;0.1449;-0.1266;
1108.5000;0.1555;-0.0956;
1108.8000;0.1530;-0.1028;
1109.1000;0.1563;-0.0884;
1109.4000;0.1490;-0.1051;
1109.7000;0.1595;-0.0741;
1110.0000;0.1490;-0.1099;
1110.3000;0.1473;-0.1147;
1110.6000;0.1506;-0.1051;
1110.9000;0.1498;-0.1099;
1111.2000;0.1498;-0.1147;
1111.5000;0.1555;-0.0956;
1111.8000;0.1522;-0.1004;
1112.1000;0.1481;-0.1051;
1112.4000;0.1441;-0.1147;
1112.7000;0.1498;-0.1004;
1113.0000;0.1514;-0.1051;
1113.3000;0.1506;-0.1099;
1113.6000;0.1563;-0.1028;
1113.9000;0.1547;-0.1123;
1114.2000;0.1530;-0.1219;
1114.5000;0.1490;-0.1314;
1114.8000;0.1498;-0.1243;
1115.1000;0.1425;-0.1434;
1115.4000;0.1498;-0.1195;
1115.7000;0.1498;-0.1219;
1116.0000;0.1538;-0.1123;
1116.3000;0.1506;-0.1219;
1116.6000;0.1506;-0.1123;
1116.9000;0.1498;-0.1051;
1117.2000;0.1433;-0.1266;
1117.5000;0.1498;-0.1123;
1117.8000;0.1498;-0.1195;
1118.1000;0.1514;-0.1147;
1118.4000;0.1506;-0.1195;
1118.7000;0.1538;-0.1171;
1119.0000;0.1506;-0.1219;
1119.3000;0.1530;-0.1171;
1119.6000;0.1481;-0.1338;
1119.9000;0.1473;-0.1243;
1120.2000;0.1490;-0.1290;
1120.5000;0.1506;-0.1266;
1120.8000;0.1522;-0.1243;
1121.1000;0.1506;-0.1243;
1121.4000;0.1473;-0.1171;
1121.7000;0.1522;-0.1028;
1122.0000;0.1506;-0.1051;
1122.3000;0.1522;-0.0980;
1122.6000;0.1490;-0.1051;
1122.9000;0.1514;-0.1028;
1123.2000;0.1473;-0.1219;
1123.5000;0.1481;-0.1171;
1123.8000;0.1433;-0.1243;
1124.1000;0.1514;-0.0956;
1124.4000;0.1498;-0.0980;
1124.7000;0.1481;-0.0956;
1125.0000;0.1481;-0.0860;
1125.3000;0.1506;-0.0836;
1125.6000;0.1506;-0.0860;
1125.9000;0.1449;-0.1051;
1126.2000;0.1481;-0.0884;
1126.5000;0.1498;-0.0908;
1126.8000;0.1498;-0.0932;
1127.1000;0.1514;-0.0932;
1127.4000;0.1506;-0.0908;
1127.7000;0.1506;-0.0884;
1128.0000;0.1514;-0.0765;
1128.3000;0.1473;-0.0884;
1128.6000;0.1490;-0.0860;
1128.9000;0.1514;-0.0765;
1129.2000;0.1465;-0.0932;
1129.5000;0.1481;-0.0908;
1129.8000;0.1449;-0.1051;
1130.1000;0.1522;-0.0908;
1130.4000;0.1506;-0.0908;
1130.7000;0.1473;-0.0956;
1131.0000;0.1473;-0.0980;
1131.3000;0.1490;-0.0956;
1131.6000;0.1473;-0.0980;
1131.9000;0.1538;-0.0860;
1132.2000;0.1514;-0.0860;
1132.5000;0.1506;-0.0812;
1132.8000;0.1506;-0.0812;
1133.1000;0.1473;-0.0836;
1133.4000;0.1498;-0.0884;
1133.7000;0.1490;-0.0884;
1134.0000;0.1498;-0.0836;
1134.3000;0.1449;-0.1028;
1134.6000;0.1481;-0.1004;
1134.9000;0.1538;-0.0884;
1135.2000;0.1522;-0.0932;
1135.5000;0.1498;-0.1051;
1135.8000;0.1498;-0.0932;
1136.1000;0.1514;-0.0932;
1136.4000;0.1473;-0.1028;
1136.7000;0.1506;-0.0932;
1137.0000;0.1481;-0.0956;
1137.3000;0.1490;-0.0932;
1137.6000;0.1498;-0.1028;
1137.9000;0.1490;-0.1075;
1138.2000;0.1465;-0.1075;
1138.5000;0.1490;-0.1004;
1138.8000;0.1481;-0.1028;
1139.1000;0.1498;-0.1004;
1139.4000;0.1498;-0.1004;
1139.7000;0.1490;-0.0932;
1140.0000;0.1498;-0.0932;
1140.3000;0.1514;-0.0932;
1140.6000;0.1579;-0.0645;
1140.9000;0.1473;-0.1004;
1141.2000;0.1498;-0.0860;
1141.5000;0.1506;-0.0860;
1141.8000;0.1449;-0.0956;
1142.1000;0.1498;-0.0908;
1142.4000;0.1563;-0.0645;
1142.7000;0.1514;-0.0860;
1143.0000;0.1490;-0.0908;
1143.3000;0.1481;-0.0932;
1143.6000;0.1522;-0.0884;
1143.9000;0.1481;-0.0980;
1144.2000;0.1498;-0.0836;
1144.5000;0.1506;-0.0884;
1144.8000;0.1506;-0.0908;
1145.1000;0.1490;-0.0908;
1145.4000;0.1481;-0.0932;
1145.7000;0.1514;-0.0836;
1146.0000;0.1498;-0.0908;
1146.3000;0.1481;-0.0956;
1146.6000;0.1449;-0.1075;
1146.9000;0.1506;-0.0956;
1147.2000;0.1506;-0.0980;
1147.5000;0.1465;-0.0980;
1147.8000;0.1490;-0.0884;
1148.1000;0.1481;-0.0860;
1148.4000;0.1473;-0.0956;
1148.7000;0.1441;-0.0980;
1149.0000;0.1579;-0.0669;
1149.3000;0.1498;-0.0956;
1149.6000;0.1498;-0.0932;
1149.9000;0.1384;-0.1243;
1150.2000;0.1473;-0.0980;
1150.5000;0.1490;-0.0860;
1150.8000;0.1530;-0.0836;
1151.1000;0.1506;-0.1028;
1151.4000;0.1498;-0.1099;
1151.7000;0.1538;-0.1004;
1152.0000;0.1563;-0.0860;
1152.3000;0.1481;-0.1147;
1152.6000;0.1490;-0.1147;
1152.9000;0.1579;-0.0884;
1153.2000;0.1498;-0.1123;
1153.5000;0.1473;-0.1219;
1153.8000;0.1506;-0.1171;
1154.1000;0.1490;-0.1195;
1154.4000;0.1506;-0.1075;
1154.7000;0.1481;-0.1051;
1155.0000;0.1490;-0.1004;
1155.3000;0.1490;-0.1051;
1155.6000;0.1498;-0.1051;
1155.9000;0.1457;-0.1099;
1156.2000;0.1506;-0.1028;
1156.5000;0.1449;-0.1075;
1156.8000;0.1473;-0.0956;
1157.1000;0.1514;-0.0884;
1157.4000;0.1465;-0.0980;
1157.7000;0.1490;-0.0956;
1158.0000;0.1506;-0.0908;
1158.3000;0.1506;-0.0860;
1158.6000;0.1498;-0.0908;
1158.9000;0.1522;-0.1004;
1159.2000;0.1490;-0.0908;
1159.5000;0.1506;-0.0908;
1159.8000;0.1498;-0.0908;
1160.1000;0.1506;-0.0908;
1160.4000;0.1490;-0.1004;
1160.7000;0.1522;-0.0956;
1161.0000;0.1506;-0.0980;
1161.3000;0.1514;-0.0956;
1161.6000;0.1490;-0.0908;
1161.9000;0.1498;-0.0836;
1162.2000;0.1506;-0.0932;
1162.5000;0.1490;-0.1004;
1162.8000;0.1490;-0.0980;
1163.1000;0.1506;-0.0956;
1163.4000;0.1498;-0.0908;
1163.7000;0.1547;-0.0741;
1164.0000;0.1433;-0.1051;
1164.3000;0.1514;-0.0860;
1164.6000;0.1392;-0.1219;
1164.9000;0.1498;-0.0932;
1165.2000;0.1506;-0.0956;
1165.5000;0.1530;-0.1004;
1165.8000;0.1498;-0.1004;
1166.1000;0.1384;-0.1266;
1166.4000;0.1514;-0.0932;
1166.7000;0.1514;-0.0932;
1167.0000;0.1514;-0.0932;
1167.3000;0.1555;-0.0789;
1167.6000;0.1506;-0.0836;
1167.9000;0.1506;-0.0836;
1168.2000;0.1490;-0.0860;
1168.5000;0.1506;-0.0860;
1168.8000;0.1481;-0.0932;
1169.1000;0.1498;-0.0932;
1169.4000;0.1498;-0.1051;
1169.7000;0.1506;-0.1004;
1170.0000;0.1481;-0.1004;
1170.3000;0.1490;-0.0932;
1170.6000;0.1490;-0.0908;
1170.9000;0.1490;-0.0956;
1171.2000;0.1514;-0.0908;
1171.5000;0.1498;-0.0956;
1171.8000;0.1522;-0.0956;
1172.1000;0.1506;-0.1051;
1172.4000;0.1506;-0.1075;
1172.7000;0.1506;-0.1099;
1173.0000;0.1612;-0.0812;
1173.3000;0.1498;-0.1075;
1173.6000;0.1441;-0.1195;
1173.9000;0.1481;-0.0956;
1174.2000;0.1506;-0.0908;
1174.5000;0.1506;-0.0860;
1174.8000;0.1506;-0.0812;
1175.1000;0.1522;-0.0741;
1175.4000;0.1498;-0.0812;
1175.7000;0.1457;-0.0956;
1176.0000;0.1473;-0.0884;
1176.3000;0.1506;-0.0908;
1176.6000;0.1506;-0.0932;
1176.9000;0.1506;-0.0932;
1177.2000;0.1506;-0.0980;
1177.5000;0.1506;-0.0932;
1177.8000;0.1514;-0.0836;
1178.1000;0.1498;-0.0884;
1178.4000;0.1465;-0.1004;
1178.7000;0.1490;-0.0860;
1179.0000;0.1514;-0.0836;
1179.3000;0.1481;-0.0812;
1179.6000;0.1490;-0.0836;
1179.9000;0.1441;-0.0980;
1180.2000;0.1498;-0.0765;
1180.5000;0.1498;-0.0789;
1180.8000;0.1490;-0.0836;
1181.1000;0.1498;-0.0812;
1181.4000;0.1547;-0.0693;
1181.7000;0.1595;-0.0526;
1182.0000;0.1449;-0.0980;
1182.3000;0.1506;-0.0908;
1182.6000;0.1506;-0.0884;
1182.9000;0.1514;-0.0884;
1183.2000;0.1522;-0.0860;
1183.5000;0.1490;-0.0956;
1183.8000;0.1441;-0.1075;
1184.1000;0.1498;-0.0908;
1184.4000;0.1506;-0.0860;
1184.7000;0.1530;-0.0812;
1185.0000;0.1514;-0.0956;
1185.3000;0.1490;-0.0932;
1185.6000;0.1498;-0.0980;
1185.9000;0.1538;-0.0884;
1186.2000;0.1465;-0.1004;
1186.5000;0.1555;-0.0765;
1186.8000;0.1506;-0.0884;
1187.1000;0.1571;-0.0693;
1187.4000;0.1506;-0.0956;
1187.7000;0.1490;-0.0980;
1188.0000;0.1465;-0.1099;
1188.3000;0.1579;-0.0765;
1188.6000;0.1506;-0.0980;
1188.9000;0.1481;-0.0980;
1189.2000;0.1449;-0.1051;
1189.5000;0.1481;-0.0956;
1189.8000;0.1481;-0.0980;
1190.1000;0.1473;-0.1004;
1190.4000;0.1506;-0.0956;
1190.7000;0.1384;-0.1314;
1191.0000;0.1506;-0.1051;
1191.3000;0.1506;-0.1051;
1191.6000;0.1498;-0.1075;
1191.9000;0.1481;-0.1099;
1192.2000;0.1498;-0.1075;
1192.5000;0.1473;-0.1099;
1192.8000;0.1522;-0.0932;
1193.1000;0.1522;-0.0884;
1193.4000;0.1490;-0.0884;
1193.7000;0.1481;-0.0932;
1194.0000;0.1441;-0.0932;
1194.3000;0.1498;-0.0812;
1194.6000;0.1490;-0.0812;
1194.9000;0.1506;-0.0860;
1195.2000;0.1514;-0.0932;
1195.5000;0.1490;-0.0956;
1195.8000;0.1433;-0.1028;
1196.1000;0.1481;-0.0980;
1196.4000;0.1514;-0.0980;
1196.7000;0.1481;-0.1075;
1197.0000;0.1490;-0.1028;
1197.3000;0.1506;-0.1075;
1197.6000;0.1473;-0.1099;
1197.9000;0.1481;-0.0956;
1198.2000;0.1514;-0.0789;
1198.5000;0.1514;-0.0860;
1198.8000;0.1490;-0.0908;
1199.1000;0.1506;-0.0932;
1199.4000;0.1506;-0.0980;
1199.7000;0.1481;-0.1147;
1200.0000;0.1514;-0.1123;
1200.3000;0.1490;-0.1147;
1200.6000;0.1506;-0.1028;
1200.9000;0.1498;-0.0956;
1201.2000;0.1506;-0.0932;
1201.5000;0.1465;-0.1075;
1201.8000;0.1538;-0.0765;
1202.1000;0.1449;-0.0956;
1202.4000;0.1498;-0.0741;
1202.7000;0.1498;-0.0789;
1203.0000;0.1538;-0.0765;
1203.3000;0.1498;-0.0860;
1203.6000;0.1449;-0.1075;
1203.9000;0.1490;-0.0956;
1204.2000;0.1506;-0.1028;
1204.5000;0.1514;-0.1123;
1204.8000;0.1530;-0.0980;
1205.1000;0.1490;-0.1099;
1205.4000;0.1498;-0.1004;
1205.7000;0.1449;-0.1171;
1206.0000;0.1498;-0.0980;
1206.3000;0.1465;-0.1123;
1206.6000;0.1514;-0.0980;
1206.9000;0.1465;-0.1004;
1207.2000;0.1473;-0.1028;
1207.5000;0.1514;-0.0932;
1207.8000;0.1514;-0.0932;
1208.1000;0.1481;-0.1004;
1208.4000;0.1433;-0.1099;
1208.7000;0.1425;-0.1051;
1209.0000;0.1514;-0.0789;
1209.3000;0.1490;-0.0812;
1209.6000;0.1498;-0.0860;
1209.9000;0.1522;-0.0789;
1210.2000;0.1506;-0.0932;
1210.5000;0.1514;-0.0884;
1210.8000;0.1498;-0.0884;
1211.1000;0.1498;-0.0812;
1211.4000;0.1473;-0.0884;
1211.7000;0.1498;-0.0836;
1212.0000;0.1498;-0.0884;
1212.3000;0.1555;-0.0789;
1212.6000;0.1514;-0.0908;
1212.9000;0.1514;-0.0932;
1213.2000;0.1498;-0.0860;
1213.5000;0.1514;-0.0789;
1213.8000;0.1506;-0.0741;
1214.1000;0.1506;-0.0693;
1214.4000;0.1498;-0.0765;
1214.7000;0.1514;-0.0789;
1215.0000;0.1514;-0.0812;
1215.3000;0.1514;-0.0765;
1215.6000;0.1498;-0.0836;
1215.9000;0.1530;-0.0789;
1216.2000;0.1538;-0.0741;
1216.5000;0.1498;-0.0812;
1216.8000;0.1506;-0.0789;
1217.1000;0.1498;-0.0789;
1217.4000;0.1481;-0.0789;
1217.7000;0.1449;-0.0884;
1218.0000;0.1498;-0.0717;
1218.3000;0.1473;-0.0717;
1218.6000;0.1620;-0.0478;
1218.9000;0.1490;-0.0860;
1219.2000;0.1506;-0.0860;
1219.5000;0.1522;-0.0836;
1219.8000;0.1595;-0.0621;
1220.1000;0.1498;-0.0860;
1220.4000;0.1498;-0.0908;
1220.7000;0.1490;-0.0908;
1221.0000;0.1490;-0.0884;
1221.3000;0.1522;-0.0741;
1221.6000;0.1506;-0.0860;
1221.9000;0.1506;-0.0908;
1222.2000;0.1490;-0.1028;
1222.5000;0.1498;-0.0908;
1222.8000;0.1481;-0.0956;
1223.1000;0.1506;-0.0860;
1223.4000;0.1473;-0.0789;
1223.7000;0.1490;-0.0812;
1224.0000;0.1514;-0.0812;
1224.3000;0.1538;-0.0812;
1224.6000;0.1490;-0.0884;
1224.9000;0.1408;-0.1147;
1225.2000;0.1604;-0.0550;
1225.5000;0.1506;-0.0741;
1225.8000;0.1490;-0.0789;
1226.1000;0.1376;-0.1075;
1226.4000;0.1490;-0.0765;
1226.7000;0.1555;-0.0669;
1227.0000;0.1506;-0.0932;
1227.3000;0.1457;-0.1051;
1227.6000;0.1433;-0.1195;
1227.9000;0.1425;-0.1195;
1228.2000;0.1498;-0.0980;
1228.5000;0.1327;-0.1482;
1228.8000;0.1506;-0.1028;
1229.1000;0.1498;-0.0956;
1229.4000;0.1571;-0.0717;
1229.7000;0.1506;-0.0908;
1230.0000;0.1490;-0.1051;
1230.3000;0.1514;-0.1004;
1230.6000;0.1465;-0.1099;
1230.9000;0.1628;-0.0765;
1231.2000;0.1498;-0.1099;
1231.5000;0.1506;-0.1028;
1231.8000;0.1538;-0.0908;
1232.1000;0.1498;-0.1004;
1232.4000;0.1498;-0.1028;
1232.7000;0.1498;-0.1075;
1233.0000;0.1490;-0.0980;
1233.3000;0.1498;-0.1051;
1233.6000;0.1514;-0.1028;
1233.9000;0.1498;-0.1051;
1234.2000;0.1530;-0.0980;
1234.5000;0.1506;-0.1051;
1234.8000;0.1514;-0.0980;
1235.1000;0.1498;-0.0956;
1235.4000;0.1498;-0.0860;
1235.7000;0.1506;-0.0884;
1236.0000;0.1490;-0.1004;
1236.3000;0.1555;-0.0908;
1236.6000;0.1522;-0.0980;
1236.9000;0.1522;-0.0836;
1237.2000;0.1490;-0.0908;
1237.5000;0.1490;-0.1028;
1237.8000;0.1506;-0.1028;
1238.1000;0.1514;-0.1075;
1238.4000;0.1506;-0.1147;
1238.7000;0.1498;-0.1147;
1239.0000;0.1490;-0.1147;
1239.3000;0.1514;-0.1147;
1239.6000;0.1490;-0.1195;
1239.9000;0.1490;-0.1171;
1240.2000;0.1506;-0.1171;
1240.5000;0.1465;-0.1219;
1240.8000;0.1481;-0.1099;
1241.1000;0.1530;-0.0932;
1241.4000;0.1506;-0.0956;
1241.7000;0.1514;-0.1051;
1242.0000;0.1514;-0.1004;
1242.3000;0.1490;-0.1099;
1242.6000;0.1498;-0.1099;
1242.9000;0.1473;-0.1147;
1243.2000;0.1514;-0.1028;
1243.5000;0.1506;-0.1028;
1243.8000;0.1506;-0.1028;
1244.1000;0.1490;-0.1051;
1244.4000;0.1490;-0.1004;
1244.7000;0.1490;-0.0980;
1245.0000;0.1490;-0.0980;
1245.3000;0.1490;-0.0908;
1245.6000;0.1506;-0.0908;
1245.9000;0.1547;-0.0765;
1246.2000;0.1498;-0.1028;
1246.5000;0.1481;-0.1099;
1246.8000;0.1538;-0.0884;
1247.1000;0.1506;-0.0956;
1247.4000;0.1514;-0.0932;
1247.7000;0.1490;-0.0956;
1248.0000;0.1449;-0.1004;
1248.3000;0.1481;-0.0836;
1248.6000;0.1522;-0.0765;
1248.9000;0.1522;-0.0836;
1249.2000;0.1473;-0.0980;
1249.5000;0.1498;-0.0908;
1249.8000;0.1506;-0.0932;
1250.1000;0.1498;-0.0980;
1250.4000;0.1465;-0.1147;
1250.7000;0.1506;-0.1004;
1251.0000;0.1498;-0.1004;
1251.3000;0.1498;-0.0932;
1251.6000;0.1506;-0.0908;
1251.9000;0.1555;-0.0860;
1252.2000;0.1579;-0.0836;
1252.5000;0.1506;-0.0932;
1252.8000;0.1506;-0.1051;
1253.1000;0.1490;-0.1099;
1253.4000;0.1359;-0.1482;
1253.7000;0.1490;-0.1099;
1254.0000;0.1522;-0.1099;
1254.3000;0.1514;-0.1147;
1254.6000;0.1498;-0.1243;
1254.9000;0.1481;-0.1243;
1255.2000;0.1506;-0.1123;
1255.5000;0.1530;-0.0956;
1255.8000;0.1498;-0.1051;
1256.1000;0.1514;-0.1051;
1256.4000;0.1498;-0.1028;
1256.7000;0.1522;-0.0980;
1257.0000;0.1481;-0.1004;
1257.3000;0.1490;-0.0980;
1257.6000;0.1506;-0.0908;
1257.9000;0.1506;-0.0908;
1258.2000;0.1547;-0.0812;
1258.5000;0.1416;-0.1075;
1258.8000;0.1473;-0.0908;
1259.1000;0.1498;-0.0860;
1259.4000;0.1514;-0.0908;
1259.7000;0.1571;-0.0789;
1260.0000;0.1490;-0.1075;
1260.3000;0.1481;-0.1051;
1260.6000;0.1530;-0.0908;
1260.9000;0.1498;-0.1028;
1261.2000;0.1473;-0.1028;
1261.5000;0.1506;-0.0884;
1261.8000;0.1473;-0.1004;
1262.1000;0.1481;-0.0932;
1262.4000;0.1490;-0.0908;
1262.7000;0.1490;-0.0884;
1263.0000;0.1368;-0.1243;
1263.3000;0.1506;-0.0812;
1263.6000;0.1465;-0.0860;
1263.9000;0.1506;-0.0908;
1264.2000;0.1490;-0.0956;
1264.5000;0.1498;-0.0884;
1264.8000;0.1604;-0.0574;
1265.1000;0.1506;-0.0860;
1265.4000;0.1514;-0.0932;
1265.7000;0.1498;-0.1028;
1266.0000;0.1506;-0.1075;
1266.3000;0.1498;-0.0980;
1266.6000;0.1506;-0.0956;
1266.9000;0.1530;-0.0789;
1267.2000;0.1498;-0.0836;
1267.5000;0.1449;-0.0980;
1267.8000;0.1498;-0.0956;
1268.1000;0.1506;-0.0956;
1268.4000;0.1498;-0.0980;
1268.7000;0.1490;-0.0884;
1269.0000;0.1481;-0.0860;
1269.3000;0.1506;-0.0741;
1269.6000;0.1490;-0.0789;
1269.9000;0.1514;-0.0884;
1270.2000;0.1498;-0.0908;
1270.5000;0.1506;-0.0956;
1270.8000;0.1506;-0.0980;
1271.1000;0.1498;-0.0956;
1271.4000;0.1506;-0.0908;
1271.7000;0.1433;-0.1075;
1272.0000;0.1506;-0.0932;
1272.3000;0.1490;-0.0956;
1272.6000;0.1490;-0.0932;
1272.9000;0.1490;-0.0860;
1273.2000;0.1644;-0.0382;
1273.5000;0.1522;-0.0812;
1273.8000;0.1498;-0.0956;
1274.1000;0.1538;-0.0884;
1274.4000;0.1506;-0.1004;
1274.7000;0.1506;-0.1099;
1275.0000;0.1522;-0.1075;
1275.3000;0.1571;-0.1028;
1275.6000;0.1538;-0.1171;
1275.9000;0.1498;-0.1243;
1276.2000;0.1473;-0.1338;
1276.5000;0.1465;-0.1410;
1276.8000;0.1490;-0.1386;
1277.1000;0.1522;-0.1314;
1277.4000;0.1538;-0.1314;
1277.7000;0.1490;-0.1290;
1278.0000;0.1498;-0.1362;
1278.3000;0.1498;-0.1338;
1278.6000;0.1506;-0.1290;
1278.9000;0.1604;-0.0932;
1279.2000;0.1506;-0.1123;
1279.5000;0.1514;-0.1099;
1279.8000;0.1514;-0.1028;
1280.1000;0.1408;-0.1338;
1280.4000;0.1433;-0.1314;
1280.7000;0.1514;-0.1075;
1281.0000;0.1555;-0.1004;
1281.3000;0.1506;-0.1171;
1281.6000;0.1563;-0.1051;
1281.9000;0.1498;-0.1171;
1282.2000;0.1490;-0.1147;
1282.5000;0.1538;-0.0908;
1282.8000;0.1481;-0.1099;
1283.1000;0.1481;-0.1004;
1283.4000;0.1473;-0.1004;
1283.7000;0.1490;-0.0956;
1284.0000;0.1506;-0.0908;
1284.3000;0.1490;-0.0932;
1284.6000;0.1604;-0.0669;
1284.9000;0.1506;-0.0908;
1285.2000;0.1514;-0.0932;
1285.5000;0.1506;-0.0956;
1285.8000;0.1473;-0.1075;
1286.1000;0.1498;-0.0980;
1286.4000;0.1522;-0.0884;
1286.7000;0.1506;-0.0980;
1287.0000;0.1604;-0.0765;
1287.3000;0.1514;-0.0932;
1287.6000;0.1506;-0.0956;
1287.9000;0.1473;-0.0884;
1288.2000;0.1490;-0.0884;
1288.5000;0.1481;-0.0765;
1288.8000;0.1498;-0.0741;
1289.1000;0.1522;-0.0836;
1289.4000;0.1498;-0.0956;
1289.7000;0.1506;-0.1004;
1290.0000;0.1506;-0.1099;
1290.3000;0.1514;-0.1147;
1290.6000;0.1481;-0.1171;
1290.9000;0.1506;-0.1075;
1291.2000;0.1490;-0.1219;
1291.5000;0.1506;-0.1195;
1291.8000;0.1449;-0.1219;
1292.1000;0.1506;-0.0956;
1292.4000;0.1506;-0.0908;
1292.7000;0.1506;-0.0812;
1293.0000;0.1514;-0.0741;
1293.3000;0.1498;-0.0789;
1293.6000;0.1498;-0.0765;
1293.9000;0.1506;-0.0765;
1294.2000;0.1481;-0.0789;
1294.5000;0.1498;-0.0836;
1294.8000;0.1522;-0.0789;
1295.1000;0.1498;-0.0932;
1295.4000;0.1481;-0.0956;
1295.7000;0.1555;-0.0741;
1296.0000;0.1506;-0.0908;
1296.3000;0.1514;-0.0956;
1296.6000;0.1506;-0.0956;
1296.9000;0.1457;-0.1051;
1297.2000;0.1506;-0.0980;
1297.5000;0.1498;-0.0932;
1297.8000;0.1514;-0.0932;
1298.1000;0.1498;-0.1051;
1298.4000;0.1481;-0.0980;
1298.7000;0.1490;-0.0980;
1299.0000;0.1530;-0.0956;
1299.3000;0.1481;-0.1075;
1299.6000;0.1490;-0.1004;
1299.9000;0.1481;-0.0980;
1300.2000;0.1506;-0.0932;
1300.5000;0.1498;-0.0884;
1300.8000;0.1563;-0.0693;
1301.1000;0.1498;-0.0812;
1301.4000;0.1498;-0.0812;
1301.7000;0.1514;-0.0741;
1302.0000;0.1506;-0.0741;
1302.3000;0.1506;-0.0812;
1302.6000;0.1498;-0.0908;
1302.9000;0.1490;-0.0908;
1303.2000;0.1498;-0.0932;
1303.5000;0.1490;-0.1051;
1303.8000;0.1473;-0.1171;
1304.1000;0.1441;-0.1266;
1304.4000;0.1506;-0.1123;
1304.7000;0.1449;-0.1219;
1305.0000;0.1449;-0.1171;
1305.3000;0.1481;-0.1004;
1305.6000;0.1514;-0.0956;
1305.9000;0.1490;-0.0956;
1306.2000;0.1481;-0.1004;
1306.5000;0.1522;-0.0980;
1306.8000;0.1498;-0.1075;
1307.1000;0.1522;-0.1075;
1307.4000;0.1506;-0.1099;
1307.7000;0.1506;-0.0980;
1308.0000;0.1522;-0.0932;
1308.3000;0.1514;-0.0932;
1308.6000;0.1538;-0.0860;
1308.9000;0.1490;-0.0980;
1309.2000;0.1481;-0.1075;
1309.5000;0.1498;-0.0980;
1309.8000;0.1538;-0.0860;
1310.1000;0.1506;-0.1028;
1310.4000;0.1498;-0.1123;
1310.7000;0.1506;-0.1051;
1311.0000;0.1498;-0.1075;
1311.3000;0.1481;-0.1075;
1311.6000;0.1514;-0.0908;
1311.9000;0.1587;-0.0765;
1312.2000;0.1490;-0.1051;
1312.5000;0.1506;-0.0932;
1312.8000;0.1416;-0.1147;
1313.1000;0.1522;-0.0765;
1313.4000;0.1490;-0.0765;
1313.7000;0.1481;-0.0812;
1314.0000;0.1498;-0.0884;
1314.3000;0.1522;-0.0836;
1314.6000;0.1506;-0.0860;
1314.9000;0.1457;-0.1099;
1315.2000;0.1481;-0.1051;
1315.5000;0.1481;-0.1099;
1315.8000;0.1571;-0.0765;
1316.1000;0.1498;-0.1051;
1316.4000;0.1587;-0.0717;
1316.7000;0.1481;-0.0980;
1317.0000;0.1490;-0.0980;
1317.3000;0.1490;-0.0980;
1317.6000;0.1506;-0.0956;
1317.9000;0.1465;-0.1147;
1318.2000;0.1498;-0.1147;
1318.5000;0.1498;-0.1195;
1318.8000;0.1514;-0.1075;
1319.1000;0.1514;-0.1075;
1319.4000;0.1506;-0.1123;
1319.7000;0.1514;-0.1051;
1320.0000;0.1481;-0.1099;
1320.3000;0.1506;-0.1099;
1320.6000;0.1490;-0.1123;
1320.9000;0.1498;-0.1051;
1321.2000;0.1490;-0.1123;
1321.5000;0.1490;-0.1123;
1321.8000;0.1481;-0.1219;
1322.1000;0.1408;-0.1386;
1322.4000;0.1506;-0.1123;
1322.7000;0.1490;-0.1123;
1323.0000;0.1490;-0.1075;
1323.3000;0.1506;-0.1028;
1323.6000;0.1652;-0.0621;
1323.9000;0.1547;-0.0932;
1324.2000;0.1514;-0.1004;
1324.5000;0.1595;-0.0908;
1324.8000;0.1522;-0.1123;
1325.1000;0.1506;-0.1123;
1325.4000;0.1376;-0.1410;
1325.7000;0.1538;-0.0980;
1326.0000;0.1506;-0.1004;
1326.3000;0.1530;-0.0980;
1326.6000;0.1506;-0.1099;
1326.9000;0.1514;-0.1243;
1327.2000;0.1498;-0.1290;
1327.5000;0.1490;-0.1362;
1327.8000;0.1514;-0.1338;
1328.1000;0.1498;-0.1338;
1328.4000;0.1498;-0.1362;
1328.7000;0.1506;-0.1362;
1329.0000;0.1498;-0.1338;
1329.3000;0.1498;-0.1290;
1329.6000;0.1514;-0.1290;
1329.9000;0.1530;-0.1219;
1330.2000;0.1465;-0.1410;
1330.5000;0.1547;-0.1195;
1330.8000;0.1514;-0.1147;
1331.1000;0.1481;-0.1195;
1331.4000;0.1514;-0.1051;
1331.7000;0.1555;-0.0884;
1332.0000;0.1473;-0.1051;
1332.3000;0.1490;-0.0956;
1332.6000;0.1595;-0.0741;
1332.9000;0.1530;-0.0932;
1333.2000;0.1498;-0.1051;
1333.5000;0.1514;-0.1004;
1333.8000;0.1506;-0.1004;
1334.1000;0.1506;-0.1099;
1334.4000;0.1481;-0.1195;
1334.7000;0.1506;-0.1099;
1335.0000;0.1514;-0.1004;
1335.3000;0.1490;-0.1075;
1335.6000;0.1498;-0.1051;
1335.9000;0.1571;-0.0741;
1336.2000;0.1473;-0.0932;
1336.5000;0.1514;-0.0836;
1336.8000;0.1498;-0.0860;
1337.1000;0.1490;-0.0812;
1337.4000;0.1498;-0.0789;
1337.7000;0.1490;-0.0812;
1338.0000;0.1522;-0.0789;
1338.3000;0.1506;-0.0884;
1338.6000;0.1490;-0.0884;
1338.9000;0.1498;-0.0908;
1339.2000;0.1547;-0.0836;
1339.5000;0.1498;-0.1028;
1339.8000;0.1522;-0.0908;
1340.1000;0.1481;-0.1004;
1340.4000;0.1514;-0.0956;
1340.7000;0.1498;-0.1004;
1341.0000;0.1506;-0.1051;
1341.3000;0.1498;-0.1123;
1341.6000;0.1506;-0.1099;
1341.9000;0.1587;-0.0908;
1342.2000;0.1522;-0.1028;
1342.5000;0.1465;-0.1099;
1342.8000;0.1563;-0.0956;
1343.1000;0.1498;-0.1051;
1343.4000;0.1530;-0.0956;
1343.7000;0.1506;-0.1004;
1344.0000;0.1506;-0.1075;
1344.3000;0.1490;-0.1123;
1344.6000;0.1498;-0.0956;
1344.9000;0.1506;-0.0980;
1345.2000;0.1506;-0.1004;
1345.5000;0.1498;-0.1004;
1345.8000;0.1498;-0.0956;
1346.1000;0.1465;-0.1075;
1346.4000;0.1498;-0.0908;
1346.7000;0.1498;-0.0884;
1347.0000;0.1563;-0.0765;
1347.3000;0.1514;-0.0860;
1347.6000;0.1506;-0.0884;
1347.9000;0.1506;-0.0860;
1348.2000;0.1530;-0.0860;
1348.5000;0.1490;-0.0956;
1348.8000;0.1514;-0.0908;
1349.1000;0.1514;-0.0908;
1349.4000;0.1587;-0.0693;
1349.7000;0.1490;-0.0908;
1350.0000;0.1498;-0.0860;
1350.3000;0.1498;-0.0836;
1350.6000;0.1506;-0.0789;
1350.9000;0.1522;-0.0765;
1351.2000;0.1563;-0.0645;
1351.5000;0.1481;-0.0884;
1351.8000;0.1473;-0.0908;
1352.1000;0.1498;-0.0812;
1352.4000;0.1473;-0.0956;
1352.7000;0.1490;-0.0860;
1353.0000;0.1498;-0.0812;
1353.3000;0.1498;-0.0836;
1353.6000;0.1514;-0.0812;
1353.9000;0.1514;-0.0789;
1354.2000;0.1506;-0.0789;
1354.5000;0.1514;-0.0812;
1354.8000;0.1498;-0.0932;
1355.1000;0.1506;-0.0908;
1355.4000;0.1514;-0.0836;
1355.7000;0.1522;-0.0860;
1356.0000;0.1514;-0.0884;
1356.3000;0.1506;-0.0884;
1356.6000;0.1522;-0.0836;
1356.9000;0.1522;-0.0836;
1357.2000;0.1522;-0.0836;
1357.5000;0.1514;-0.0884;
1357.8000;0.1506;-0.0932;
1358.1000;0.1490;-0.1075;
1358.4000;0.1506;-0.0956;
1358.7000;0.1498;-0.0884;
1359.0000;0.1506;-0.0884;
1359.3000;0.1506;-0.0860;
1359.6000;0.1555;-0.0884;
1359.9000;0.1408;-0.1243;
1360.2000;0.1498;-0.1051;
1360.5000;0.1490;-0.1051;
1360.8000;0.1514;-0.1028;
1361.1000;0.1498;-0.0980;
1361.4000;0.1547;-0.0860;
1361.7000;0.1514;-0.1004;
1362.0000;0.1506;-0.0980;
1362.3000;0.1498;-0.1051;
1362.6000;0.1506;-0.1028;
1362.9000;0.1506;-0.0932;
1363.2000;0.1481;-0.1075;
1363.5000;0.1522;-0.0980;
1363.8000;0.1506;-0.1099;
1364.1000;0.1481;-0.1123;
1364.4000;0.1490;-0.1147;
1364.7000;0.1612;-0.0765;
1365.0000;0.1490;-0.1075;
1365.3000;0.1449;-0.1219;
1365.6000;0.1490;-0.1123;
1365.9000;0.1490;-0.1123;
1366.2000;0.1514;-0.1051;
1366.5000;0.1506;-0.1123;
1366.8000;0.1514;-0.1051;
1367.1000;0.1506;-0.1099;
1367.4000;0.1506;-0.1147;
1367.7000;0.1522;-0.1123;
1368.0000;0.1498;-0.1171;
1368.3000;0.1579;-0.1004;
1368.6000;0.1530;-0.1147;
1368.9000;0.1498;-0.1219;
1369.2000;0.1506;-0.1075;
1369.5000;0.1506;-0.1075;
1369.8000;0.1433;-0.1338;
1370.1000;0.1490;-0.1147;
1370.4000;0.1481;-0.1147;
1370.7000;0.1490;-0.1123;
1371.0000;0.1514;-0.1075;
1371.3000;0.1571;-0.0836;
1371.6000;0.1538;-0.0908;
1371.9000;0.1506;-0.0884;
1372.2000;0.1490;-0.0980;
1372.5000;0.1555;-0.0860;
1372.8000;0.1490;-0.1075;
1373.1000;0.1514;-0.0980;
1373.4000;0.1490;-0.1123;
1373.7000;0.1441;-0.1290;
1374.0000;0.1498;-0.1243;
1374.3000;0.1522;-0.1171;
1374.6000;0.1490;-0.1195;
1374.9000;0.1506;-0.1075;
1375.2000;0.1514;-0.1004;
1375.5000;0.1481;-0.1123;
1375.8000;0.1498;-0.1051;
1376.1000;0.1473;-0.1219;
1376.4000;0.1514;-0.1099;
1376.7000;0.1506;-0.1123;
1377.0000;0.1522;-0.1171;
1377.3000;0.1522;-0.1171;
1377.6000;0.1498;-0.1147;
1377.9000;0.1522;-0.1075;
1378.2000;0.1514;-0.1051;
1378.5000;0.1498;-0.1075;
1378.8000;0.1481;-0.1075;
1379.1000;0.1498;-0.1123;
1379.4000;0.1481;-0.1051;
1379.7000;0.1563;-0.0812;
1380.0000;0.1498;-0.0980;
1380.3000;0.1498;-0.1028;
1380.6000;0.1490;-0.1075;
1380.9000;0.1490;-0.1075;
1381.2000;0.1490;-0.1171;
1381.5000;0.1498;-0.1195;
1381.8000;0.1530;-0.1171;
1382.1000;0.1498;-0.1290;
1382.4000;0.1498;-0.1338;
1382.7000;0.1506;-0.1314;
1383.0000;0.1530;-0.1290;
1383.3000;0.1571;-0.1195;
1383.6000;0.1522;-0.1314;
1383.9000;0.1490;-0.1434;
1384.2000;0.1506;-0.1529;
1384.5000;0.1490;-0.1577;
1384.8000;0.1506;-0.1553;
1385.1000;0.1579;-0.1314;
1385.4000;0.1473;-0.1553;
1385.7000;0.1416;-0.1744;
1386.0000;0.1506;-0.1482;
1386.3000;0.1506;-0.1434;
1386.6000;0.1506;-0.1362;
1386.9000;0.1547;-0.1147;
1387.2000;0.1506;-0.1171;
1387.5000;0.1522;-0.1099;
1387.8000;0.1530;-0.1147;
1388.1000;0.1498;-0.1266;
1388.4000;0.1498;-0.1290;
1388.7000;0.1498;-0.1266;
1389.0000;0.1498;-0.1219;
1389.3000;0.1416;-0.1290;
1389.6000;0.1522;-0.0956;
1389.9000;0.1441;-0.1195;
1390.2000;0.1481;-0.0980;
1390.5000;0.1498;-0.0956;
1390.8000;0.1490;-0.0884;
1391.1000;0.1490;-0.0789;
1391.4000;0.1514;-0.0836;
1391.7000;0.1498;-0.0884;
1392.0000;0.1498;-0.0884;
1392.3000;0.1473;-0.0956;
1392.6000;0.1506;-0.0908;
1392.9000;0.1530;-0.0860;
1393.2000;0.1490;-0.0836;
1393.5000;0.1490;-0.0836;
1393.8000;0.1522;-0.0693;
1394.1000;0.1490;-0.0717;
1394.4000;0.1425;-0.0884;
1394.7000;0.1481;-0.0836;
1395.0000;0.1473;-0.0884;
1395.3000;0.1498;-0.0812;
1395.6000;0.1555;-0.0621;
1395.9000;0.1547;-0.0741;
1396.2000;0.1522;-0.0765;
1396.5000;0.1441;-0.1028;
1396.8000;0.1506;-0.0765;
1397.1000;0.1490;-0.0765;
1397.4000;0.1530;-0.0669;
1397.7000;0.1490;-0.0932;
1398.0000;0.1498;-0.0836;
1398.3000;0.1595;-0.0574;
1398.6000;0.1506;-0.0812;
1398.9000;0.1506;-0.0789;
1399.2000;0.1506;-0.0789;
1399.5000;0.1490;-0.0932;
1399.8000;0.1530;-0.0836;
