time/ms;Fluo/V;P700 deltaI/I x10³;
-199.8000;0.1498;-0.1123;
-199.5000;0.1514;-0.1123;
-199.2000;0.1506;-0.1171;
-198.9000;0.1498;-0.1195;
-198.6000;0.1506;-0.1171;
-198.3000;0.1473;-0.1219;
-198.0000;0.1490;-0.1243;
-197.7000;0.1490;-0.1219;
-197.4000;0.1498;-0.1171;
-197.1000;0.1490;-0.1266;
-196.8000;0.1490;-0.1243;
-196.5000;0.1514;-0.1123;
-196.2000;0.1514;-0.1123;
-195.9000;0.1481;-0.1123;
-195.6000;0.1441;-0.1099;
-195.3000;0.1506;-0.0860;
-195.0000;0.1498;-0.0908;
-194.7000;0.1514;-0.1004;
-194.4000;0.1498;-0.1099;
-194.1000;0.1449;-0.1243;
-193.8000;0.1522;-0.1099;
-193.5000;0.1490;-0.1219;
-193.2000;0.1449;-0.1362;
-192.9000;0.1481;-0.1314;
-192.6000;0.1490;-0.1386;
-192.3000;0.1555;-0.1195;
-192.0000;0.1473;-0.1314;
-191.7000;0.1571;-0.1075;
-191.4000;0.1498;-0.1195;
-191.1000;0.1481;-0.1147;
-190.8000;0.1506;-0.1123;
-190.5000;0.1465;-0.1195;
-190.2000;0.1530;-0.1099;
-189.9000;0.1465;-0.1243;
-189.6000;0.1506;-0.1147;
-189.3000;0.1433;-0.1386;
-189.0000;0.1473;-0.1410;
-188.7000;0.1473;-0.1338;
-188.4000;0.1547;-0.1195;
-188.1000;0.1473;-0.1434;
-187.8000;0.1514;-0.1290;
-187.5000;0.1498;-0.1290;
-187.2000;0.1457;-0.1458;
-186.9000;0.1498;-0.1434;
-186.6000;0.1473;-0.1458;
-186.3000;0.1473;-0.1410;
-186.0000;0.1490;-0.1338;
-185.7000;0.1457;-0.1290;
-185.4000;0.1481;-0.1266;
-185.1000;0.1473;-0.1290;
-184.8000;0.1506;-0.1266;
-184.5000;0.1465;-0.1434;
-184.2000;0.1473;-0.1434;
-183.9000;0.1481;-0.1410;
-183.6000;0.1498;-0.1482;
-183.3000;0.1490;-0.1529;
-183.0000;0.1498;-0.1458;
-182.7000;0.1514;-0.1362;
-182.4000;0.1392;-0.1649;
-182.1000;0.1563;-0.1171;
-181.8000;0.1490;-0.1386;
-181.5000;0.1579;-0.1171;
-181.2000;0.1490;-0.1338;
-180.9000;0.1506;-0.1338;
-180.6000;0.1490;-0.1362;
-180.3000;0.1490;-0.1290;
-180.0000;0.1481;-0.1243;
-179.7000;0.1481;-0.1266;
-179.4000;0.1514;-0.1290;
-179.1000;0.1498;-0.1410;
-178.8000;0.1506;-0.1386;
-178.5000;0.1498;-0.1362;
-178.2000;0.1425;-0.1482;
-177.9000;0.1530;-0.1171;
-177.6000;0.1587;-0.1004;
-177.3000;0.1522;-0.1266;
-177.0000;0.1498;-0.1290;
-176.7000;0.1465;-0.1362;
-176.4000;0.1473;-0.1338;
-176.1000;0.1457;-0.1410;
-175.8000;0.1359;-0.1673;
-175.5000;0.1473;-0.1386;
-175.2000;0.1490;-0.1386;
-174.9000;0.1514;-0.1290;
-174.6000;0.1506;-0.1219;
-174.3000;0.1481;-0.1386;
-174.0000;0.1498;-0.1386;
-173.7000;0.1481;-0.1482;
-173.4000;0.1571;-0.1219;
-173.1000;0.1465;-0.1601;
-172.8000;0.1490;-0.1529;
-172.5000;0.1506;-0.1529;
-172.2000;0.1498;-0.1505;
-171.9000;0.1538;-0.1434;
-171.6000;0.1587;-0.1314;
-171.3000;0.1481;-0.1505;
-171.0000;0.1514;-0.1338;
-170.7000;0.1506;-0.1338;
-170.4000;0.1506;-0.1314;
-170.1000;0.1490;-0.1338;
-169.8000;0.1481;-0.1290;
-169.5000;0.1481;-0.1338;
-169.2000;0.1490;-0.1338;
-168.9000;0.1481;-0.1338;
-168.6000;0.1481;-0.1338;
-168.3000;0.1490;-0.1338;
-168.0000;0.1522;-0.1314;
-167.7000;0.1563;-0.1195;
-167.4000;0.1490;-0.1386;
-167.1000;0.1498;-0.1434;
-166.8000;0.1457;-0.1553;
-166.5000;0.1506;-0.1458;
-166.2000;0.1449;-0.1577;
-165.9000;0.1514;-0.1410;
-165.6000;0.1498;-0.1458;
-165.3000;0.1530;-0.1362;
-165.0000;0.1449;-0.1505;
-164.7000;0.1490;-0.1338;
-164.4000;0.1457;-0.1482;
-164.1000;0.1506;-0.1290;
-163.8000;0.1490;-0.1362;
-163.5000;0.1490;-0.1362;
-163.2000;0.1498;-0.1314;
-162.9000;0.1506;-0.1314;
-162.6000;0.1498;-0.1314;
-162.3000;0.1408;-0.1529;
-162.0000;0.1490;-0.1266;
-161.7000;0.1506;-0.1219;
-161.4000;0.1506;-0.1219;
-161.1000;0.1522;-0.1171;
-160.8000;0.1498;-0.1219;
-160.5000;0.1490;-0.1195;
-160.2000;0.1563;-0.1051;
-159.9000;0.1481;-0.1314;
-159.6000;0.1514;-0.1219;
-159.3000;0.1481;-0.1314;
-159.0000;0.1506;-0.1362;
-158.7000;0.1490;-0.1386;
-158.4000;0.1506;-0.1386;
-158.1000;0.1490;-0.1362;
-157.8000;0.1490;-0.1362;
-157.5000;0.1481;-0.1458;
-157.2000;0.1441;-0.1673;
-156.9000;0.1473;-0.1505;
-156.6000;0.1465;-0.1410;
-156.3000;0.1481;-0.1386;
-156.0000;0.1498;-0.1290;
-155.7000;0.1498;-0.1314;
-155.4000;0.1433;-0.1458;
-155.1000;0.1506;-0.1314;
-154.8000;0.1490;-0.1266;
-154.5000;0.1498;-0.1147;
-154.2000;0.1490;-0.1243;
-153.9000;0.1490;-0.1314;
-153.6000;0.1498;-0.1266;
-153.3000;0.1473;-0.1290;
-153.0000;0.1465;-0.1314;
-152.7000;0.1514;-0.1195;
-152.4000;0.1465;-0.1243;
-152.1000;0.1481;-0.1290;
-151.8000;0.1579;-0.1028;
-151.5000;0.1538;-0.1219;
-151.2000;0.1506;-0.1290;
-150.9000;0.1490;-0.1290;
-150.6000;0.1506;-0.1290;
-150.3000;0.1481;-0.1266;
-150.0000;0.1571;-0.1028;
-149.7000;0.1481;-0.1243;
-149.4000;0.1490;-0.1195;
-149.1000;0.1506;-0.1195;
-148.8000;0.1538;-0.1099;
-148.5000;0.1498;-0.1290;
-148.2000;0.1473;-0.1338;
-147.9000;0.1490;-0.1314;
-147.6000;0.1490;-0.1171;
-147.3000;0.1473;-0.1147;
-147.0000;0.1481;-0.1004;
-146.7000;0.1481;-0.1028;
-146.4000;0.1449;-0.1147;
-146.1000;0.1514;-0.1004;
-145.8000;0.1425;-0.1290;
-145.5000;0.1506;-0.1123;
-145.2000;0.1498;-0.1147;
-144.9000;0.1514;-0.1171;
-144.6000;0.1506;-0.1243;
-144.3000;0.1538;-0.1123;
-144.0000;0.1498;-0.1266;
-143.7000;0.1441;-0.1434;
-143.4000;0.1506;-0.1266;
-143.1000;0.1555;-0.1171;
-142.8000;0.1506;-0.1219;
-142.5000;0.1506;-0.1195;
-142.2000;0.1473;-0.1195;
-141.9000;0.1506;-0.1195;
-141.6000;0.1481;-0.1266;
-141.3000;0.1473;-0.1362;
-141.0000;0.1481;-0.1314;
-140.7000;0.1465;-0.1386;
-140.4000;0.1473;-0.1410;
-140.1000;0.1490;-0.1434;
-139.8000;0.1506;-0.1362;
-139.5000;0.1498;-0.1362;
-139.2000;0.1498;-0.1290;
-138.9000;0.1498;-0.1386;
-138.6000;0.1522;-0.1386;
-138.3000;0.1473;-0.1386;
-138.0000;0.1506;-0.1386;
-137.7000;0.1498;-0.1362;
-137.4000;0.1481;-0.1338;
-137.1000;0.1490;-0.1290;
-136.8000;0.1481;-0.1338;
-136.5000;0.1490;-0.1243;
-136.2000;0.1481;-0.1290;
-135.9000;0.1498;-0.1219;
-135.6000;0.1506;-0.1195;
-135.3000;0.1506;-0.1195;
-135.0000;0.1522;-0.1147;
-134.7000;0.1563;-0.0932;
-134.4000;0.1514;-0.1075;
-134.1000;0.1506;-0.1099;
-133.8000;0.1498;-0.1099;
-133.5000;0.1498;-0.1123;
-133.2000;0.1547;-0.1028;
-132.9000;0.1481;-0.1195;
-132.6000;0.1506;-0.1075;
-132.3000;0.1384;-0.1458;
-132.0000;0.1490;-0.1171;
-131.7000;0.1490;-0.1147;
-131.4000;0.1465;-0.1243;
-131.1000;0.1498;-0.1195;
-130.8000;0.1490;-0.1266;
-130.5000;0.1498;-0.1243;
-130.2000;0.1449;-0.1434;
-129.9000;0.1425;-0.1577;
-129.6000;0.1490;-0.1362;
-129.3000;0.1506;-0.1266;
-129.0000;0.1506;-0.1243;
-128.7000;0.1490;-0.1338;
-128.4000;0.1506;-0.1243;
-128.1000;0.1522;-0.1195;
-127.8000;0.1473;-0.1290;
-127.5000;0.1481;-0.1290;
-127.2000;0.1481;-0.1243;
-126.9000;0.1514;-0.1123;
-126.6000;0.1481;-0.1195;
-126.3000;0.1473;-0.1266;
-126.0000;0.1490;-0.1219;
-125.7000;0.1571;-0.1004;
-125.4000;0.1547;-0.1123;
-125.1000;0.1506;-0.1266;
-124.8000;0.1359;-0.1649;
-124.5000;0.1498;-0.1243;
-124.2000;0.1481;-0.1362;
-123.9000;0.1498;-0.1290;
-123.6000;0.1522;-0.1195;
-123.3000;0.1498;-0.1314;
-123.0000;0.1490;-0.1386;
-122.7000;0.1628;-0.0908;
-122.4000;0.1465;-0.1338;
-122.1000;0.1498;-0.1314;
-121.8000;0.1555;-0.1219;
-121.5000;0.1506;-0.1362;
-121.2000;0.1538;-0.1219;
-120.9000;0.1481;-0.1219;
-120.6000;0.1506;-0.1219;
-120.3000;0.1506;-0.1243;
-120.0000;0.1481;-0.1338;
-119.7000;0.1498;-0.1266;
-119.4000;0.1490;-0.1314;
-119.1000;0.1514;-0.1243;
-118.8000;0.1498;-0.1338;
-118.5000;0.1506;-0.1243;
-118.2000;0.1547;-0.1123;
-117.9000;0.1498;-0.1314;
-117.6000;0.1481;-0.1386;
-117.3000;0.1530;-0.1171;
-117.0000;0.1514;-0.1219;
-116.7000;0.1530;-0.1243;
-116.4000;0.1449;-0.1434;
-116.1000;0.1644;-0.0836;
-115.8000;0.1490;-0.1314;
-115.5000;0.1571;-0.1123;
-115.2000;0.1498;-0.1243;
-114.9000;0.1490;-0.1290;
-114.6000;0.1473;-0.1410;
-114.3000;0.1481;-0.1362;
-114.0000;0.1506;-0.1410;
-113.7000;0.1498;-0.1458;
-113.4000;0.1514;-0.1386;
-113.1000;0.1490;-0.1410;
-112.8000;0.1490;-0.1338;
-112.5000;0.1506;-0.1386;
-112.2000;0.1490;-0.1458;
-111.9000;0.1481;-0.1553;
-111.6000;0.1498;-0.1505;
-111.3000;0.1490;-0.1529;
-111.0000;0.1490;-0.1577;
-110.7000;0.1514;-0.1434;
-110.4000;0.1522;-0.1338;
-110.1000;0.1490;-0.1458;
-109.8000;0.1522;-0.1290;
-109.5000;0.1498;-0.1290;
-109.2000;0.1457;-0.1434;
-108.9000;0.1506;-0.1362;
-108.6000;0.1514;-0.1219;
-108.3000;0.1490;-0.1338;
-108.0000;0.1481;-0.1362;
-107.7000;0.1506;-0.1338;
-107.4000;0.1481;-0.1314;
-107.1000;0.1498;-0.1243;
-106.8000;0.1506;-0.1195;
-106.5000;0.1490;-0.1219;
-106.2000;0.1514;-0.1075;
-105.9000;0.1506;-0.1147;
-105.6000;0.1530;-0.1195;
-105.3000;0.1506;-0.1266;
-105.0000;0.1506;-0.1147;
-104.7000;0.1498;-0.1147;
-104.4000;0.1522;-0.1051;
-104.1000;0.1506;-0.1123;
-103.8000;0.1514;-0.1099;
-103.5000;0.1473;-0.1195;
-103.2000;0.1465;-0.1195;
-102.9000;0.1473;-0.1195;
-102.6000;0.1506;-0.1171;
-102.3000;0.1490;-0.1171;
-102.0000;0.1481;-0.1171;
-101.7000;0.1416;-0.1386;
-101.4000;0.1498;-0.1266;
-101.1000;0.1514;-0.1219;
-100.8000;0.1490;-0.1266;
-100.5000;0.1465;-0.1338;
-100.2000;0.1465;-0.1338;
-99.9000;0.1498;-0.1219;
-99.6000;0.1506;-0.1243;
-99.3000;0.1498;-0.1290;
-99.0000;0.1490;-0.1338;
-98.7000;0.1547;-0.1171;
-98.4000;0.1465;-0.1338;
-98.1000;0.1498;-0.1123;
-97.8000;0.1481;-0.1171;
-97.5000;0.1490;-0.1075;
-97.2000;0.1481;-0.1123;
-96.9000;0.1506;-0.1147;
-96.6000;0.1481;-0.1195;
-96.3000;0.1481;-0.1171;
-96.0000;0.1555;-0.1028;
-95.7000;0.1522;-0.1195;
-95.4000;0.1514;-0.1147;
-95.1000;0.1457;-0.1314;
-94.8000;0.1498;-0.1171;
-94.5000;0.1498;-0.1219;
-94.2000;0.1498;-0.1338;
-93.9000;0.1498;-0.1338;
-93.6000;0.1465;-0.1482;
-93.3000;0.1514;-0.1362;
-93.0000;0.1473;-0.1386;
-92.7000;0.1408;-0.1577;
-92.4000;0.1433;-0.1553;
-92.1000;0.1449;-0.1529;
-91.8000;0.1514;-0.1243;
-91.5000;0.1498;-0.1314;
-91.2000;0.1514;-0.1243;
-90.9000;0.1457;-0.1314;
-90.6000;0.1506;-0.1219;
-90.3000;0.1530;-0.1195;
-90.0000;0.1481;-0.1314;
-89.7000;0.1506;-0.1266;
-89.4000;0.1498;-0.1243;
-89.1000;0.1514;-0.1171;
-88.8000;0.1506;-0.1171;
-88.5000;0.1481;-0.1243;
-88.2000;0.1465;-0.1266;
-87.9000;0.1498;-0.1266;
-87.6000;0.1490;-0.1266;
-87.3000;0.1465;-0.1386;
-87.0000;0.1514;-0.1290;
-86.7000;0.1498;-0.1434;
-86.4000;0.1506;-0.1458;
-86.1000;0.1522;-0.1434;
-85.8000;0.1490;-0.1434;
-85.5000;0.1498;-0.1482;
-85.2000;0.1522;-0.1410;
-84.9000;0.1490;-0.1434;
-84.6000;0.1490;-0.1482;
-84.3000;0.1498;-0.1410;
-84.0000;0.1498;-0.1338;
-83.7000;0.1490;-0.1410;
-83.4000;0.1538;-0.1243;
-83.1000;0.1506;-0.1290;
-82.8000;0.1530;-0.1099;
-82.5000;0.1506;-0.1099;
-82.2000;0.1473;-0.1195;
-81.9000;0.1498;-0.1171;
-81.6000;0.1481;-0.1219;
-81.3000;0.1506;-0.1123;
-81.0000;0.1522;-0.1051;
-80.7000;0.1473;-0.1099;
-80.4000;0.1498;-0.1099;
-80.1000;0.1490;-0.1171;
-79.8000;0.1595;-0.0812;
-79.5000;0.1490;-0.1099;
-79.2000;0.1571;-0.0932;
-78.9000;0.1538;-0.1051;
-78.6000;0.1498;-0.1147;
-78.3000;0.1498;-0.1171;
-78.0000;0.1481;-0.1243;
-77.7000;0.1514;-0.1219;
-77.4000;0.1441;-0.1386;
-77.1000;0.1490;-0.1219;
-76.8000;0.1522;-0.1147;
-76.5000;0.1498;-0.1290;
-76.2000;0.1506;-0.1243;
-75.9000;0.1506;-0.1266;
-75.6000;0.1490;-0.1195;
-75.3000;0.1498;-0.1147;
-75.0000;0.1490;-0.1171;
-74.7000;0.1449;-0.1362;
-74.4000;0.1449;-0.1386;
-74.1000;0.1506;-0.1195;
-73.8000;0.1506;-0.1147;
-73.5000;0.1522;-0.1147;
-73.2000;0.1506;-0.1219;
-72.9000;0.1506;-0.1243;
-72.6000;0.1506;-0.1266;
-72.3000;0.1563;-0.1123;
-72.0000;0.1498;-0.1266;
-71.7000;0.1465;-0.1362;
-71.4000;0.1490;-0.1314;
-71.1000;0.1506;-0.1314;
-70.8000;0.1490;-0.1338;
-70.5000;0.1506;-0.1290;
-70.2000;0.1522;-0.1195;
-69.9000;0.1490;-0.1243;
-69.6000;0.1522;-0.1123;
-69.3000;0.1473;-0.1338;
-69.0000;0.1506;-0.1266;
-68.7000;0.1498;-0.1362;
-68.4000;0.1473;-0.1529;
-68.1000;0.1506;-0.1482;
-67.8000;0.1481;-0.1625;
-67.5000;0.1490;-0.1601;
-67.2000;0.1514;-0.1529;
-66.9000;0.1514;-0.1505;
-66.6000;0.1481;-0.1529;
-66.3000;0.1433;-0.1673;
-66.0000;0.1498;-0.1458;
-65.7000;0.1481;-0.1505;
-65.4000;0.1498;-0.1505;
-65.1000;0.1473;-0.1458;
-64.8000;0.1498;-0.1482;
-64.5000;0.1490;-0.1458;
-64.2000;0.1457;-0.1529;
-63.9000;0.1595;-0.1051;
-63.6000;0.1514;-0.1243;
-63.3000;0.1514;-0.1147;
-63.0000;0.1514;-0.1123;
-62.7000;0.1498;-0.1099;
-62.4000;0.1490;-0.1171;
-62.1000;0.1481;-0.1171;
-61.8000;0.1490;-0.1123;
-61.5000;0.1481;-0.1123;
-61.2000;0.1481;-0.1195;
-60.9000;0.1498;-0.1075;
-60.6000;0.1490;-0.1123;
-60.3000;0.1538;-0.1099;
-60.0000;0.1473;-0.1195;
-59.7000;0.1506;-0.1123;
-59.4000;0.1498;-0.1075;
-59.1000;0.1514;-0.1075;
-58.8000;0.1514;-0.1075;
-58.5000;0.1530;-0.1075;
-58.2000;0.1530;-0.1099;
-57.9000;0.1522;-0.1075;
-57.6000;0.1506;-0.1051;
-57.3000;0.1490;-0.1051;
-57.0000;0.1498;-0.1123;
-56.7000;0.1555;-0.0956;
-56.4000;0.1506;-0.1195;
-56.1000;0.1498;-0.1195;
-55.8000;0.1498;-0.1123;
-55.5000;0.1498;-0.1195;
-55.2000;0.1498;-0.1314;
-54.9000;0.1473;-0.1362;
-54.6000;0.1498;-0.1266;
-54.3000;0.1490;-0.1266;
-54.0000;0.1498;-0.1314;
-53.7000;0.1481;-0.1243;
-53.4000;0.1514;-0.1099;
-53.1000;0.1490;-0.1123;
-52.8000;0.1514;-0.1075;
-52.5000;0.1498;-0.1266;
-52.2000;0.1506;-0.1195;
-51.9000;0.1343;-0.1553;
-51.6000;0.1514;-0.1219;
-51.3000;0.1506;-0.1266;
-51.0000;0.1473;-0.1314;
-50.7000;0.1530;-0.1147;
-50.4000;0.1400;-0.1505;
-50.1000;0.1473;-0.1362;
-49.8000;0.1433;-0.1529;
-49.5000;0.1498;-0.1434;
-49.2000;0.1465;-0.1482;
-48.9000;0.1457;-0.1505;
-48.6000;0.1506;-0.1314;
-48.3000;0.1498;-0.1314;
-48.0000;0.1522;-0.1314;
-47.7000;0.1490;-0.1314;
-47.4000;0.1465;-0.1338;
-47.1000;0.1490;-0.1243;
-46.8000;0.1498;-0.1219;
-46.5000;0.1490;-0.1290;
-46.2000;0.1490;-0.1195;
-45.9000;0.1490;-0.1171;
-45.6000;0.1490;-0.1123;
-45.3000;0.1490;-0.1195;
-45.0000;0.1441;-0.1410;
-44.7000;0.1506;-0.1314;
-44.4000;0.1465;-0.1243;
-44.1000;0.1498;-0.1171;
-43.8000;0.1490;-0.1171;
-43.5000;0.1506;-0.1099;
-43.2000;0.1506;-0.1028;
-42.9000;0.1490;-0.1147;
-42.6000;0.1433;-0.1362;
-42.3000;0.1555;-0.1028;
-42.0000;0.1506;-0.1195;
-41.7000;0.1506;-0.1290;
-41.4000;0.1506;-0.1123;
-41.1000;0.1490;-0.1147;
-40.8000;0.1465;-0.1219;
-40.5000;0.1490;-0.1195;
-40.2000;0.1498;-0.1171;
-39.9000;0.1538;-0.1123;
-39.6000;0.1473;-0.1219;
-39.3000;0.1457;-0.1290;
-39.0000;0.1481;-0.1243;
-38.7000;0.1490;-0.1123;
-38.4000;0.1506;-0.1123;
-38.1000;0.1449;-0.1386;
-37.8000;0.1498;-0.1266;
-37.5000;0.1490;-0.1314;
-37.2000;0.1498;-0.1338;
-36.9000;0.1579;-0.1123;
-36.6000;0.1498;-0.1266;
-36.3000;0.1481;-0.1338;
-36.0000;0.1490;-0.1314;
-35.7000;0.1473;-0.1362;
-35.4000;0.1481;-0.1314;
-35.1000;0.1490;-0.1266;
-34.8000;0.1522;-0.1171;
-34.5000;0.1473;-0.1266;
-34.2000;0.1457;-0.1338;
-33.9000;0.1514;-0.1171;
-33.6000;0.1481;-0.1290;
-33.3000;0.1473;-0.1314;
-33.0000;0.1490;-0.1386;
-32.7000;0.1490;-0.1386;
-32.4000;0.1498;-0.1290;
-32.1000;0.1490;-0.1266;
-31.8000;0.1481;-0.1266;
-31.5000;0.1351;-0.1697;
-31.2000;0.1498;-0.1338;
-30.9000;0.1481;-0.1362;
-30.6000;0.1490;-0.1314;
-30.3000;0.1490;-0.1314;
-30.0000;0.1498;-0.1266;
-29.7000;0.1490;-0.1314;
-29.4000;0.1481;-0.1338;
-29.1000;0.1498;-0.1314;
-28.8000;0.1498;-0.1290;
-28.5000;0.1498;-0.1290;
-28.2000;0.1490;-0.1314;
-27.9000;0.1481;-0.1410;
-27.6000;0.1506;-0.1362;
-27.3000;0.1506;-0.1410;
-27.0000;0.1604;-0.1243;
-26.7000;0.1498;-0.1458;
-26.4000;0.1530;-0.1410;
-26.1000;0.1514;-0.1362;
-25.8000;0.1490;-0.1386;
-25.5000;0.1547;-0.1338;
-25.2000;0.1514;-0.1386;
-24.9000;0.1506;-0.1386;
-24.6000;0.1652;-0.0860;
-24.3000;0.1498;-0.1266;
-24.0000;0.1473;-0.1386;
-23.7000;0.1547;-0.1243;
-23.4000;0.1506;-0.1243;
-23.1000;0.1522;-0.1290;
-22.8000;0.1490;-0.1386;
-22.5000;0.1473;-0.1482;
-22.2000;0.1498;-0.1386;
-21.9000;0.1547;-0.1290;
-21.6000;0.1530;-0.1314;
-21.3000;0.1433;-0.1458;
-21.0000;0.1490;-0.1219;
-20.7000;0.1498;-0.1266;
-20.4000;0.1457;-0.1314;
-20.1000;0.1433;-0.1386;
-19.8000;0.1514;-0.1219;
-19.5000;0.1481;-0.1219;
-19.2000;0.1481;-0.1171;
-18.9000;0.1481;-0.1123;
-18.6000;0.1498;-0.1051;
-18.3000;0.1490;-0.1028;
-18.0000;0.1498;-0.1099;
-17.7000;0.1490;-0.1123;
-17.4000;0.1506;-0.1123;
-17.1000;0.1481;-0.1171;
-16.8000;0.1522;-0.1123;
-16.5000;0.1522;-0.1147;
-16.2000;0.1481;-0.1266;
-15.9000;0.1441;-0.1386;
-15.6000;0.1514;-0.1266;
-15.3000;0.1473;-0.1314;
-15.0000;0.1530;-0.1219;
-14.7000;0.1490;-0.1362;
-14.4000;0.1481;-0.1505;
-14.1000;0.1522;-0.1266;
-13.8000;0.1473;-0.1338;
-13.5000;0.1490;-0.1290;
-13.2000;0.1490;-0.1266;
-12.9000;0.1416;-0.1434;
-12.6000;0.1506;-0.1314;
-12.3000;0.1481;-0.1314;
-12.0000;0.1522;-0.1195;
-11.7000;0.1506;-0.1171;
-11.4000;0.1498;-0.1195;
-11.1000;0.1490;-0.1243;
-10.8000;0.1490;-0.1219;
-10.5000;0.1498;-0.1195;
-10.2000;0.1498;-0.1362;
-9.9000;0.1490;-0.1434;
-9.6000;0.1498;-0.1362;
-9.3000;0.1498;-0.1314;
-9.0000;0.1473;-0.1314;
-8.7000;0.1514;-0.1243;
-8.4000;0.1498;-0.1243;
-8.1000;0.1490;-0.1266;
-7.8000;0.1457;-0.1386;
-7.5000;0.1490;-0.1338;
-7.2000;0.1490;-0.1219;
-6.9000;0.1555;-0.1051;
-6.6000;0.1571;-0.1051;
-6.3000;0.1506;-0.1219;
-6.0000;0.1457;-0.1338;
-5.7000;0.1441;-0.1434;
-5.4000;0.1514;-0.1171;
-5.1000;0.1498;-0.1099;
-4.8000;0.1473;-0.1147;
-4.5000;0.1490;-0.1171;
-4.2000;0.1538;-0.1051;
-3.9000;0.1514;-0.1147;
-3.6000;0.1498;-0.1219;
-3.3000;0.1563;-0.1075;
-3.0000;0.1506;-0.1243;
-2.7000;0.1563;-0.1099;
-2.4000;0.1506;-0.1243;
-2.1000;0.1490;-0.1219;
-1.8000;0.1457;-0.1314;
-1.5000;0.1522;-0.1195;
-1.2000;0.1481;-0.1195;
-0.9000;0.1351;-0.1529;
-0.6000;0.1555;-0.1004;
-0.3000;0.1490;-0.1219;
0.0000;0.1490;-0.1219;
0.3000;0.1538;-0.1290;
0.6000;0.1514;-0.1362;
0.9000;0.1506;-0.1195;
1.2000;0.1498;-0.1075;
1.5000;0.1522;-0.0836;
1.8000;0.1571;-0.0669;
2.1000;0.1400;-0.1123;
2.4000;0.1481;-0.0812;
2.7000;0.1481;-0.0717;
3.0000;0.1547;-0.0526;
3.3000;0.1530;-0.0358;
3.6000;0.1506;-0.0454;
3.9000;0.1555;-0.0311;
4.2000;0.1522;-0.0311;
4.5000;0.1530;-0.0239;
4.8000;0.1530;-0.0191;
5.1000;0.1530;-0.0215;
5.4000;0.1547;-0.0191;
5.7000;0.1490;-0.0263;
6.0000;0.1506;-0.0167;
6.3000;0.1547;-0.0024;
6.6000;0.1530;-0.0024;
6.9000;0.1563;-0.0024;
7.2000;0.1547;-0.0048;
7.5000;0.1530;-0.0167;
7.8000;0.1530;-0.0191;
8.1000;0.1571;0.0000;
8.4000;0.1538;-0.0191;
8.7000;0.1604;-0.0072;
9.0000;0.1530;-0.0263;
9.3000;0.1555;-0.0119;
9.6000;0.1530;-0.0119;
9.9000;0.1530;-0.0096;
10.2000;0.1547;-0.0048;
10.5000;0.1522;-0.0096;
10.8000;0.1530;-0.0072;
11.1000;0.1547;0.0048;
11.4000;0.1538;-0.0024;
11.7000;0.1547;0.0000;
12.0000;0.1522;-0.0024;
12.3000;0.1530;-0.0072;
12.6000;0.1538;-0.0048;
12.9000;0.1530;-0.0096;
13.2000;0.1555;0.0072;
13.5000;0.1530;0.0024;
13.8000;0.1563;0.0048;
14.1000;0.1522;0.0072;
14.4000;0.1506;-0.0048;
14.7000;0.1522;-0.0024;
15.0000;0.1547;0.0048;
15.3000;0.1530;0.0096;
15.6000;0.1506;-0.0048;
15.9000;0.1506;0.0000;
16.2000;0.1498;-0.0048;
16.5000;0.1538;0.0048;
16.8000;0.1547;0.0096;
17.1000;0.1563;0.0024;
17.4000;0.1644;0.0239;
17.7000;0.1530;0.0024;
18.0000;0.1538;-0.0048;
18.3000;0.1579;0.0072;
18.6000;0.1538;-0.0048;
18.9000;0.1514;-0.0072;
19.2000;0.1522;-0.0072;
19.5000;0.1555;0.0024;
19.8000;0.1530;-0.0048;
20.1000;0.1538;0.0096;
20.4000;0.1555;0.0215;
20.7000;0.1522;0.0000;
21.0000;0.1522;-0.0072;
21.3000;0.1538;-0.0048;
21.6000;0.1522;-0.0119;
21.9000;0.1538;-0.0024;
22.2000;0.1465;-0.0191;
22.5000;0.1530;0.0000;
22.8000;0.1555;0.0167;
23.1000;0.1563;0.0215;
23.4000;0.1522;0.0072;
23.7000;0.1481;-0.0096;
24.0000;0.1530;0.0024;
24.3000;0.1514;-0.0048;
24.6000;0.1555;0.0000;
24.9000;0.1620;0.0239;
25.2000;0.1530;-0.0072;
25.5000;0.1498;-0.0191;
25.8000;0.1481;-0.0215;
26.1000;0.1538;0.0000;
26.4000;0.1530;-0.0048;
26.7000;0.1538;0.0000;
27.0000;0.1514;0.0000;
27.3000;0.1522;0.0000;
27.6000;0.1547;0.0119;
27.9000;0.1555;0.0143;
28.2000;0.1522;0.0096;
28.5000;0.1547;0.0119;
28.8000;0.1481;-0.0096;
29.1000;0.1530;0.0048;
29.4000;0.1522;0.0024;
29.7000;0.1530;0.0024;
30.0000;0.1522;0.0024;
30.3000;0.1555;0.0000;
30.6000;0.1538;-0.0072;
30.9000;0.1522;-0.0119;
31.2000;0.1522;-0.0072;
31.5000;0.1571;0.0119;
31.8000;0.1628;0.0287;
32.1000;0.1612;0.0287;
32.4000;0.1522;0.0048;
32.7000;0.1416;-0.0215;
33.0000;0.1538;0.0048;
33.3000;0.1538;0.0072;
33.6000;0.1563;0.0096;
33.9000;0.1522;0.0024;
34.2000;0.1547;0.0167;
34.5000;0.1563;0.0143;
34.8000;0.1538;0.0167;
35.1000;0.1652;0.0502;
35.4000;0.1522;0.0143;
35.7000;0.1538;0.0287;
36.0000;0.1506;0.0191;
36.3000;0.1530;0.0191;
36.6000;0.1555;0.0215;
36.9000;0.1530;0.0191;
37.2000;0.1530;0.0167;
37.5000;0.1530;0.0191;
37.8000;0.1506;0.0143;
38.1000;0.1530;0.0119;
38.4000;0.1538;0.0167;
38.7000;0.1547;0.0096;
39.0000;0.1538;0.0072;
39.3000;0.1433;-0.0167;
39.6000;0.1555;0.0215;
39.9000;0.1465;0.0048;
40.2000;0.1514;0.0167;
40.5000;0.1530;0.0239;
40.8000;0.1579;0.0358;
41.1000;0.1506;0.0287;
41.4000;0.1530;0.0311;
41.7000;0.1563;0.0406;
42.0000;0.1563;0.0358;
42.3000;0.1563;0.0287;
42.6000;0.1530;0.0191;
42.9000;0.1530;0.0143;
43.2000;0.1530;0.0143;
43.5000;0.1538;0.0119;
43.8000;0.1514;0.0048;
44.1000;0.1538;0.0024;
44.4000;0.1538;-0.0024;
44.7000;0.1538;-0.0024;
45.0000;0.1498;-0.0119;
45.3000;0.1530;-0.0024;
45.6000;0.1481;-0.0119;
45.9000;0.1514;0.0024;
46.2000;0.1522;0.0096;
46.5000;0.1530;0.0167;
46.8000;0.1538;0.0239;
47.1000;0.1538;0.0191;
47.4000;0.1530;0.0167;
47.7000;0.1563;0.0263;
48.0000;0.1522;0.0072;
48.3000;0.1530;-0.0024;
48.6000;0.1538;0.0048;
48.9000;0.1530;0.0024;
49.2000;0.1530;0.0119;
49.5000;0.1579;0.0287;
49.8000;0.1514;0.0072;
50.1000;0.1579;0.0167;
50.4000;0.1530;-0.0024;
50.7000;0.1522;-0.0024;
51.0000;0.1530;-0.0024;
51.3000;0.1530;0.0119;
51.6000;0.1490;0.0024;
51.9000;0.1538;0.0239;
52.2000;0.1506;0.0119;
52.5000;0.1530;0.0167;
52.8000;0.1555;0.0239;
53.1000;0.1538;0.0072;
53.4000;0.1522;0.0048;
53.7000;0.1587;0.0311;
54.0000;0.1506;0.0143;
54.3000;0.1522;0.0167;
54.6000;0.1498;0.0119;
54.9000;0.1522;0.0119;
55.2000;0.1522;0.0119;
55.5000;0.1522;0.0167;
55.8000;0.1514;0.0215;
56.1000;0.1547;0.0287;
56.4000;0.1530;0.0263;
56.7000;0.1522;0.0143;
57.0000;0.1522;0.0167;
57.3000;0.1522;0.0215;
57.6000;0.1506;0.0096;
57.9000;0.1595;0.0239;
58.2000;0.1514;0.0143;
58.5000;0.1555;0.0215;
58.8000;0.1522;0.0072;
59.1000;0.1408;-0.0311;
59.4000;0.1514;-0.0048;
59.7000;0.1514;0.0000;
60.0000;0.1522;0.0048;
60.3000;0.1457;-0.0119;
60.6000;0.1530;0.0048;
60.9000;0.1530;0.0072;
61.2000;0.1628;0.0335;
61.5000;0.1522;0.0263;
61.8000;0.1530;0.0335;
62.1000;0.1538;0.0287;
62.4000;0.1506;0.0215;
62.7000;0.1506;0.0191;
63.0000;0.1547;0.0406;
63.3000;0.1530;0.0311;
63.6000;0.1555;0.0287;
63.9000;0.1538;0.0382;
64.2000;0.1441;0.0119;
64.5000;0.1522;0.0358;
64.8000;0.1547;0.0311;
65.1000;0.1530;0.0263;
65.4000;0.1408;-0.0024;
65.7000;0.1538;0.0311;
66.0000;0.1522;0.0287;
66.3000;0.1587;0.0478;
66.6000;0.1522;0.0430;
66.9000;0.1555;0.0406;
67.2000;0.1595;0.0550;
67.5000;0.1465;0.0215;
67.8000;0.1522;0.0335;
68.1000;0.1522;0.0335;
68.4000;0.1530;0.0335;
68.7000;0.1473;0.0167;
69.0000;0.1530;0.0287;
69.3000;0.1538;0.0239;
69.6000;0.1538;0.0287;
69.9000;0.1522;0.0287;
70.2000;0.1433;0.0119;
70.5000;0.1441;0.0191;
70.8000;0.1547;0.0406;
71.1000;0.1563;0.0430;
71.4000;0.1628;0.0550;
71.7000;0.1563;0.0382;
72.0000;0.1530;0.0335;
72.3000;0.1514;0.0382;
72.6000;0.1547;0.0406;
72.9000;0.1457;0.0239;
73.2000;0.1579;0.0502;
73.5000;0.1547;0.0382;
73.8000;0.1555;0.0358;
74.1000;0.1425;-0.0048;
74.4000;0.1563;0.0263;
74.7000;0.1709;0.0597;
75.0000;0.1514;0.0072;
75.3000;0.1604;0.0263;
75.6000;0.1547;0.0096;
75.9000;0.1530;0.0143;
76.2000;0.1514;0.0000;
76.5000;0.1579;0.0191;
76.8000;0.1465;-0.0096;
77.1000;0.1522;0.0072;
77.4000;0.1538;0.0048;
77.7000;0.1506;-0.0143;
78.0000;0.1538;-0.0072;
78.3000;0.1538;0.0048;
78.6000;0.1563;0.0143;
78.9000;0.1514;0.0096;
79.2000;0.1522;0.0072;
79.5000;0.1473;-0.0024;
79.8000;0.1563;0.0239;
80.1000;0.1522;0.0143;
80.4000;0.1522;0.0143;
80.7000;0.1538;0.0167;
81.0000;0.1530;0.0191;
81.3000;0.1587;0.0311;
81.6000;0.1538;0.0119;
81.9000;0.1538;0.0119;
82.2000;0.1522;0.0072;
82.5000;0.1538;0.0191;
82.8000;0.1522;0.0119;
83.1000;0.1530;0.0167;
83.4000;0.1530;0.0167;
83.7000;0.1530;0.0215;
84.0000;0.1538;0.0239;
84.3000;0.1612;0.0406;
84.6000;0.1555;0.0215;
84.9000;0.1530;0.0239;
85.2000;0.1530;0.0287;
85.5000;0.1547;0.0287;
85.8000;0.1530;0.0215;
86.1000;0.1547;0.0335;
86.4000;0.1538;0.0287;
86.7000;0.1530;0.0263;
87.0000;0.1506;0.0191;
87.3000;0.1514;0.0167;
87.6000;0.1530;0.0167;
87.9000;0.1530;0.0143;
88.2000;0.1547;0.0191;
88.5000;0.1530;0.0191;
88.8000;0.1547;0.0215;
89.1000;0.1506;0.0096;
89.4000;0.1473;0.0024;
89.7000;0.1522;0.0119;
90.0000;0.1530;0.0167;
90.3000;0.1538;0.0215;
90.6000;0.1522;0.0215;
90.9000;0.1514;0.0215;
91.2000;0.1522;0.0215;
91.5000;0.1473;0.0072;
91.8000;0.1547;0.0191;
92.1000;0.1538;0.0096;
92.4000;0.1522;0.0096;
92.7000;0.1490;0.0048;
93.0000;0.1522;0.0167;
93.3000;0.1530;0.0191;
93.6000;0.1522;0.0263;
93.9000;0.1538;0.0263;
94.2000;0.1522;0.0119;
94.5000;0.1538;0.0215;
94.8000;0.1652;0.0478;
95.1000;0.1538;0.0167;
95.4000;0.1547;0.0167;
95.7000;0.1571;0.0191;
96.0000;0.1530;0.0119;
96.3000;0.1530;0.0119;
96.6000;0.1522;0.0072;
96.9000;0.1506;-0.0072;
97.2000;0.1538;0.0024;
97.5000;0.1530;0.0048;
97.8000;0.1506;-0.0024;
98.1000;0.1522;0.0048;
98.4000;0.1416;-0.0239;
98.7000;0.1490;-0.0048;
99.0000;0.1538;0.0119;
99.3000;0.1449;-0.0096;
99.6000;0.1506;0.0048;
99.9000;0.1514;-0.0024;
100.2000;0.1530;0.0000;
100.5000;0.1465;-0.0024;
100.8000;0.1530;0.0167;
101.1000;0.1530;0.0239;
101.4000;0.1538;0.0287;
101.7000;0.1628;0.0526;
102.0000;0.1530;0.0263;
102.3000;0.1547;0.0335;
102.6000;0.1538;0.0311;
102.9000;0.1538;0.0311;
103.2000;0.1547;0.0263;
103.5000;0.1538;0.0143;
103.8000;0.1538;0.0191;
104.1000;0.1555;0.0167;
104.4000;0.1547;0.0191;
104.7000;0.1522;0.0096;
105.0000;0.1522;0.0143;
105.3000;0.1530;0.0167;
105.6000;0.1506;0.0048;
105.9000;0.1522;0.0048;
106.2000;0.1449;-0.0119;
106.5000;0.1522;0.0119;
106.8000;0.1530;0.0119;
107.1000;0.1514;0.0191;
107.4000;0.1449;-0.0119;
107.7000;0.1538;0.0119;
108.0000;0.1457;-0.0096;
108.3000;0.1563;0.0167;
108.6000;0.1587;0.0143;
108.9000;0.1538;-0.0048;
109.2000;0.1595;0.0143;
109.5000;0.1522;-0.0096;
109.8000;0.1530;0.0048;
110.1000;0.1506;0.0096;
110.4000;0.1530;0.0143;
110.7000;0.1530;0.0143;
111.0000;0.1538;0.0191;
111.3000;0.1490;0.0096;
111.6000;0.1530;0.0263;
111.9000;0.1547;0.0358;
112.2000;0.1490;0.0167;
112.5000;0.1522;0.0311;
112.8000;0.1538;0.0335;
113.1000;0.1538;0.0263;
113.4000;0.1595;0.0358;
113.7000;0.1522;0.0143;
114.0000;0.1538;0.0215;
114.3000;0.1514;0.0191;
114.6000;0.1547;0.0239;
114.9000;0.1538;0.0239;
115.2000;0.1514;0.0143;
115.5000;0.1514;0.0167;
115.8000;0.1538;0.0119;
116.1000;0.1530;0.0119;
116.4000;0.1522;0.0143;
116.7000;0.1538;0.0167;
117.0000;0.1522;0.0143;
117.3000;0.1538;0.0191;
117.6000;0.1514;0.0072;
117.9000;0.1522;0.0119;
118.2000;0.1530;0.0215;
118.5000;0.1530;0.0287;
118.8000;0.1473;0.0024;
119.1000;0.1514;0.0096;
119.4000;0.1522;0.0119;
119.7000;0.1400;-0.0287;
120.0000;0.1538;0.0072;
120.3000;0.1555;0.0119;
120.6000;0.1522;-0.0048;
120.9000;0.1530;-0.0024;
121.2000;0.1530;-0.0048;
121.5000;0.1644;0.0311;
121.8000;0.1490;-0.0096;
122.1000;0.1522;0.0000;
122.4000;0.1538;-0.0024;
122.7000;0.1530;-0.0048;
123.0000;0.1530;-0.0072;
123.3000;0.1555;-0.0048;
123.6000;0.1522;-0.0119;
123.9000;0.1522;-0.0119;
124.2000;0.1530;-0.0096;
124.5000;0.1530;-0.0048;
124.8000;0.1498;-0.0072;
125.1000;0.1547;0.0048;
125.4000;0.1498;-0.0072;
125.7000;0.1514;0.0048;
126.0000;0.1538;0.0048;
126.3000;0.1522;-0.0096;
126.6000;0.1555;-0.0096;
126.9000;0.1530;-0.0072;
127.2000;0.1547;-0.0167;
127.5000;0.1547;-0.0191;
127.8000;0.1530;-0.0119;
128.1000;0.1506;-0.0096;
128.4000;0.1514;-0.0119;
128.7000;0.1522;-0.0143;
129.0000;0.1514;-0.0167;
129.3000;0.1449;-0.0406;
129.6000;0.1514;-0.0215;
129.9000;0.1547;-0.0167;
130.2000;0.1465;-0.0311;
130.5000;0.1530;-0.0167;
130.8000;0.1547;-0.0215;
131.1000;0.1547;-0.0143;
131.4000;0.1555;-0.0191;
131.7000;0.1530;-0.0191;
132.0000;0.1522;-0.0143;
132.3000;0.1587;0.0000;
132.6000;0.1530;-0.0215;
132.9000;0.1514;-0.0191;
133.2000;0.1555;-0.0072;
133.5000;0.1522;-0.0119;
133.8000;0.1530;0.0000;
134.1000;0.1490;-0.0072;
134.4000;0.1547;0.0048;
134.7000;0.1538;0.0119;
135.0000;0.1514;0.0119;
135.3000;0.1522;0.0096;
135.6000;0.1514;0.0024;
135.9000;0.1530;0.0048;
136.2000;0.1547;0.0024;
136.5000;0.1506;0.0048;
136.8000;0.1530;0.0072;
137.1000;0.1555;0.0072;
137.4000;0.1538;0.0048;
137.7000;0.1538;0.0119;
138.0000;0.1514;0.0048;
138.3000;0.1506;0.0048;
138.6000;0.1530;0.0072;
138.9000;0.1538;0.0048;
139.2000;0.1522;0.0000;
139.5000;0.1433;-0.0287;
139.8000;0.1514;0.0000;
140.1000;0.1538;0.0119;
140.4000;0.1538;0.0119;
140.7000;0.1506;0.0119;
141.0000;0.1522;0.0143;
141.3000;0.1522;0.0096;
141.6000;0.1498;0.0072;
141.9000;0.1571;0.0263;
142.2000;0.1522;0.0096;
142.5000;0.1547;0.0287;
142.8000;0.1563;0.0358;
143.1000;0.1522;0.0215;
143.4000;0.1538;0.0287;
143.7000;0.1522;0.0263;
144.0000;0.1530;0.0311;
144.3000;0.1538;0.0287;
144.6000;0.1506;0.0215;
144.9000;0.1522;0.0263;
145.2000;0.1514;0.0191;
145.5000;0.1449;0.0000;
145.8000;0.1547;0.0287;
146.1000;0.1530;0.0096;
146.4000;0.1563;0.0143;
146.7000;0.1481;-0.0119;
147.0000;0.1547;0.0143;
147.3000;0.1555;0.0143;
147.6000;0.1530;0.0096;
147.9000;0.1522;0.0024;
148.2000;0.1547;0.0072;
148.5000;0.1547;0.0119;
148.8000;0.1530;0.0215;
149.1000;0.1530;0.0191;
149.4000;0.1538;0.0215;
149.7000;0.1538;0.0167;
150.0000;0.1530;0.0096;
150.3000;0.1530;0.0072;
150.6000;0.1506;0.0072;
150.9000;0.1538;0.0048;
151.2000;0.1530;-0.0024;
151.5000;0.1530;0.0000;
151.8000;0.1530;0.0024;
152.1000;0.1522;0.0024;
152.4000;0.1547;0.0000;
152.7000;0.1490;-0.0239;
153.0000;0.1538;-0.0143;
153.3000;0.1530;-0.0119;
153.6000;0.1571;-0.0024;
153.9000;0.1530;-0.0119;
154.2000;0.1522;-0.0048;
154.5000;0.1522;-0.0048;
154.8000;0.1530;0.0048;
155.1000;0.1538;0.0048;
155.4000;0.1538;0.0096;
155.7000;0.1522;0.0191;
156.0000;0.1530;0.0287;
156.3000;0.1449;0.0000;
156.6000;0.1522;0.0191;
156.9000;0.1538;0.0263;
157.2000;0.1530;0.0311;
157.5000;0.1465;0.0143;
157.8000;0.1547;0.0335;
158.1000;0.1530;0.0191;
158.4000;0.1522;0.0119;
158.7000;0.1514;0.0096;
159.0000;0.1522;0.0024;
159.3000;0.1514;-0.0072;
159.6000;0.1547;0.0048;
159.9000;0.1555;0.0096;
160.2000;0.1514;0.0024;
160.5000;0.1530;0.0000;
160.8000;0.1514;0.0096;
161.1000;0.1514;0.0143;
161.4000;0.1538;0.0191;
161.7000;0.1547;0.0167;
162.0000;0.1563;0.0215;
162.3000;0.1522;0.0096;
162.6000;0.1490;-0.0024;
162.9000;0.1538;0.0048;
163.2000;0.1587;0.0191;
163.5000;0.1538;0.0072;
163.8000;0.1522;0.0000;
164.1000;0.1547;0.0024;
164.4000;0.1506;-0.0119;
164.7000;0.1538;0.0000;
165.0000;0.1538;0.0000;
165.3000;0.1538;0.0024;
165.6000;0.1530;0.0096;
165.9000;0.1538;0.0096;
166.2000;0.1547;0.0143;
166.5000;0.1522;0.0024;
166.8000;0.1530;0.0000;
167.1000;0.1555;0.0000;
167.4000;0.1538;0.0000;
167.7000;0.1547;0.0143;
168.0000;0.1425;-0.0143;
168.3000;0.1506;0.0096;
168.6000;0.1571;0.0191;
168.9000;0.1522;0.0143;
169.2000;0.1522;0.0119;
169.5000;0.1547;0.0167;
169.8000;0.1547;0.0119;
170.1000;0.1522;0.0048;
170.4000;0.1563;0.0191;
170.7000;0.1457;-0.0024;
171.0000;0.1522;0.0048;
171.3000;0.1473;-0.0119;
171.6000;0.1506;-0.0024;
171.9000;0.1506;0.0000;
172.2000;0.1547;0.0119;
172.5000;0.1555;0.0239;
172.8000;0.1628;0.0406;
173.1000;0.1506;0.0167;
173.4000;0.1628;0.0502;
173.7000;0.1522;0.0191;
174.0000;0.1538;0.0143;
174.3000;0.1547;0.0072;
174.6000;0.1530;-0.0048;
174.9000;0.1538;-0.0096;
175.2000;0.1522;-0.0143;
175.5000;0.1522;-0.0143;
175.8000;0.1530;-0.0048;
176.1000;0.1514;-0.0119;
176.4000;0.1538;-0.0072;
176.7000;0.1547;0.0000;
177.0000;0.1522;-0.0048;
177.3000;0.1498;0.0000;
177.6000;0.1522;-0.0024;
177.9000;0.1530;0.0024;
178.2000;0.1530;0.0000;
178.5000;0.1595;0.0263;
178.8000;0.1538;0.0072;
179.1000;0.1530;0.0024;
179.4000;0.1538;0.0000;
179.7000;0.1547;0.0000;
180.0000;0.1522;-0.0048;
180.3000;0.1547;0.0072;
180.6000;0.1595;0.0311;
180.9000;0.1571;0.0335;
181.2000;0.1490;0.0167;
181.5000;0.1563;0.0311;
181.8000;0.1498;0.0143;
182.1000;0.1555;0.0263;
182.4000;0.1498;0.0167;
182.7000;0.1530;0.0239;
183.0000;0.1514;0.0048;
183.3000;0.1538;0.0119;
183.6000;0.1530;0.0024;
183.9000;0.1522;0.0000;
184.2000;0.1530;0.0048;
184.5000;0.1514;0.0000;
184.8000;0.1506;-0.0048;
185.1000;0.1522;-0.0024;
185.4000;0.1522;-0.0024;
185.7000;0.1530;0.0024;
186.0000;0.1530;0.0024;
186.3000;0.1530;0.0000;
186.6000;0.1530;-0.0119;
186.9000;0.1530;-0.0048;
187.2000;0.1490;-0.0072;
187.5000;0.1547;0.0024;
187.8000;0.1514;-0.0096;
188.1000;0.1555;0.0048;
188.4000;0.1522;-0.0072;
188.7000;0.1514;-0.0191;
189.0000;0.1522;-0.0215;
189.3000;0.1538;-0.0191;
189.6000;0.1481;-0.0287;
189.9000;0.1490;-0.0167;
190.2000;0.1538;-0.0024;
190.5000;0.1547;-0.0024;
190.8000;0.1547;0.0072;
191.1000;0.1538;0.0143;
191.4000;0.1522;0.0119;
191.7000;0.1522;0.0096;
192.0000;0.1530;0.0167;
192.3000;0.1490;0.0024;
192.6000;0.1498;0.0000;
192.9000;0.1530;0.0000;
193.2000;0.1514;0.0000;
193.5000;0.1555;0.0048;
193.8000;0.1514;-0.0048;
194.1000;0.1530;-0.0072;
194.4000;0.1449;-0.0167;
194.7000;0.1530;0.0024;
195.0000;0.1538;0.0024;
195.3000;0.1522;-0.0024;
195.6000;0.1587;0.0167;
195.9000;0.1538;-0.0024;
196.2000;0.1522;-0.0048;
196.5000;0.1522;-0.0072;
196.8000;0.1530;0.0000;
197.1000;0.1555;-0.0024;
197.4000;0.1530;-0.0119;
197.7000;0.1555;-0.0048;
198.0000;0.1661;0.0215;
198.3000;0.1514;-0.0215;
198.6000;0.1530;-0.0167;
198.9000;0.1530;-0.0096;
199.2000;0.1530;-0.0167;
199.5000;0.1555;-0.0072;
199.8000;0.1530;-0.0096;
200.1000;0.1538;0.0000;
200.4000;0.1514;-0.0072;
200.7000;0.1547;-0.0024;
201.0000;0.1538;-0.0024;
201.3000;0.1538;0.0000;
201.6000;0.1498;-0.0072;
201.9000;0.1473;-0.0239;
202.2000;0.1530;-0.0096;
202.5000;0.1514;-0.0167;
202.8000;0.1514;-0.0072;
203.1000;0.1530;0.0096;
203.4000;0.1587;0.0239;
203.7000;0.1538;0.0072;
204.0000;0.1522;0.0000;
204.3000;0.1457;-0.0215;
204.6000;0.1530;-0.0119;
204.9000;0.1530;-0.0072;
205.2000;0.1530;0.0000;
205.5000;0.1522;0.0000;
205.8000;0.1530;0.0024;
206.1000;0.1547;0.0048;
206.4000;0.1538;0.0143;
206.7000;0.1538;0.0215;
207.0000;0.1612;0.0406;
207.3000;0.1547;0.0167;
207.6000;0.1506;0.0143;
207.9000;0.1547;0.0167;
208.2000;0.1530;0.0119;
208.5000;0.1538;0.0119;
208.8000;0.1522;0.0048;
209.1000;0.1530;0.0024;
209.4000;0.1530;0.0048;
209.7000;0.1514;0.0048;
210.0000;0.1514;0.0072;
210.3000;0.1538;0.0143;
210.6000;0.1481;0.0048;
210.9000;0.1433;-0.0119;
211.2000;0.1555;0.0191;
211.5000;0.1547;0.0263;
211.8000;0.1514;0.0239;
212.1000;0.1538;0.0167;
212.4000;0.1530;0.0143;
212.7000;0.1473;-0.0119;
213.0000;0.1457;-0.0167;
213.3000;0.1530;-0.0024;
213.6000;0.1522;-0.0072;
213.9000;0.1538;-0.0024;
214.2000;0.1538;-0.0024;
214.5000;0.1506;-0.0048;
214.8000;0.1473;-0.0096;
215.1000;0.1514;0.0024;
215.4000;0.1514;0.0024;
215.7000;0.1498;-0.0048;
216.0000;0.1514;-0.0048;
216.3000;0.1530;-0.0024;
216.6000;0.1522;0.0072;
216.9000;0.1514;0.0119;
217.2000;0.1506;0.0143;
217.5000;0.1530;0.0239;
217.8000;0.1555;0.0311;
218.1000;0.1538;0.0215;
218.4000;0.1514;0.0096;
218.7000;0.1514;0.0096;
219.0000;0.1530;0.0072;
219.3000;0.1514;0.0048;
219.6000;0.1408;-0.0239;
219.9000;0.1587;0.0335;
220.2000;0.1522;0.0143;
220.5000;0.1538;0.0191;
220.8000;0.1530;0.0191;
221.1000;0.1530;0.0143;
221.4000;0.1498;0.0072;
221.7000;0.1538;0.0167;
222.0000;0.1538;0.0215;
222.3000;0.1538;0.0191;
222.6000;0.1514;0.0191;
222.9000;0.1498;0.0143;
223.2000;0.1547;0.0191;
223.5000;0.1530;0.0143;
223.8000;0.1522;0.0167;
224.1000;0.1530;0.0167;
224.4000;0.1522;0.0191;
224.7000;0.1522;0.0167;
225.0000;0.1522;0.0072;
225.3000;0.1514;0.0072;
225.6000;0.1547;0.0119;
225.9000;0.1498;0.0024;
226.2000;0.1465;-0.0119;
226.5000;0.1506;-0.0072;
226.8000;0.1555;0.0072;
227.1000;0.1530;0.0000;
227.4000;0.1416;-0.0239;
227.7000;0.1514;0.0024;
228.0000;0.1530;0.0096;
228.3000;0.1595;0.0263;
228.6000;0.1538;0.0287;
228.9000;0.1522;0.0263;
229.2000;0.1571;0.0335;
229.5000;0.1538;0.0287;
229.8000;0.1522;0.0239;
230.1000;0.1506;0.0263;
230.4000;0.1506;0.0287;
230.7000;0.1538;0.0311;
231.0000;0.1538;0.0287;
231.3000;0.1514;0.0215;
231.6000;0.1481;0.0215;
231.9000;0.1530;0.0311;
232.2000;0.1522;0.0191;
232.5000;0.1522;0.0239;
232.8000;0.1555;0.0263;
233.1000;0.1522;0.0191;
233.4000;0.1522;0.0239;
233.7000;0.1579;0.0478;
234.0000;0.1579;0.0502;
234.3000;0.1538;0.0358;
234.6000;0.1604;0.0406;
234.9000;0.1530;0.0287;
235.2000;0.1538;0.0311;
235.5000;0.1522;0.0335;
235.8000;0.1538;0.0335;
236.1000;0.1530;0.0311;
236.4000;0.1522;0.0215;
236.7000;0.1481;0.0048;
237.0000;0.1522;0.0096;
237.3000;0.1555;0.0191;
237.6000;0.1481;0.0072;
237.9000;0.1522;0.0167;
238.2000;0.1522;0.0119;
238.5000;0.1530;0.0167;
238.8000;0.1490;0.0000;
239.1000;0.1538;0.0143;
239.4000;0.1522;0.0072;
239.7000;0.1514;-0.0024;
240.0000;0.1530;0.0048;
240.3000;0.1636;0.0454;
240.6000;0.1620;0.0478;
240.9000;0.1555;0.0263;
241.2000;0.1522;0.0263;
241.5000;0.1538;0.0263;
241.8000;0.1547;0.0311;
242.1000;0.1547;0.0335;
242.4000;0.1579;0.0382;
242.7000;0.1604;0.0454;
243.0000;0.1514;0.0191;
243.3000;0.1571;0.0358;
243.6000;0.1628;0.0478;
243.9000;0.1522;0.0215;
244.2000;0.1522;0.0143;
244.5000;0.1514;0.0167;
244.8000;0.1538;0.0143;
245.1000;0.1457;-0.0048;
245.4000;0.1408;-0.0215;
245.7000;0.1522;0.0119;
246.0000;0.1555;0.0239;
246.3000;0.1514;0.0048;
246.6000;0.1514;0.0119;
246.9000;0.1538;0.0096;
247.2000;0.1498;-0.0096;
247.5000;0.1506;-0.0024;
247.8000;0.1530;0.0024;
248.1000;0.1522;0.0024;
248.4000;0.1457;-0.0096;
248.7000;0.1522;0.0024;
249.0000;0.1522;0.0096;
249.3000;0.1514;0.0000;
249.6000;0.1514;0.0024;
249.9000;0.1506;0.0000;
250.2000;0.1506;0.0000;
250.5000;0.1498;0.0048;
250.8000;0.1538;0.0096;
251.1000;0.1547;0.0119;
251.4000;0.1538;0.0072;
251.7000;0.1538;-0.0024;
252.0000;0.1530;0.0000;
252.3000;0.1506;-0.0143;
252.6000;0.1538;0.0000;
252.9000;0.1522;-0.0072;
253.2000;0.1506;0.0000;
253.5000;0.1530;0.0119;
253.8000;0.1514;0.0167;
254.1000;0.1498;0.0024;
254.4000;0.1547;0.0096;
254.7000;0.1514;-0.0072;
255.0000;0.1530;0.0000;
255.3000;0.1538;0.0119;
255.6000;0.1530;0.0072;
255.9000;0.1538;0.0096;
256.2000;0.1514;0.0072;
256.5000;0.1514;0.0024;
256.8000;0.1514;0.0048;
257.1000;0.1498;-0.0024;
257.4000;0.1498;0.0048;
257.7000;0.1514;0.0072;
258.0000;0.1514;0.0048;
258.3000;0.1490;-0.0048;
258.6000;0.1555;0.0167;
258.9000;0.1530;0.0096;
259.2000;0.1530;0.0167;
259.5000;0.1538;0.0167;
259.8000;0.1522;0.0167;
260.1000;0.1498;0.0072;
260.4000;0.1555;0.0143;
260.7000;0.1522;-0.0024;
261.0000;0.1538;-0.0072;
261.3000;0.1530;-0.0096;
261.6000;0.1547;0.0024;
261.9000;0.1530;0.0072;
262.2000;0.1514;0.0024;
262.5000;0.1514;-0.0048;
262.8000;0.1522;-0.0143;
263.1000;0.1425;-0.0382;
263.4000;0.1612;0.0096;
263.7000;0.1522;-0.0143;
264.0000;0.1522;-0.0167;
264.3000;0.1612;0.0119;
264.6000;0.1595;0.0048;
264.9000;0.1522;-0.0119;
265.2000;0.1522;-0.0024;
265.5000;0.1514;-0.0119;
265.8000;0.1530;-0.0143;
266.1000;0.1506;-0.0119;
266.4000;0.1571;0.0096;
266.7000;0.1530;0.0024;
267.0000;0.1530;0.0024;
267.3000;0.1579;0.0096;
267.6000;0.1538;0.0000;
267.9000;0.1538;-0.0048;
268.2000;0.1530;0.0000;
268.5000;0.1530;0.0024;
268.8000;0.1522;-0.0096;
269.1000;0.1538;-0.0096;
269.4000;0.1522;-0.0096;
269.7000;0.1514;-0.0096;
270.0000;0.1522;-0.0048;
270.3000;0.1514;-0.0096;
270.6000;0.1522;-0.0096;
270.9000;0.1506;-0.0167;
271.2000;0.1522;-0.0024;
271.5000;0.1555;0.0000;
271.8000;0.1522;-0.0072;
272.1000;0.1522;-0.0024;
272.4000;0.1530;-0.0024;
272.7000;0.1506;0.0000;
273.0000;0.1547;0.0024;
273.3000;0.1514;-0.0119;
273.6000;0.1563;-0.0024;
273.9000;0.1530;-0.0048;
274.2000;0.1522;0.0072;
274.5000;0.1400;-0.0263;
274.8000;0.1547;0.0096;
275.1000;0.1506;-0.0072;
275.4000;0.1538;-0.0024;
275.7000;0.1522;-0.0048;
276.0000;0.1563;-0.0048;
276.3000;0.1506;-0.0191;
276.6000;0.1490;-0.0191;
276.9000;0.1530;-0.0096;
277.2000;0.1530;-0.0191;
277.5000;0.1538;-0.0119;
277.8000;0.1530;-0.0119;
278.1000;0.1547;-0.0024;
278.4000;0.1514;-0.0096;
278.7000;0.1514;-0.0024;
279.0000;0.1506;-0.0096;
279.3000;0.1514;-0.0143;
279.6000;0.1473;-0.0287;
279.9000;0.1530;-0.0215;
280.2000;0.1449;-0.0430;
280.5000;0.1514;-0.0239;
280.8000;0.1522;-0.0191;
281.1000;0.1538;-0.0167;
281.4000;0.1530;-0.0215;
281.7000;0.1514;-0.0287;
282.0000;0.1530;-0.0167;
282.3000;0.1538;-0.0215;
282.6000;0.1571;-0.0048;
282.9000;0.1530;-0.0119;
283.2000;0.1530;-0.0167;
283.5000;0.1522;-0.0263;
283.8000;0.1522;-0.0239;
284.1000;0.1530;-0.0263;
284.4000;0.1514;-0.0239;
284.7000;0.1522;-0.0143;
285.0000;0.1522;-0.0167;
285.3000;0.1506;-0.0167;
285.6000;0.1481;-0.0239;
285.9000;0.1522;-0.0048;
286.2000;0.1547;0.0048;
286.5000;0.1530;0.0000;
286.8000;0.1506;-0.0096;
287.1000;0.1522;-0.0119;
287.4000;0.1538;-0.0072;
287.7000;0.1538;-0.0072;
288.0000;0.1538;-0.0072;
288.3000;0.1538;0.0000;
288.6000;0.1563;0.0143;
288.9000;0.1530;0.0000;
289.2000;0.1579;0.0143;
289.5000;0.1530;0.0024;
289.8000;0.1514;0.0000;
290.1000;0.1587;0.0167;
290.4000;0.1538;0.0096;
290.7000;0.1457;-0.0215;
291.0000;0.1522;-0.0072;
291.3000;0.1506;-0.0072;
291.6000;0.1522;-0.0072;
291.9000;0.1530;-0.0048;
292.2000;0.1481;-0.0167;
292.5000;0.1538;-0.0096;
292.8000;0.1530;-0.0143;
293.1000;0.1538;-0.0096;
293.4000;0.1555;0.0024;
293.7000;0.1538;-0.0024;
294.0000;0.1538;0.0048;
294.3000;0.1522;-0.0024;
294.6000;0.1530;-0.0072;
294.9000;0.1522;-0.0096;
295.2000;0.1547;-0.0119;
295.5000;0.1530;-0.0048;
295.8000;0.1514;-0.0024;
296.1000;0.1498;-0.0167;
296.4000;0.1530;-0.0215;
296.7000;0.1538;-0.0287;
297.0000;0.1506;-0.0335;
297.3000;0.1481;-0.0335;
297.6000;0.1530;-0.0311;
297.9000;0.1538;-0.0335;
298.2000;0.1506;-0.0287;
298.5000;0.1522;-0.0287;
298.8000;0.1514;-0.0263;
299.1000;0.1612;0.0000;
299.4000;0.1522;-0.0239;
299.7000;0.1498;-0.0382;
300.0000;0.1522;-0.0263;
300.3000;0.1563;-0.0143;
300.6000;0.1547;-0.0143;
300.9000;0.1530;-0.0215;
301.2000;0.1530;-0.0287;
301.5000;0.1481;-0.0382;
301.8000;0.1522;-0.0215;
302.1000;0.1547;-0.0215;
302.4000;0.1522;-0.0215;
302.7000;0.1514;-0.0143;
303.0000;0.1522;-0.0024;
303.3000;0.1506;-0.0048;
303.6000;0.1547;0.0048;
303.9000;0.1530;0.0000;
304.2000;0.1522;-0.0048;
304.5000;0.1416;-0.0311;
304.8000;0.1530;-0.0024;
305.1000;0.1514;-0.0048;
305.4000;0.1538;0.0024;
305.7000;0.1530;0.0024;
306.0000;0.1547;0.0072;
306.3000;0.1522;0.0096;
306.6000;0.1547;0.0048;
306.9000;0.1465;-0.0072;
307.2000;0.1514;0.0048;
307.5000;0.1514;0.0024;
307.8000;0.1416;-0.0239;
308.1000;0.1514;0.0000;
308.4000;0.1522;0.0000;
308.7000;0.1522;-0.0024;
309.0000;0.1416;-0.0263;
309.3000;0.1547;0.0072;
309.6000;0.1425;-0.0335;
309.9000;0.1514;-0.0048;
310.2000;0.1522;0.0024;
310.5000;0.1506;-0.0024;
310.8000;0.1547;0.0024;
311.1000;0.1530;0.0024;
311.4000;0.1579;0.0072;
311.7000;0.1514;-0.0024;
312.0000;0.1538;0.0072;
312.3000;0.1571;0.0191;
312.6000;0.1522;0.0119;
312.9000;0.1522;0.0119;
313.2000;0.1538;0.0167;
313.5000;0.1547;0.0263;
313.8000;0.1530;0.0143;
314.1000;0.1498;0.0143;
314.4000;0.1538;0.0215;
314.7000;0.1547;0.0191;
315.0000;0.1579;0.0167;
315.3000;0.1538;0.0000;
315.6000;0.1514;0.0000;
315.9000;0.1555;0.0096;
316.2000;0.1547;0.0048;
316.5000;0.1522;0.0000;
316.8000;0.1522;0.0096;
317.1000;0.1530;0.0143;
317.4000;0.1530;0.0143;
317.7000;0.1563;0.0239;
318.0000;0.1530;0.0096;
318.3000;0.1449;-0.0048;
318.6000;0.1555;0.0191;
318.9000;0.1530;0.0143;
319.2000;0.1433;-0.0096;
319.5000;0.1571;0.0335;
319.8000;0.1538;0.0263;
320.1000;0.1506;0.0215;
320.4000;0.1490;0.0215;
320.7000;0.1555;0.0406;
321.0000;0.1530;0.0335;
321.3000;0.1522;0.0335;
321.6000;0.1530;0.0358;
321.9000;0.1530;0.0358;
322.2000;0.1595;0.0574;
322.5000;0.1514;0.0311;
322.8000;0.1547;0.0311;
323.1000;0.1481;0.0119;
323.4000;0.1538;0.0239;
323.7000;0.1538;0.0239;
324.0000;0.1522;0.0167;
324.3000;0.1538;0.0239;
324.6000;0.1514;0.0191;
324.9000;0.1522;0.0263;
325.2000;0.1465;0.0096;
325.5000;0.1481;0.0096;
325.8000;0.1506;0.0167;
326.1000;0.1416;-0.0119;
326.4000;0.1538;0.0191;
326.7000;0.1530;0.0191;
327.0000;0.1538;0.0167;
327.3000;0.1530;0.0239;
327.6000;0.1538;0.0215;
327.9000;0.1579;0.0311;
328.2000;0.1514;0.0215;
328.5000;0.1530;0.0263;
328.8000;0.1530;0.0335;
329.1000;0.1538;0.0215;
329.4000;0.1522;0.0143;
329.7000;0.1587;0.0406;
330.0000;0.1547;0.0287;
330.3000;0.1530;0.0215;
330.6000;0.1514;0.0143;
330.9000;0.1498;0.0096;
331.2000;0.1522;0.0215;
331.5000;0.1538;0.0215;
331.8000;0.1604;0.0382;
332.1000;0.1514;0.0143;
332.4000;0.1555;0.0167;
332.7000;0.1522;0.0048;
333.0000;0.1522;0.0024;
333.3000;0.1538;0.0048;
333.6000;0.1538;0.0000;
333.9000;0.1522;-0.0048;
334.2000;0.1538;0.0024;
334.5000;0.1587;0.0215;
334.8000;0.1563;0.0215;
335.1000;0.1449;-0.0119;
335.4000;0.1449;-0.0072;
335.7000;0.1506;0.0119;
336.0000;0.1530;0.0287;
336.3000;0.1555;0.0335;
336.6000;0.1506;0.0263;
336.9000;0.1514;0.0215;
337.2000;0.1506;0.0119;
337.5000;0.1538;0.0167;
337.8000;0.1522;0.0048;
338.1000;0.1530;0.0048;
338.4000;0.1530;0.0119;
338.7000;0.1514;0.0072;
339.0000;0.1514;0.0048;
339.3000;0.1538;0.0048;
339.6000;0.1514;0.0048;
339.9000;0.1522;0.0096;
340.2000;0.1538;0.0119;
340.5000;0.1522;0.0143;
340.8000;0.1522;0.0119;
341.1000;0.1514;0.0024;
341.4000;0.1514;0.0072;
341.7000;0.1522;0.0096;
342.0000;0.1522;0.0048;
342.3000;0.1547;0.0191;
342.6000;0.1506;0.0191;
342.9000;0.1538;0.0335;
343.2000;0.1490;0.0287;
343.5000;0.1416;0.0072;
343.8000;0.1490;0.0167;
344.1000;0.1538;0.0311;
344.4000;0.1547;0.0382;
344.7000;0.1530;0.0263;
345.0000;0.1522;0.0335;
345.3000;0.1506;0.0311;
345.6000;0.1465;0.0167;
345.9000;0.1522;0.0311;
346.2000;0.1506;0.0191;
346.5000;0.1530;0.0191;
346.8000;0.1538;0.0191;
347.1000;0.1538;0.0167;
347.4000;0.1547;0.0143;
347.7000;0.1522;-0.0024;
348.0000;0.1538;-0.0048;
348.3000;0.1555;0.0024;
348.6000;0.1514;-0.0072;
348.9000;0.1530;-0.0096;
349.2000;0.1563;0.0000;
349.5000;0.1538;0.0119;
349.8000;0.1530;0.0096;
350.1000;0.1465;-0.0072;
350.4000;0.1530;0.0143;
350.7000;0.1563;0.0191;
351.0000;0.1506;0.0000;
351.3000;0.1555;0.0072;
351.6000;0.1506;0.0000;
351.9000;0.1490;-0.0072;
352.2000;0.1547;0.0143;
352.5000;0.1530;0.0119;
352.8000;0.1522;0.0096;
353.1000;0.1530;0.0143;
353.4000;0.1547;0.0191;
353.7000;0.1530;0.0167;
354.0000;0.1530;0.0143;
354.3000;0.1538;0.0096;
354.6000;0.1555;0.0048;
354.9000;0.1522;0.0072;
355.2000;0.1490;0.0000;
355.5000;0.1555;0.0167;
355.8000;0.1530;0.0096;
356.1000;0.1579;0.0096;
356.4000;0.1538;-0.0048;
356.7000;0.1490;-0.0143;
357.0000;0.1538;0.0024;
357.3000;0.1498;-0.0096;
357.6000;0.1571;0.0167;
357.9000;0.1522;0.0024;
358.2000;0.1522;-0.0024;
358.5000;0.1547;0.0096;
358.8000;0.1530;0.0119;
359.1000;0.1571;0.0287;
359.4000;0.1481;0.0024;
359.7000;0.1620;0.0335;
360.0000;0.1538;0.0191;
360.3000;0.1384;-0.0143;
360.6000;0.1506;0.0239;
360.9000;0.1514;0.0191;
361.2000;0.1604;0.0358;
361.5000;0.1530;0.0143;
361.8000;0.1563;0.0215;
362.1000;0.1538;0.0215;
362.4000;0.1579;0.0335;
362.7000;0.1522;0.0096;
363.0000;0.1498;0.0072;
363.3000;0.1530;0.0239;
363.6000;0.1522;0.0191;
363.9000;0.1522;0.0239;
364.2000;0.1538;0.0287;
364.5000;0.1571;0.0335;
364.8000;0.1530;0.0239;
365.1000;0.1530;0.0263;
365.4000;0.1530;0.0287;
365.7000;0.1538;0.0215;
366.0000;0.1522;0.0167;
366.3000;0.1522;0.0191;
366.6000;0.1522;0.0167;
366.9000;0.1514;0.0072;
367.2000;0.1522;0.0000;
367.5000;0.1571;0.0167;
367.8000;0.1530;-0.0024;
368.1000;0.1506;0.0000;
368.4000;0.1457;-0.0167;
368.7000;0.1522;0.0048;
369.0000;0.1538;0.0024;
369.3000;0.1538;-0.0048;
369.6000;0.1498;-0.0191;
369.9000;0.1530;-0.0119;
370.2000;0.1425;-0.0239;
370.5000;0.1522;0.0143;
370.8000;0.1506;0.0143;
371.1000;0.1547;0.0335;
371.4000;0.1538;0.0239;
371.7000;0.1538;0.0215;
372.0000;0.1514;0.0239;
372.3000;0.1498;0.0191;
372.6000;0.1498;0.0287;
372.9000;0.1538;0.0311;
373.2000;0.1506;0.0239;
373.5000;0.1506;0.0335;
373.8000;0.1530;0.0526;
374.1000;0.1506;0.0406;
374.4000;0.1530;0.0358;
374.7000;0.1506;0.0239;
375.0000;0.1530;0.0215;
375.3000;0.1506;0.0239;
375.6000;0.1530;0.0358;
375.9000;0.1522;0.0335;
376.2000;0.1506;0.0406;
376.5000;0.1530;0.0406;
376.8000;0.1498;0.0335;
377.1000;0.1530;0.0406;
377.4000;0.1530;0.0335;
377.7000;0.1522;0.0358;
378.0000;0.1522;0.0358;
378.3000;0.1498;0.0311;
378.6000;0.1555;0.0311;
378.9000;0.1538;0.0335;
379.2000;0.1522;0.0263;
379.5000;0.1555;0.0358;
379.8000;0.1506;0.0239;
380.1000;0.1498;0.0119;
380.4000;0.1514;0.0048;
380.7000;0.1481;-0.0048;
381.0000;0.1522;0.0096;
381.3000;0.1538;0.0167;
381.6000;0.1522;0.0072;
381.9000;0.1538;0.0096;
382.2000;0.1514;0.0096;
382.5000;0.1433;-0.0048;
382.8000;0.1514;0.0119;
383.1000;0.1538;0.0143;
383.4000;0.1514;0.0167;
383.7000;0.1506;0.0143;
384.0000;0.1522;0.0239;
384.3000;0.1522;0.0263;
384.6000;0.1522;0.0215;
384.9000;0.1514;0.0143;
385.2000;0.1514;0.0096;
385.5000;0.1506;0.0143;
385.8000;0.1522;0.0191;
386.1000;0.1514;0.0143;
386.4000;0.1595;0.0406;
386.7000;0.1522;0.0239;
387.0000;0.1522;0.0143;
387.3000;0.1514;0.0072;
387.6000;0.1522;0.0048;
387.9000;0.1522;0.0096;
388.2000;0.1506;0.0072;
388.5000;0.1530;0.0143;
388.8000;0.1514;0.0119;
389.1000;0.1530;0.0167;
389.4000;0.1522;0.0215;
389.7000;0.1530;0.0239;
390.0000;0.1530;0.0215;
390.3000;0.1530;0.0215;
390.6000;0.1506;0.0167;
390.9000;0.1530;0.0191;
391.2000;0.1538;0.0239;
391.5000;0.1522;0.0215;
391.8000;0.1538;0.0358;
392.1000;0.1563;0.0430;
392.4000;0.1506;0.0287;
392.7000;0.1538;0.0335;
393.0000;0.1547;0.0335;
393.3000;0.1555;0.0311;
393.6000;0.1481;0.0311;
393.9000;0.1530;0.0406;
394.2000;0.1555;0.0454;
394.5000;0.1538;0.0406;
394.8000;0.1522;0.0358;
395.1000;0.1481;0.0239;
395.4000;0.1514;0.0358;
395.7000;0.1514;0.0382;
396.0000;0.1530;0.0454;
396.3000;0.1530;0.0430;
396.6000;0.1547;0.0406;
396.9000;0.1522;0.0358;
397.2000;0.1530;0.0311;
397.5000;0.1538;0.0335;
397.8000;0.1514;0.0287;
398.1000;0.1538;0.0335;
398.4000;0.1530;0.0311;
398.7000;0.1522;0.0311;
399.0000;0.1506;0.0239;
399.3000;0.1514;0.0263;
399.6000;0.1522;0.0335;
399.9000;0.1530;0.0311;
400.2000;0.1514;0.0239;
400.5000;0.1538;0.0311;
400.8000;0.1506;0.0335;
401.1000;0.1506;0.0215;
401.4000;0.1530;0.0287;
401.7000;0.1661;0.0669;
402.0000;0.1530;0.0358;
402.3000;0.1538;0.0287;
402.6000;0.1522;0.0311;
402.9000;0.1530;0.0215;
403.2000;0.1465;0.0096;
403.5000;0.1522;0.0191;
403.8000;0.1563;0.0263;
404.1000;0.1547;0.0239;
404.4000;0.1514;0.0143;
404.7000;0.1506;0.0048;
405.0000;0.1514;0.0119;
405.3000;0.1530;0.0167;
405.6000;0.1530;0.0215;
405.9000;0.1522;0.0072;
406.2000;0.1522;0.0024;
406.5000;0.1530;0.0072;
406.8000;0.1514;0.0072;
407.1000;0.1530;0.0119;
407.4000;0.1522;0.0096;
407.7000;0.1571;0.0263;
408.0000;0.1522;0.0191;
408.3000;0.1522;0.0191;
408.6000;0.1530;0.0191;
408.9000;0.1595;0.0335;
409.2000;0.1506;0.0167;
409.5000;0.1595;0.0358;
409.8000;0.1538;0.0191;
410.1000;0.1538;0.0191;
410.4000;0.1538;0.0167;
410.7000;0.1514;0.0119;
411.0000;0.1514;0.0048;
411.3000;0.1514;0.0000;
411.6000;0.1571;0.0096;
411.9000;0.1506;-0.0048;
412.2000;0.1506;-0.0072;
412.5000;0.1538;0.0000;
412.8000;0.1530;-0.0048;
413.1000;0.1530;0.0024;
413.4000;0.1522;0.0048;
413.7000;0.1498;0.0000;
414.0000;0.1522;0.0096;
414.3000;0.1538;0.0191;
414.6000;0.1514;0.0048;
414.9000;0.1522;0.0096;
415.2000;0.1547;0.0167;
415.5000;0.1538;0.0119;
415.8000;0.1514;0.0072;
416.1000;0.1522;0.0143;
416.4000;0.1522;0.0167;
416.7000;0.1530;0.0215;
417.0000;0.1506;0.0096;
417.3000;0.1522;0.0048;
417.6000;0.1538;0.0048;
417.9000;0.1555;0.0096;
418.2000;0.1490;0.0024;
418.5000;0.1481;0.0048;
418.8000;0.1522;0.0024;
419.1000;0.1522;-0.0048;
419.4000;0.1530;0.0048;
419.7000;0.1530;0.0096;
420.0000;0.1522;0.0072;
420.3000;0.1522;0.0119;
420.6000;0.1481;0.0048;
420.9000;0.1538;0.0215;
421.2000;0.1530;0.0287;
421.5000;0.1530;0.0335;
421.8000;0.1530;0.0358;
422.1000;0.1555;0.0430;
422.4000;0.1514;0.0335;
422.7000;0.1522;0.0311;
423.0000;0.1514;0.0239;
423.3000;0.1530;0.0143;
423.6000;0.1530;0.0167;
423.9000;0.1522;0.0119;
424.2000;0.1530;0.0119;
424.5000;0.1530;0.0215;
424.8000;0.1547;0.0239;
425.1000;0.1555;0.0311;
425.4000;0.1547;0.0215;
425.7000;0.1563;0.0239;
426.0000;0.1530;0.0072;
426.3000;0.1538;0.0072;
426.6000;0.1514;0.0072;
426.9000;0.1522;0.0119;
427.2000;0.1563;0.0287;
427.5000;0.1481;0.0096;
427.8000;0.1506;0.0167;
428.1000;0.1506;0.0191;
428.4000;0.1522;0.0287;
428.7000;0.1506;0.0335;
429.0000;0.1498;0.0358;
429.3000;0.1481;0.0311;
429.6000;0.1490;0.0311;
429.9000;0.1530;0.0287;
430.2000;0.1530;0.0239;
430.5000;0.1530;0.0335;
430.8000;0.1530;0.0287;
431.1000;0.1449;0.0048;
431.4000;0.1579;0.0358;
431.7000;0.1506;0.0239;
432.0000;0.1530;0.0287;
432.3000;0.1514;0.0215;
432.6000;0.1538;0.0191;
432.9000;0.1522;0.0024;
433.2000;0.1547;0.0072;
433.5000;0.1555;0.0143;
433.8000;0.1522;0.0119;
434.1000;0.1530;0.0263;
434.4000;0.1547;0.0191;
434.7000;0.1530;0.0143;
435.0000;0.1522;0.0096;
435.3000;0.1530;0.0096;
435.6000;0.1522;0.0096;
435.9000;0.1522;0.0096;
436.2000;0.1530;0.0119;
436.5000;0.1530;0.0072;
436.8000;0.1530;0.0024;
437.1000;0.1530;0.0048;
437.4000;0.1538;0.0143;
437.7000;0.1530;0.0119;
438.0000;0.1514;0.0119;
438.3000;0.1514;0.0143;
438.6000;0.1498;0.0072;
438.9000;0.1530;0.0119;
439.2000;0.1514;0.0096;
439.5000;0.1514;0.0119;
439.8000;0.1522;0.0239;
440.1000;0.1506;0.0191;
440.4000;0.1522;0.0239;
440.7000;0.1514;0.0239;
441.0000;0.1538;0.0287;
441.3000;0.1498;0.0215;
441.6000;0.1514;0.0263;
441.9000;0.1530;0.0406;
442.2000;0.1522;0.0382;
442.5000;0.1530;0.0526;
442.8000;0.1514;0.0430;
443.1000;0.1522;0.0358;
443.4000;0.1530;0.0406;
443.7000;0.1538;0.0430;
444.0000;0.1514;0.0478;
444.3000;0.1481;0.0335;
444.6000;0.1473;0.0335;
444.9000;0.1538;0.0430;
445.2000;0.1490;0.0239;
445.5000;0.1547;0.0382;
445.8000;0.1522;0.0215;
446.1000;0.1465;0.0119;
446.4000;0.1514;0.0239;
446.7000;0.1490;0.0263;
447.0000;0.1465;0.0191;
447.3000;0.1514;0.0311;
447.6000;0.1530;0.0335;
447.9000;0.1514;0.0311;
448.2000;0.1498;0.0239;
448.5000;0.1522;0.0311;
448.8000;0.1538;0.0335;
449.1000;0.1506;0.0287;
449.4000;0.1498;0.0191;
449.7000;0.1530;0.0167;
450.0000;0.1530;0.0191;
450.3000;0.1522;0.0048;
450.6000;0.1473;-0.0167;
450.9000;0.1522;-0.0143;
451.2000;0.1604;-0.0024;
451.5000;0.1538;-0.0024;
451.8000;0.1425;-0.0215;
452.1000;0.1449;-0.0072;
452.4000;0.1530;0.0072;
452.7000;0.1571;0.0191;
453.0000;0.1514;0.0143;
453.3000;0.1441;-0.0024;
453.6000;0.1530;0.0167;
453.9000;0.1514;0.0143;
454.2000;0.1628;0.0382;
454.5000;0.1522;0.0024;
454.8000;0.1449;-0.0191;
455.1000;0.1522;0.0072;
455.4000;0.1522;0.0191;
455.7000;0.1522;0.0143;
456.0000;0.1522;0.0119;
456.3000;0.1522;0.0119;
456.6000;0.1530;0.0191;
456.9000;0.1538;0.0143;
457.2000;0.1530;0.0072;
457.5000;0.1522;0.0096;
457.8000;0.1514;0.0072;
458.1000;0.1530;0.0048;
458.4000;0.1538;0.0096;
458.7000;0.1530;0.0048;
459.0000;0.1522;0.0000;
459.3000;0.1522;0.0167;
459.6000;0.1514;0.0191;
459.9000;0.1530;0.0119;
460.2000;0.1522;0.0119;
460.5000;0.1571;0.0143;
460.8000;0.1522;0.0024;
461.1000;0.1530;0.0119;
461.4000;0.1555;0.0215;
461.7000;0.1530;0.0143;
462.0000;0.1530;0.0167;
462.3000;0.1538;0.0215;
462.6000;0.1595;0.0382;
462.9000;0.1506;0.0167;
463.2000;0.1506;0.0119;
463.5000;0.1530;0.0215;
463.8000;0.1530;0.0263;
464.1000;0.1522;0.0167;
464.4000;0.1530;0.0167;
464.7000;0.1514;0.0143;
465.0000;0.1506;0.0072;
465.3000;0.1538;0.0143;
465.6000;0.1522;0.0096;
465.9000;0.1522;0.0119;
466.2000;0.1612;0.0311;
466.5000;0.1538;0.0096;
466.8000;0.1530;0.0048;
467.1000;0.1522;0.0072;
467.4000;0.1514;0.0096;
467.7000;0.1514;0.0119;
468.0000;0.1522;0.0167;
468.3000;0.1604;0.0382;
468.6000;0.1538;0.0215;
468.9000;0.1514;0.0167;
469.2000;0.1538;0.0191;
469.5000;0.1514;0.0191;
469.8000;0.1506;0.0119;
470.1000;0.1595;0.0335;
470.4000;0.1522;0.0119;
470.7000;0.1522;0.0024;
471.0000;0.1514;0.0072;
471.3000;0.1514;0.0191;
471.6000;0.1514;0.0215;
471.9000;0.1522;0.0287;
472.2000;0.1530;0.0215;
472.5000;0.1538;0.0239;
472.8000;0.1538;0.0215;
473.1000;0.1547;0.0143;
473.4000;0.1530;0.0024;
473.7000;0.1620;0.0263;
474.0000;0.1465;-0.0119;
474.3000;0.1530;0.0048;
474.6000;0.1522;0.0119;
474.9000;0.1571;0.0239;
475.2000;0.1620;0.0335;
475.5000;0.1506;-0.0048;
475.8000;0.1506;0.0096;
476.1000;0.1571;0.0335;
476.4000;0.1473;0.0000;
476.7000;0.1555;0.0096;
477.0000;0.1506;-0.0119;
477.3000;0.1514;-0.0119;
477.6000;0.1514;0.0048;
477.9000;0.1555;0.0143;
478.2000;0.1506;0.0048;
478.5000;0.1538;0.0119;
478.8000;0.1522;0.0096;
479.1000;0.1530;0.0167;
479.4000;0.1522;0.0143;
479.7000;0.1538;0.0215;
480.0000;0.1538;0.0263;
480.3000;0.1506;0.0191;
480.6000;0.1522;0.0167;
480.9000;0.1530;0.0119;
481.2000;0.1538;0.0072;
481.5000;0.1490;0.0024;
481.8000;0.1538;0.0215;
482.1000;0.1530;0.0335;
482.4000;0.1628;0.0550;
482.7000;0.1530;0.0191;
483.0000;0.1514;0.0024;
483.3000;0.1522;0.0048;
483.6000;0.1530;0.0024;
483.9000;0.1522;0.0000;
484.2000;0.1547;0.0048;
484.5000;0.1522;-0.0024;
484.8000;0.1530;-0.0048;
485.1000;0.1538;0.0024;
485.4000;0.1506;-0.0143;
485.7000;0.1530;-0.0119;
486.0000;0.1514;-0.0191;
486.3000;0.1547;-0.0191;
486.6000;0.1522;-0.0167;
486.9000;0.1522;-0.0167;
487.2000;0.1490;-0.0215;
487.5000;0.1530;-0.0096;
487.8000;0.1538;-0.0167;
488.1000;0.1498;-0.0335;
488.4000;0.1514;-0.0335;
488.7000;0.1538;-0.0287;
489.0000;0.1514;-0.0191;
489.3000;0.1514;-0.0239;
489.6000;0.1522;-0.0263;
489.9000;0.1530;-0.0191;
490.2000;0.1506;-0.0143;
490.5000;0.1612;0.0263;
490.8000;0.1538;0.0143;
491.1000;0.1555;0.0167;
491.4000;0.1449;-0.0119;
491.7000;0.1514;0.0048;
492.0000;0.1522;0.0048;
492.3000;0.1433;-0.0167;
492.6000;0.1579;0.0167;
492.9000;0.1530;0.0072;
493.2000;0.1538;0.0167;
493.5000;0.1522;0.0143;
493.8000;0.1530;0.0215;
494.1000;0.1620;0.0454;
494.4000;0.1547;0.0311;
494.7000;0.1530;0.0287;
495.0000;0.1522;0.0358;
495.3000;0.1547;0.0478;
495.6000;0.1547;0.0358;
495.9000;0.1514;0.0263;
496.2000;0.1498;0.0191;
496.5000;0.1498;0.0143;
496.8000;0.1530;0.0143;
497.1000;0.1490;0.0072;
497.4000;0.1571;0.0335;
497.7000;0.1514;0.0096;
498.0000;0.1547;0.0143;
498.3000;0.1506;0.0048;
498.6000;0.1538;0.0096;
498.9000;0.1522;0.0072;
499.2000;0.1530;0.0167;
499.5000;0.1555;0.0191;
499.8000;0.1530;0.0072;
500.1000;0.1571;0.0191;
500.4000;0.1530;0.0024;
500.7000;0.1514;-0.0048;
501.0000;0.1538;0.0024;
501.3000;0.1538;0.0024;
501.6000;0.1538;-0.0024;
501.9000;0.1555;0.0024;
502.2000;0.1538;0.0024;
502.5000;0.1490;-0.0119;
502.8000;0.1506;-0.0119;
503.1000;0.1506;-0.0119;
503.4000;0.1547;-0.0119;
503.7000;0.1530;-0.0167;
504.0000;0.1514;-0.0119;
504.3000;0.1498;-0.0072;
504.6000;0.1587;0.0191;
504.9000;0.1514;0.0072;
505.2000;0.1522;0.0096;
505.5000;0.1514;0.0143;
505.8000;0.1514;0.0215;
506.1000;0.1522;0.0239;
506.4000;0.1522;0.0263;
506.7000;0.1555;0.0335;
507.0000;0.1514;0.0358;
507.3000;0.1538;0.0502;
507.6000;0.1522;0.0335;
507.9000;0.1530;0.0382;
508.2000;0.1538;0.0430;
508.5000;0.1449;0.0191;
508.8000;0.1522;0.0311;
509.1000;0.1506;0.0239;
509.4000;0.1522;0.0311;
509.7000;0.1538;0.0335;
510.0000;0.1530;0.0167;
510.3000;0.1555;0.0119;
510.6000;0.1530;0.0143;
510.9000;0.1644;0.0478;
511.2000;0.1522;0.0215;
511.5000;0.1555;0.0311;
511.8000;0.1563;0.0311;
512.1000;0.1506;0.0096;
512.4000;0.1555;0.0239;
512.7000;0.1473;0.0024;
513.0000;0.1530;0.0239;
513.3000;0.1522;0.0167;
513.6000;0.1652;0.0574;
513.9000;0.1522;0.0143;
514.2000;0.1408;-0.0191;
514.5000;0.1473;0.0000;
514.8000;0.1506;0.0143;
515.1000;0.1465;0.0119;
515.4000;0.1457;0.0000;
515.7000;0.1416;-0.0096;
516.0000;0.1538;0.0167;
516.3000;0.1530;0.0119;
516.6000;0.1506;0.0167;
516.9000;0.1530;0.0215;
517.2000;0.1522;0.0215;
517.5000;0.1522;0.0191;
517.8000;0.1514;0.0191;
518.1000;0.1522;0.0167;
518.4000;0.1506;0.0096;
518.7000;0.1514;0.0072;
519.0000;0.1522;0.0096;
519.3000;0.1498;0.0048;
519.6000;0.1530;0.0215;
519.9000;0.1514;0.0215;
520.2000;0.1563;0.0311;
520.5000;0.1563;0.0239;
520.8000;0.1514;0.0191;
521.1000;0.1522;0.0143;
521.4000;0.1498;0.0000;
521.7000;0.1522;0.0048;
522.0000;0.1522;0.0072;
522.3000;0.1522;0.0167;
522.6000;0.1530;0.0143;
522.9000;0.1547;0.0215;
523.2000;0.1547;0.0239;
523.5000;0.1473;0.0072;
523.8000;0.1530;0.0167;
524.1000;0.1506;0.0119;
524.4000;0.1490;0.0072;
524.7000;0.1514;0.0215;
525.0000;0.1522;0.0167;
525.3000;0.1506;0.0096;
525.6000;0.1514;0.0096;
525.9000;0.1514;0.0191;
526.2000;0.1522;0.0263;
526.5000;0.1538;0.0406;
526.8000;0.1514;0.0406;
527.1000;0.1514;0.0382;
527.4000;0.1522;0.0287;
527.7000;0.1571;0.0335;
528.0000;0.1571;0.0382;
528.3000;0.1506;0.0191;
528.6000;0.1522;0.0287;
528.9000;0.1522;0.0287;
529.2000;0.1538;0.0335;
529.5000;0.1514;0.0239;
529.8000;0.1522;0.0335;
530.1000;0.1620;0.0621;
530.4000;0.1555;0.0382;
530.7000;0.1514;0.0311;
531.0000;0.1522;0.0263;
531.3000;0.1538;0.0287;
531.6000;0.1538;0.0358;
531.9000;0.1538;0.0335;
532.2000;0.1522;0.0358;
532.5000;0.1522;0.0311;
532.8000;0.1547;0.0335;
533.1000;0.1530;0.0287;
533.4000;0.1612;0.0406;
533.7000;0.1522;0.0239;
534.0000;0.1522;0.0287;
534.3000;0.1498;0.0167;
534.6000;0.1547;0.0263;
534.9000;0.1514;0.0215;
535.2000;0.1538;0.0311;
535.5000;0.1506;0.0311;
535.8000;0.1506;0.0287;
536.1000;0.1522;0.0215;
536.4000;0.1538;0.0191;
536.7000;0.1514;0.0263;
537.0000;0.1538;0.0263;
537.3000;0.1514;0.0263;
537.6000;0.1514;0.0239;
537.9000;0.1514;0.0239;
538.2000;0.1522;0.0239;
538.5000;0.1547;0.0263;
538.8000;0.1506;0.0119;
539.1000;0.1538;0.0191;
539.4000;0.1514;0.0143;
539.7000;0.1522;0.0191;
540.0000;0.1514;0.0239;
540.3000;0.1530;0.0239;
540.6000;0.1522;0.0239;
540.9000;0.1498;0.0167;
541.2000;0.1579;0.0406;
541.5000;0.1498;0.0215;
541.8000;0.1514;0.0239;
542.1000;0.1530;0.0167;
542.4000;0.1547;0.0143;
542.7000;0.1555;0.0191;
543.0000;0.1506;0.0143;
543.3000;0.1538;0.0263;
543.6000;0.1498;0.0239;
543.9000;0.1530;0.0263;
544.2000;0.1522;0.0311;
544.5000;0.1530;0.0287;
544.8000;0.1473;0.0119;
545.1000;0.1530;0.0215;
545.4000;0.1530;0.0143;
545.7000;0.1506;0.0119;
546.0000;0.1514;0.0096;
546.3000;0.1579;0.0215;
546.6000;0.1530;0.0167;
546.9000;0.1538;0.0287;
547.2000;0.1449;0.0119;
547.5000;0.1449;0.0143;
547.8000;0.1449;0.0143;
548.1000;0.1506;0.0263;
548.4000;0.1644;0.0597;
548.7000;0.1514;0.0406;
549.0000;0.1522;0.0335;
549.3000;0.1530;0.0335;
549.6000;0.1547;0.0358;
549.9000;0.1506;0.0215;
550.2000;0.1530;0.0311;
550.5000;0.1530;0.0287;
550.8000;0.1522;0.0311;
551.1000;0.1644;0.0645;
551.4000;0.1481;0.0215;
551.7000;0.1530;0.0358;
552.0000;0.1530;0.0311;
552.3000;0.1547;0.0287;
552.6000;0.1506;0.0239;
552.9000;0.1473;0.0119;
553.2000;0.1530;0.0311;
553.5000;0.1522;0.0239;
553.8000;0.1514;0.0239;
554.1000;0.1506;0.0167;
554.4000;0.1547;0.0167;
554.7000;0.1522;0.0143;
555.0000;0.1530;0.0167;
555.3000;0.1538;0.0143;
555.6000;0.1506;0.0096;
555.9000;0.1530;0.0119;
556.2000;0.1547;0.0048;
556.5000;0.1522;0.0024;
556.8000;0.1522;0.0072;
557.1000;0.1555;0.0167;
557.4000;0.1538;0.0143;
557.7000;0.1522;0.0048;
558.0000;0.1538;0.0143;
558.3000;0.1538;0.0072;
558.6000;0.1538;0.0096;
558.9000;0.1522;0.0072;
559.2000;0.1514;0.0096;
559.5000;0.1514;0.0072;
559.8000;0.1514;0.0096;
560.1000;0.1441;-0.0119;
560.4000;0.1538;0.0072;
560.7000;0.1538;0.0119;
561.0000;0.1538;0.0072;
561.3000;0.1506;0.0024;
561.6000;0.1490;0.0024;
561.9000;0.1522;0.0167;
562.2000;0.1514;0.0167;
562.5000;0.1425;-0.0048;
562.8000;0.1538;0.0239;
563.1000;0.1530;0.0072;
563.4000;0.1481;-0.0048;
563.7000;0.1522;0.0096;
564.0000;0.1490;0.0024;
564.3000;0.1498;0.0000;
564.6000;0.1506;-0.0048;
564.9000;0.1538;0.0119;
565.2000;0.1595;0.0311;
565.5000;0.1506;0.0072;
565.8000;0.1530;0.0167;
566.1000;0.1457;-0.0024;
566.4000;0.1514;0.0143;
566.7000;0.1530;0.0263;
567.0000;0.1530;0.0239;
567.3000;0.1498;0.0096;
567.6000;0.1530;0.0215;
567.9000;0.1547;0.0239;
568.2000;0.1547;0.0167;
568.5000;0.1522;0.0119;
568.8000;0.1490;0.0048;
569.1000;0.1522;0.0239;
569.4000;0.1522;0.0335;
569.7000;0.1571;0.0382;
570.0000;0.1522;0.0119;
570.3000;0.1587;0.0215;
570.6000;0.1579;0.0335;
570.9000;0.1522;0.0167;
571.2000;0.1465;-0.0048;
571.5000;0.1530;0.0239;
571.8000;0.1555;0.0335;
572.1000;0.1579;0.0430;
572.4000;0.1514;0.0215;
572.7000;0.1538;0.0287;
573.0000;0.1538;0.0239;
573.3000;0.1538;0.0311;
573.6000;0.1506;0.0263;
573.9000;0.1563;0.0502;
574.2000;0.1522;0.0358;
574.5000;0.1490;0.0191;
574.8000;0.1530;0.0287;
575.1000;0.1522;0.0287;
575.4000;0.1530;0.0358;
575.7000;0.1538;0.0406;
576.0000;0.1538;0.0358;
576.3000;0.1498;0.0287;
576.6000;0.1522;0.0263;
576.9000;0.1498;0.0191;
577.2000;0.1522;0.0263;
577.5000;0.1514;0.0215;
577.8000;0.1514;0.0239;
578.1000;0.1514;0.0239;
578.4000;0.1522;0.0215;
578.7000;0.1514;0.0048;
579.0000;0.1498;0.0048;
579.3000;0.1530;0.0119;
579.6000;0.1514;0.0048;
579.9000;0.1530;0.0072;
580.2000;0.1506;0.0096;
580.5000;0.1530;0.0191;
580.8000;0.1530;0.0287;
581.1000;0.1514;0.0263;
581.4000;0.1465;0.0048;
581.7000;0.1538;0.0263;
582.0000;0.1530;0.0358;
582.3000;0.1530;0.0406;
582.6000;0.1506;0.0430;
582.9000;0.1522;0.0478;
583.2000;0.1538;0.0478;
583.5000;0.1425;0.0143;
583.8000;0.1498;0.0311;
584.1000;0.1530;0.0430;
584.4000;0.1522;0.0311;
584.7000;0.1522;0.0215;
585.0000;0.1571;0.0358;
585.3000;0.1547;0.0167;
585.6000;0.1677;0.0597;
585.9000;0.1522;0.0143;
586.2000;0.1498;0.0096;
586.5000;0.1547;0.0358;
586.8000;0.1514;0.0287;
587.1000;0.1522;0.0263;
587.4000;0.1530;0.0335;
587.7000;0.1514;0.0215;
588.0000;0.1514;0.0215;
588.3000;0.1555;0.0311;
588.6000;0.1538;0.0239;
588.9000;0.1587;0.0335;
589.2000;0.1522;0.0143;
589.5000;0.1530;0.0167;
589.8000;0.1530;0.0096;
590.1000;0.1473;-0.0024;
590.4000;0.1530;0.0072;
590.7000;0.1514;0.0072;
591.0000;0.1579;0.0119;
591.3000;0.1547;0.0048;
591.6000;0.1481;-0.0048;
591.9000;0.1522;0.0048;
592.2000;0.1604;0.0287;
592.5000;0.1481;0.0000;
592.8000;0.1530;0.0096;
593.1000;0.1555;0.0191;
593.4000;0.1530;0.0096;
593.7000;0.1522;0.0143;
594.0000;0.1481;-0.0048;
594.3000;0.1506;-0.0024;
594.6000;0.1481;-0.0072;
594.9000;0.1530;0.0048;
595.2000;0.1473;-0.0119;
595.5000;0.1498;0.0024;
595.8000;0.1514;0.0096;
596.1000;0.1514;0.0048;
596.4000;0.1522;0.0072;
596.7000;0.1506;-0.0048;
597.0000;0.1547;0.0167;
597.3000;0.1522;0.0263;
597.6000;0.1514;0.0263;
597.9000;0.1652;0.0645;
598.2000;0.1522;0.0335;
598.5000;0.1538;0.0335;
598.8000;0.1530;0.0311;
599.1000;0.1514;0.0335;
599.4000;0.1563;0.0502;
599.7000;0.1506;0.0335;
600.0000;0.1522;0.0311;
600.3000;0.1506;0.0191;
600.6000;0.1522;0.0143;
600.9000;0.1514;0.0167;
601.2000;0.1522;0.0215;
601.5000;0.1522;0.0119;
601.8000;0.1506;-0.0048;
602.1000;0.1490;-0.0072;
602.4000;0.1555;-0.0024;
602.7000;0.1547;-0.0119;
603.0000;0.1595;-0.0096;
603.3000;0.1506;-0.0430;
603.6000;0.1498;-0.0526;
603.9000;0.1457;-0.0693;
604.2000;0.1522;-0.0478;
604.5000;0.1481;-0.0597;
604.8000;0.1490;-0.0478;
605.1000;0.1514;-0.0550;
605.4000;0.1392;-0.0860;
605.7000;0.1522;-0.0550;
606.0000;0.1506;-0.0621;
606.3000;0.1522;-0.0597;
606.6000;0.1514;-0.0597;
606.9000;0.1481;-0.0693;
607.2000;0.1481;-0.0741;
607.5000;0.1441;-0.0956;
607.8000;0.1498;-0.0812;
608.1000;0.1490;-0.0836;
608.4000;0.1506;-0.0836;
608.7000;0.1490;-0.0932;
609.0000;0.1555;-0.0741;
609.3000;0.1473;-0.1028;
609.6000;0.1498;-0.1028;
609.9000;0.1498;-0.0956;
610.2000;0.1604;-0.0741;
610.5000;0.1481;-0.1028;
610.8000;0.1490;-0.1075;
611.1000;0.1514;-0.0980;
611.4000;0.1506;-0.0956;
611.7000;0.1506;-0.0980;
612.0000;0.1522;-0.0956;
612.3000;0.1473;-0.1123;
612.6000;0.1457;-0.1075;
612.9000;0.1490;-0.1075;
613.2000;0.1457;-0.1099;
613.5000;0.1595;-0.0741;
613.8000;0.1433;-0.1219;
614.1000;0.1449;-0.1123;
614.4000;0.1498;-0.0908;
614.7000;0.1481;-0.0980;
615.0000;0.1441;-0.1051;
615.3000;0.1498;-0.0908;
615.6000;0.1465;-0.0956;
615.9000;0.1465;-0.1028;
616.2000;0.1473;-0.0980;
616.5000;0.1514;-0.0860;
616.8000;0.1481;-0.0956;
617.1000;0.1490;-0.0932;
617.4000;0.1473;-0.0980;
617.7000;0.1465;-0.1004;
618.0000;0.1498;-0.0980;
618.3000;0.1481;-0.1004;
618.6000;0.1481;-0.1004;
618.9000;0.1441;-0.1147;
619.2000;0.1473;-0.1123;
619.5000;0.1473;-0.1147;
619.8000;0.1481;-0.1123;
620.1000;0.1481;-0.1075;
620.4000;0.1498;-0.1004;
620.7000;0.1490;-0.1028;
621.0000;0.1498;-0.1099;
621.3000;0.1490;-0.1051;
621.6000;0.1498;-0.1004;
621.9000;0.1498;-0.0956;
622.2000;0.1441;-0.1028;
622.5000;0.1465;-0.0956;
622.8000;0.1490;-0.0884;
623.1000;0.1498;-0.0884;
623.4000;0.1490;-0.0860;
623.7000;0.1506;-0.0836;
624.0000;0.1481;-0.0932;
624.3000;0.1465;-0.0956;
624.6000;0.1441;-0.1147;
624.9000;0.1481;-0.1028;
625.2000;0.1522;-0.0908;
625.5000;0.1457;-0.1051;
625.8000;0.1490;-0.0980;
626.1000;0.1498;-0.0884;
626.4000;0.1506;-0.0836;
626.7000;0.1473;-0.1028;
627.0000;0.1498;-0.0980;
627.3000;0.1498;-0.0932;
627.6000;0.1481;-0.1051;
627.9000;0.1498;-0.1051;
628.2000;0.1498;-0.1004;
628.5000;0.1481;-0.1075;
628.8000;0.1498;-0.0932;
629.1000;0.1498;-0.0956;
629.4000;0.1498;-0.0956;
629.7000;0.1490;-0.1028;
630.0000;0.1490;-0.1099;
630.3000;0.1555;-0.0908;
630.6000;0.1473;-0.1171;
630.9000;0.1473;-0.1123;
631.2000;0.1481;-0.1195;
631.5000;0.1473;-0.1147;
631.8000;0.1498;-0.1123;
632.1000;0.1473;-0.1099;
632.4000;0.1490;-0.1051;
632.7000;0.1506;-0.1004;
633.0000;0.1490;-0.1051;
633.3000;0.1481;-0.1028;
633.6000;0.1473;-0.1004;
633.9000;0.1473;-0.1075;
634.2000;0.1506;-0.0980;
634.5000;0.1481;-0.1075;
634.8000;0.1490;-0.1051;
635.1000;0.1481;-0.1123;
635.4000;0.1490;-0.1099;
635.7000;0.1490;-0.1171;
636.0000;0.1441;-0.1314;
636.3000;0.1498;-0.1123;
636.6000;0.1490;-0.1099;
636.9000;0.1490;-0.1004;
637.2000;0.1490;-0.1028;
637.5000;0.1490;-0.0956;
637.8000;0.1449;-0.1028;
638.1000;0.1473;-0.0956;
638.4000;0.1490;-0.1028;
638.7000;0.1473;-0.1075;
639.0000;0.1473;-0.1075;
639.3000;0.1473;-0.1075;
639.6000;0.1449;-0.1099;
639.9000;0.1481;-0.1075;
640.2000;0.1498;-0.1075;
640.5000;0.1465;-0.1123;
640.8000;0.1441;-0.1123;
641.1000;0.1498;-0.1004;
641.4000;0.1514;-0.0956;
641.7000;0.1441;-0.1195;
642.0000;0.1473;-0.1171;
642.3000;0.1457;-0.1219;
642.6000;0.1465;-0.1219;
642.9000;0.1449;-0.1266;
643.2000;0.1473;-0.1243;
643.5000;0.1473;-0.1147;
643.8000;0.1473;-0.1147;
644.1000;0.1490;-0.1099;
644.4000;0.1433;-0.1243;
644.7000;0.1465;-0.1219;
645.0000;0.1490;-0.1219;
645.3000;0.1587;-0.0932;
645.6000;0.1473;-0.1195;
645.9000;0.1457;-0.1147;
646.2000;0.1498;-0.0956;
646.5000;0.1514;-0.0884;
646.8000;0.1473;-0.1051;
647.1000;0.1490;-0.1051;
647.4000;0.1490;-0.1123;
647.7000;0.1481;-0.1195;
648.0000;0.1490;-0.1195;
648.3000;0.1449;-0.1243;
648.6000;0.1506;-0.1051;
648.9000;0.1481;-0.1075;
649.2000;0.1473;-0.1147;
649.5000;0.1506;-0.1051;
649.8000;0.1473;-0.1123;
650.1000;0.1506;-0.1028;
650.4000;0.1490;-0.1051;
650.7000;0.1473;-0.1195;
651.0000;0.1473;-0.1266;
651.3000;0.1481;-0.1314;
651.6000;0.1490;-0.1386;
651.9000;0.1473;-0.1434;
652.2000;0.1457;-0.1386;
652.5000;0.1465;-0.1482;
652.8000;0.1457;-0.1458;
653.1000;0.1481;-0.1362;
653.4000;0.1498;-0.1338;
653.7000;0.1481;-0.1410;
654.0000;0.1481;-0.1434;
654.3000;0.1490;-0.1410;
654.6000;0.1473;-0.1410;
654.9000;0.1481;-0.1434;
655.2000;0.1522;-0.1243;
655.5000;0.1490;-0.1410;
655.8000;0.1490;-0.1410;
656.1000;0.1457;-0.1505;
656.4000;0.1465;-0.1458;
656.7000;0.1481;-0.1362;
657.0000;0.1465;-0.1386;
657.3000;0.1473;-0.1362;
657.6000;0.1457;-0.1290;
657.9000;0.1433;-0.1290;
658.2000;0.1522;-0.0980;
658.5000;0.1465;-0.1099;
658.8000;0.1498;-0.1099;
659.1000;0.1473;-0.1243;
659.4000;0.1465;-0.1314;
659.7000;0.1481;-0.1243;
660.0000;0.1595;-0.0956;
660.3000;0.1473;-0.1290;
660.6000;0.1457;-0.1362;
660.9000;0.1465;-0.1338;
661.2000;0.1408;-0.1482;
661.5000;0.1481;-0.1338;
661.8000;0.1490;-0.1314;
662.1000;0.1425;-0.1482;
662.4000;0.1433;-0.1577;
662.7000;0.1408;-0.1577;
663.0000;0.1490;-0.1314;
663.3000;0.1490;-0.1290;
663.6000;0.1538;-0.1171;
663.9000;0.1522;-0.1243;
664.2000;0.1335;-0.1697;
664.5000;0.1457;-0.1458;
664.8000;0.1384;-0.1625;
665.1000;0.1498;-0.1290;
665.4000;0.1457;-0.1338;
665.7000;0.1441;-0.1386;
666.0000;0.1571;-0.1099;
666.3000;0.1481;-0.1386;
666.6000;0.1457;-0.1529;
666.9000;0.1587;-0.1219;
667.2000;0.1465;-0.1482;
667.5000;0.1506;-0.1362;
667.8000;0.1457;-0.1434;
668.1000;0.1465;-0.1458;
668.4000;0.1506;-0.1338;
668.7000;0.1465;-0.1434;
669.0000;0.1481;-0.1410;
669.3000;0.1547;-0.1195;
669.6000;0.1522;-0.1243;
669.9000;0.1473;-0.1410;
670.2000;0.1473;-0.1314;
670.5000;0.1498;-0.1338;
670.8000;0.1473;-0.1458;
671.1000;0.1465;-0.1458;
671.4000;0.1514;-0.1338;
671.7000;0.1441;-0.1529;
672.0000;0.1490;-0.1434;
672.3000;0.1473;-0.1505;
672.6000;0.1425;-0.1577;
672.9000;0.1481;-0.1410;
673.2000;0.1490;-0.1338;
673.5000;0.1457;-0.1362;
673.8000;0.1457;-0.1410;
674.1000;0.1490;-0.1410;
674.4000;0.1481;-0.1434;
674.7000;0.1498;-0.1410;
675.0000;0.1465;-0.1386;
675.3000;0.1498;-0.1314;
675.6000;0.1490;-0.1243;
675.9000;0.1457;-0.1290;
676.2000;0.1473;-0.1314;
676.5000;0.1473;-0.1362;
676.8000;0.1473;-0.1410;
677.1000;0.1490;-0.1386;
677.4000;0.1473;-0.1410;
677.7000;0.1490;-0.1434;
678.0000;0.1498;-0.1338;
678.3000;0.1490;-0.1434;
678.6000;0.1490;-0.1266;
678.9000;0.1490;-0.1410;
679.2000;0.1473;-0.1410;
679.5000;0.1433;-0.1434;
679.8000;0.1465;-0.1410;
680.1000;0.1490;-0.1362;
680.4000;0.1522;-0.1314;
680.7000;0.1481;-0.1386;
681.0000;0.1498;-0.1338;
681.3000;0.1473;-0.1410;
681.6000;0.1457;-0.1410;
681.9000;0.1473;-0.1362;
682.2000;0.1514;-0.1243;
682.5000;0.1441;-0.1458;
682.8000;0.1490;-0.1434;
683.1000;0.1490;-0.1434;
683.4000;0.1433;-0.1505;
683.7000;0.1490;-0.1386;
684.0000;0.1538;-0.1171;
684.3000;0.1449;-0.1458;
684.6000;0.1481;-0.1314;
684.9000;0.1473;-0.1243;
685.2000;0.1490;-0.1171;
685.5000;0.1473;-0.1171;
685.8000;0.1449;-0.1290;
686.1000;0.1547;-0.1147;
686.4000;0.1522;-0.1314;
686.7000;0.1547;-0.1314;
687.0000;0.1473;-0.1482;
687.3000;0.1547;-0.1362;
687.6000;0.1522;-0.1290;
687.9000;0.1490;-0.1410;
688.2000;0.1351;-0.1768;
688.5000;0.1457;-0.1410;
688.8000;0.1490;-0.1338;
689.1000;0.1481;-0.1314;
689.4000;0.1490;-0.1290;
689.7000;0.1473;-0.1314;
690.0000;0.1498;-0.1290;
690.3000;0.1481;-0.1338;
690.6000;0.1481;-0.1362;
690.9000;0.1392;-0.1482;
691.2000;0.1498;-0.1051;
691.5000;0.1490;-0.1099;
691.8000;0.1465;-0.1219;
692.1000;0.1490;-0.1195;
692.4000;0.1473;-0.1195;
692.7000;0.1481;-0.1147;
693.0000;0.1498;-0.1147;
693.3000;0.1425;-0.1243;
693.6000;0.1587;-0.0836;
693.9000;0.1465;-0.1099;
694.2000;0.1498;-0.1147;
694.5000;0.1433;-0.1362;
694.8000;0.1490;-0.1290;
695.1000;0.1457;-0.1314;
695.4000;0.1563;-0.0980;
695.7000;0.1498;-0.1195;
696.0000;0.1498;-0.1147;
696.3000;0.1465;-0.1171;
696.6000;0.1514;-0.1051;
696.9000;0.1490;-0.1171;
697.2000;0.1465;-0.1219;
697.5000;0.1481;-0.1099;
697.8000;0.1490;-0.1075;
698.1000;0.1473;-0.1171;
698.4000;0.1490;-0.1075;
698.7000;0.1571;-0.0908;
699.0000;0.1481;-0.1219;
699.3000;0.1490;-0.1123;
699.6000;0.1498;-0.1147;
699.9000;0.1563;-0.0980;
700.2000;0.1449;-0.1147;
700.5000;0.1490;-0.1004;
700.8000;0.1506;-0.0980;
701.1000;0.1449;-0.1099;
701.4000;0.1498;-0.1075;
701.7000;0.1498;-0.1099;
702.0000;0.1490;-0.1147;
702.3000;0.1490;-0.1195;
702.6000;0.1473;-0.1243;
702.9000;0.1498;-0.1099;
703.2000;0.1490;-0.1147;
703.5000;0.1457;-0.1195;
703.8000;0.1465;-0.1171;
704.1000;0.1522;-0.1051;
704.4000;0.1433;-0.1219;
704.7000;0.1506;-0.1123;
705.0000;0.1416;-0.1410;
705.3000;0.1473;-0.1243;
705.6000;0.1481;-0.1219;
705.9000;0.1514;-0.1123;
706.2000;0.1490;-0.1051;
706.5000;0.1498;-0.1028;
706.8000;0.1490;-0.1051;
707.1000;0.1441;-0.1243;
707.4000;0.1449;-0.1195;
707.7000;0.1449;-0.1266;
708.0000;0.1473;-0.1243;
708.3000;0.1473;-0.1171;
708.6000;0.1514;-0.1147;
708.9000;0.1498;-0.1147;
709.2000;0.1506;-0.1147;
709.5000;0.1465;-0.1243;
709.8000;0.1465;-0.1266;
710.1000;0.1441;-0.1243;
710.4000;0.1522;-0.1051;
710.7000;0.1465;-0.1147;
711.0000;0.1490;-0.1028;
711.3000;0.1481;-0.0956;
711.6000;0.1481;-0.0956;
711.9000;0.1473;-0.0932;
712.2000;0.1473;-0.1004;
712.5000;0.1506;-0.0932;
712.8000;0.1481;-0.1004;
713.1000;0.1490;-0.1123;
713.4000;0.1481;-0.1195;
713.7000;0.1465;-0.1290;
714.0000;0.1465;-0.1243;
714.3000;0.1449;-0.1243;
714.6000;0.1449;-0.1219;
714.9000;0.1473;-0.1123;
715.2000;0.1473;-0.1051;
715.5000;0.1530;-0.1004;
715.8000;0.1498;-0.1171;
716.1000;0.1473;-0.1219;
716.4000;0.1498;-0.1219;
716.7000;0.1490;-0.1195;
717.0000;0.1481;-0.1266;
717.3000;0.1514;-0.1219;
717.6000;0.1506;-0.1195;
717.9000;0.1490;-0.1147;
718.2000;0.1490;-0.1195;
718.5000;0.1555;-0.1051;
718.8000;0.1473;-0.1290;
719.1000;0.1465;-0.1362;
719.4000;0.1457;-0.1338;
719.7000;0.1490;-0.1219;
720.0000;0.1473;-0.1195;
720.3000;0.1473;-0.1195;
720.6000;0.1441;-0.1362;
720.9000;0.1433;-0.1362;
721.2000;0.1465;-0.1195;
721.5000;0.1490;-0.1123;
721.8000;0.1473;-0.1219;
722.1000;0.1441;-0.1266;
722.4000;0.1490;-0.1219;
722.7000;0.1490;-0.1266;
723.0000;0.1465;-0.1266;
723.3000;0.1465;-0.1219;
723.6000;0.1538;-0.1075;
723.9000;0.1490;-0.1147;
724.2000;0.1481;-0.1266;
724.5000;0.1530;-0.1219;
724.8000;0.1465;-0.1290;
725.1000;0.1498;-0.1171;
725.4000;0.1457;-0.1195;
725.7000;0.1473;-0.1195;
726.0000;0.1473;-0.1243;
726.3000;0.1473;-0.1099;
726.6000;0.1522;-0.1075;
726.9000;0.1473;-0.1195;
727.2000;0.1433;-0.1314;
727.5000;0.1481;-0.1195;
727.8000;0.1481;-0.1195;
728.1000;0.1473;-0.1219;
728.4000;0.1498;-0.1171;
728.7000;0.1498;-0.1147;
729.0000;0.1473;-0.1195;
729.3000;0.1465;-0.1147;
729.6000;0.1481;-0.1123;
729.9000;0.1498;-0.1099;
730.2000;0.1481;-0.1195;
730.5000;0.1481;-0.1075;
730.8000;0.1465;-0.1075;
731.1000;0.1465;-0.1147;
731.4000;0.1481;-0.1051;
731.7000;0.1490;-0.1123;
732.0000;0.1490;-0.1171;
732.3000;0.1481;-0.1099;
732.6000;0.1473;-0.1099;
732.9000;0.1473;-0.1004;
733.2000;0.1481;-0.1028;
733.5000;0.1465;-0.1051;
733.8000;0.1481;-0.1051;
734.1000;0.1473;-0.0980;
734.4000;0.1506;-0.0932;
734.7000;0.1490;-0.1004;
735.0000;0.1490;-0.1099;
735.3000;0.1465;-0.1099;
735.6000;0.1490;-0.1075;
735.9000;0.1473;-0.1123;
736.2000;0.1498;-0.1123;
736.5000;0.1498;-0.1051;
736.8000;0.1490;-0.1099;
737.1000;0.1490;-0.0980;
737.4000;0.1555;-0.0836;
737.7000;0.1490;-0.1075;
738.0000;0.1465;-0.1099;
738.3000;0.1506;-0.1051;
738.6000;0.1425;-0.1219;
738.9000;0.1457;-0.1099;
739.2000;0.1481;-0.0980;
739.5000;0.1449;-0.1147;
739.8000;0.1490;-0.1075;
740.1000;0.1465;-0.1123;
740.4000;0.1481;-0.1171;
740.7000;0.1498;-0.1171;
741.0000;0.1490;-0.1195;
741.3000;0.1498;-0.1123;
741.6000;0.1506;-0.1075;
741.9000;0.1481;-0.1147;
742.2000;0.1498;-0.1147;
742.5000;0.1481;-0.1243;
742.8000;0.1473;-0.1171;
743.1000;0.1481;-0.1195;
743.4000;0.1481;-0.1195;
743.7000;0.1473;-0.1195;
744.0000;0.1465;-0.1147;
744.3000;0.1490;-0.1051;
744.6000;0.1490;-0.0980;
744.9000;0.1490;-0.0980;
745.2000;0.1465;-0.1028;
745.5000;0.1473;-0.1004;
745.8000;0.1490;-0.0932;
746.1000;0.1465;-0.1028;
746.4000;0.1473;-0.1028;
746.7000;0.1481;-0.1028;
747.0000;0.1481;-0.1075;
747.3000;0.1441;-0.1195;
747.6000;0.1465;-0.1147;
747.9000;0.1457;-0.1099;
748.2000;0.1481;-0.1075;
748.5000;0.1514;-0.1004;
748.8000;0.1481;-0.1075;
749.1000;0.1481;-0.1123;
749.4000;0.1481;-0.1075;
749.7000;0.1490;-0.0932;
750.0000;0.1490;-0.0956;
750.3000;0.1490;-0.0980;
750.6000;0.1473;-0.1004;
750.9000;0.1441;-0.1219;
751.2000;0.1506;-0.1004;
751.5000;0.1490;-0.1028;
751.8000;0.1473;-0.0980;
752.1000;0.1490;-0.1004;
752.4000;0.1481;-0.1099;
752.7000;0.1481;-0.1147;
753.0000;0.1514;-0.1099;
753.3000;0.1481;-0.1123;
753.6000;0.1465;-0.1195;
753.9000;0.1441;-0.1195;
754.2000;0.1481;-0.1051;
754.5000;0.1522;-0.0908;
754.8000;0.1498;-0.1004;
755.1000;0.1473;-0.1051;
755.4000;0.1506;-0.0884;
755.7000;0.1498;-0.0932;
756.0000;0.1473;-0.1028;
756.3000;0.1522;-0.0932;
756.6000;0.1481;-0.1004;
756.9000;0.1481;-0.1004;
757.2000;0.1457;-0.1123;
757.5000;0.1490;-0.1004;
757.8000;0.1538;-0.0836;
758.1000;0.1473;-0.0956;
758.4000;0.1571;-0.0717;
758.7000;0.1481;-0.0956;
759.0000;0.1473;-0.1004;
759.3000;0.1473;-0.1028;
759.6000;0.1506;-0.0932;
759.9000;0.1473;-0.0980;
760.2000;0.1465;-0.1051;
760.5000;0.1498;-0.0932;
760.8000;0.1473;-0.0956;
761.1000;0.1481;-0.0980;
761.4000;0.1514;-0.0884;
761.7000;0.1506;-0.0908;
762.0000;0.1490;-0.0932;
762.3000;0.1465;-0.1099;
762.6000;0.1465;-0.1171;
762.9000;0.1481;-0.1075;
763.2000;0.1473;-0.1051;
763.5000;0.1441;-0.1219;
763.8000;0.1498;-0.1123;
764.1000;0.1473;-0.1099;
764.4000;0.1473;-0.1075;
764.7000;0.1481;-0.0956;
765.0000;0.1473;-0.1028;
765.3000;0.1473;-0.0980;
765.6000;0.1490;-0.1004;
765.9000;0.1481;-0.0980;
766.2000;0.1473;-0.1028;
766.5000;0.1457;-0.1099;
766.8000;0.1587;-0.0765;
767.1000;0.1481;-0.1075;
767.4000;0.1473;-0.1171;
767.7000;0.1490;-0.1075;
768.0000;0.1473;-0.1051;
768.3000;0.1465;-0.1123;
768.6000;0.1506;-0.0980;
768.9000;0.1506;-0.1004;
769.2000;0.1481;-0.1099;
769.5000;0.1490;-0.1099;
769.8000;0.1490;-0.1028;
770.1000;0.1547;-0.0956;
770.4000;0.1490;-0.1004;
770.7000;0.1433;-0.1195;
771.0000;0.1473;-0.1028;
771.3000;0.1498;-0.0932;
771.6000;0.1490;-0.1028;
771.9000;0.1408;-0.1243;
772.2000;0.1490;-0.1028;
772.5000;0.1400;-0.1266;
772.8000;0.1433;-0.1147;
773.1000;0.1498;-0.0932;
773.4000;0.1473;-0.1051;
773.7000;0.1457;-0.1075;
774.0000;0.1441;-0.1243;
774.3000;0.1490;-0.1147;
774.6000;0.1449;-0.1243;
774.9000;0.1555;-0.0860;
775.2000;0.1490;-0.1028;
775.5000;0.1473;-0.1028;
775.8000;0.1506;-0.0932;
776.1000;0.1506;-0.0980;
776.4000;0.1506;-0.1004;
776.7000;0.1473;-0.1099;
777.0000;0.1408;-0.1266;
777.3000;0.1514;-0.1051;
777.6000;0.1498;-0.1004;
777.9000;0.1425;-0.1171;
778.2000;0.1571;-0.0836;
778.5000;0.1498;-0.1051;
778.8000;0.1481;-0.1099;
779.1000;0.1384;-0.1338;
779.4000;0.1449;-0.1243;
779.7000;0.1473;-0.1219;
780.0000;0.1490;-0.1243;
780.3000;0.1498;-0.1147;
780.6000;0.1490;-0.1147;
780.9000;0.1473;-0.1266;
781.2000;0.1457;-0.1219;
781.5000;0.1490;-0.1171;
781.8000;0.1481;-0.1123;
782.1000;0.1506;-0.1051;
782.4000;0.1498;-0.1123;
782.7000;0.1490;-0.1099;
783.0000;0.1465;-0.1099;
783.3000;0.1490;-0.1004;
783.6000;0.1490;-0.1028;
783.9000;0.1473;-0.1123;
784.2000;0.1498;-0.1099;
784.5000;0.1473;-0.1099;
784.8000;0.1490;-0.1051;
785.1000;0.1490;-0.1075;
785.4000;0.1457;-0.1195;
785.7000;0.1506;-0.0980;
786.0000;0.1490;-0.1075;
786.3000;0.1473;-0.1195;
786.6000;0.1563;-0.1028;
786.9000;0.1481;-0.1338;
787.2000;0.1481;-0.1314;
787.5000;0.1514;-0.1147;
787.8000;0.1473;-0.1195;
788.1000;0.1465;-0.1195;
788.4000;0.1490;-0.1099;
788.7000;0.1465;-0.1195;
789.0000;0.1465;-0.1314;
789.3000;0.1547;-0.1147;
789.6000;0.1498;-0.1290;
789.9000;0.1490;-0.1266;
790.2000;0.1506;-0.1243;
790.5000;0.1465;-0.1338;
790.8000;0.1449;-0.1362;
791.1000;0.1416;-0.1529;
791.4000;0.1457;-0.1410;
791.7000;0.1473;-0.1386;
792.0000;0.1490;-0.1314;
792.3000;0.1457;-0.1338;
792.6000;0.1481;-0.1195;
792.9000;0.1473;-0.1099;
793.2000;0.1481;-0.1123;
793.5000;0.1506;-0.1075;
793.8000;0.1490;-0.1195;
794.1000;0.1530;-0.1028;
794.4000;0.1481;-0.1075;
794.7000;0.1506;-0.1028;
795.0000;0.1473;-0.1123;
795.3000;0.1498;-0.1075;
795.6000;0.1628;-0.0717;
795.9000;0.1490;-0.1004;
796.2000;0.1449;-0.1099;
796.5000;0.1408;-0.1219;
796.8000;0.1465;-0.1099;
797.1000;0.1457;-0.1171;
797.4000;0.1359;-0.1505;
797.7000;0.1473;-0.1171;
798.0000;0.1481;-0.1147;
798.3000;0.1473;-0.1123;
798.6000;0.1498;-0.1123;
798.9000;0.1498;-0.1075;
799.2000;0.1555;-0.0932;
799.5000;0.1449;-0.1123;
799.8000;0.1441;-0.1099;
800.1000;0.1481;-0.0980;
800.4000;0.1481;-0.1028;
800.7000;0.1498;-0.1099;
801.0000;0.1498;-0.1075;
801.3000;0.1498;-0.0908;
801.6000;0.1473;-0.1028;
801.9000;0.1465;-0.1051;
802.2000;0.1506;-0.1075;
802.5000;0.1498;-0.1075;
802.8000;0.1490;-0.1075;
803.1000;0.1481;-0.1004;
803.4000;0.1538;-0.0836;
803.7000;0.1498;-0.1028;
804.0000;0.1498;-0.1099;
804.3000;0.1473;-0.1195;
804.6000;0.1498;-0.1123;
804.9000;0.1473;-0.1075;
805.2000;0.1481;-0.1028;
805.5000;0.1490;-0.1004;
805.8000;0.1498;-0.0980;
806.1000;0.1465;-0.1075;
806.4000;0.1465;-0.1028;
806.7000;0.1465;-0.1051;
807.0000;0.1465;-0.1028;
807.3000;0.1465;-0.1075;
807.6000;0.1473;-0.1099;
807.9000;0.1481;-0.1075;
808.2000;0.1473;-0.1075;
808.5000;0.1490;-0.1028;
808.8000;0.1473;-0.1028;
809.1000;0.1522;-0.0980;
809.4000;0.1481;-0.1147;
809.7000;0.1490;-0.1195;
810.0000;0.1481;-0.1195;
810.3000;0.1473;-0.1266;
810.6000;0.1481;-0.1243;
810.9000;0.1506;-0.1243;
811.2000;0.1481;-0.1243;
811.5000;0.1473;-0.1219;
811.8000;0.1473;-0.1290;
812.1000;0.1506;-0.1314;
812.4000;0.1473;-0.1362;
812.7000;0.1490;-0.1195;
813.0000;0.1457;-0.1290;
813.3000;0.1473;-0.1243;
813.6000;0.1473;-0.1266;
813.9000;0.1481;-0.1290;
814.2000;0.1490;-0.1219;
814.5000;0.1498;-0.1219;
814.8000;0.1465;-0.1266;
815.1000;0.1425;-0.1386;
815.4000;0.1530;-0.1028;
815.7000;0.1481;-0.1051;
816.0000;0.1506;-0.1004;
816.3000;0.1441;-0.1123;
816.6000;0.1481;-0.1051;
816.9000;0.1457;-0.1243;
817.2000;0.1465;-0.1219;
817.5000;0.1465;-0.1243;
817.8000;0.1481;-0.1195;
818.1000;0.1473;-0.1243;
818.4000;0.1465;-0.1362;
818.7000;0.1498;-0.1219;
819.0000;0.1481;-0.1266;
819.3000;0.1433;-0.1386;
819.6000;0.1514;-0.1219;
819.9000;0.1473;-0.1314;
820.2000;0.1538;-0.1099;
820.5000;0.1522;-0.1075;
820.8000;0.1490;-0.1195;
821.1000;0.1481;-0.1171;
821.4000;0.1449;-0.1266;
821.7000;0.1490;-0.1243;
822.0000;0.1490;-0.1195;
822.3000;0.1449;-0.1338;
822.6000;0.1465;-0.1314;
822.9000;0.1490;-0.1290;
823.2000;0.1538;-0.1051;
823.5000;0.1490;-0.1195;
823.8000;0.1481;-0.1171;
824.1000;0.1481;-0.1099;
824.4000;0.1506;-0.0956;
824.7000;0.1498;-0.1004;
825.0000;0.1465;-0.1075;
825.3000;0.1506;-0.0980;
825.6000;0.1416;-0.1075;
825.9000;0.1490;-0.1004;
826.2000;0.1490;-0.1028;
826.5000;0.1481;-0.1028;
826.8000;0.1481;-0.1028;
827.1000;0.1473;-0.1051;
827.4000;0.1473;-0.1075;
827.7000;0.1473;-0.1123;
828.0000;0.1490;-0.1051;
828.3000;0.1571;-0.0860;
828.6000;0.1490;-0.1028;
828.9000;0.1473;-0.1123;
829.2000;0.1498;-0.1075;
829.5000;0.1490;-0.1051;
829.8000;0.1481;-0.1051;
830.1000;0.1473;-0.1051;
830.4000;0.1498;-0.0956;
830.7000;0.1473;-0.1028;
831.0000;0.1481;-0.1028;
831.3000;0.1481;-0.1051;
831.6000;0.1449;-0.1099;
831.9000;0.1481;-0.1075;
832.2000;0.1506;-0.1051;
832.5000;0.1530;-0.1028;
832.8000;0.1416;-0.1314;
833.1000;0.1481;-0.1147;
833.4000;0.1449;-0.1243;
833.7000;0.1457;-0.1171;
834.0000;0.1465;-0.1195;
834.3000;0.1473;-0.1195;
834.6000;0.1416;-0.1338;
834.9000;0.1481;-0.1243;
835.2000;0.1506;-0.1243;
835.5000;0.1473;-0.1266;
835.8000;0.1490;-0.1147;
836.1000;0.1498;-0.1123;
836.4000;0.1612;-0.0789;
836.7000;0.1555;-0.0956;
837.0000;0.1490;-0.1171;
837.3000;0.1481;-0.1219;
837.6000;0.1449;-0.1314;
837.9000;0.1604;-0.0860;
838.2000;0.1441;-0.1195;
838.5000;0.1490;-0.1075;
838.8000;0.1490;-0.1147;
839.1000;0.1449;-0.1243;
839.4000;0.1473;-0.1147;
839.7000;0.1506;-0.1075;
840.0000;0.1473;-0.1243;
840.3000;0.1465;-0.1362;
840.6000;0.1441;-0.1410;
840.9000;0.1481;-0.1266;
841.2000;0.1490;-0.1290;
841.5000;0.1506;-0.1243;
841.8000;0.1465;-0.1314;
842.1000;0.1457;-0.1338;
842.4000;0.1490;-0.1266;
842.7000;0.1498;-0.1290;
843.0000;0.1490;-0.1338;
843.3000;0.1473;-0.1458;
843.6000;0.1473;-0.1482;
843.9000;0.1457;-0.1434;
844.2000;0.1490;-0.1314;
844.5000;0.1498;-0.1219;
844.8000;0.1498;-0.1243;
845.1000;0.1490;-0.1243;
845.4000;0.1490;-0.1195;
845.7000;0.1457;-0.1266;
846.0000;0.1506;-0.1147;
846.3000;0.1481;-0.1171;
846.6000;0.1498;-0.1099;
846.9000;0.1319;-0.1458;
847.2000;0.1457;-0.1219;
847.5000;0.1514;-0.1028;
847.8000;0.1465;-0.1171;
848.1000;0.1481;-0.1051;
848.4000;0.1441;-0.1123;
848.7000;0.1465;-0.1099;
849.0000;0.1490;-0.1028;
849.3000;0.1490;-0.1099;
849.6000;0.1473;-0.1099;
849.9000;0.1481;-0.1075;
850.2000;0.1490;-0.1099;
850.5000;0.1392;-0.1314;
850.8000;0.1465;-0.1171;
851.1000;0.1473;-0.1219;
851.4000;0.1457;-0.1219;
851.7000;0.1465;-0.1243;
852.0000;0.1473;-0.1147;
852.3000;0.1498;-0.1123;
852.6000;0.1506;-0.1171;
852.9000;0.1481;-0.1123;
853.2000;0.1498;-0.1099;
853.5000;0.1400;-0.1266;
853.8000;0.1490;-0.1051;
854.1000;0.1506;-0.1075;
854.4000;0.1449;-0.1314;
854.7000;0.1481;-0.1171;
855.0000;0.1481;-0.1195;
855.3000;0.1490;-0.1171;
855.6000;0.1473;-0.1147;
855.9000;0.1481;-0.1171;
856.2000;0.1465;-0.1243;
856.5000;0.1449;-0.1290;
856.8000;0.1506;-0.1219;
857.1000;0.1498;-0.1266;
857.4000;0.1441;-0.1338;
857.7000;0.1473;-0.1290;
858.0000;0.1465;-0.1266;
858.3000;0.1506;-0.1266;
858.6000;0.1498;-0.1338;
858.9000;0.1481;-0.1338;
859.2000;0.1498;-0.1266;
859.5000;0.1408;-0.1410;
859.8000;0.1481;-0.1290;
860.1000;0.1473;-0.1266;
860.4000;0.1481;-0.1195;
860.7000;0.1433;-0.1243;
861.0000;0.1473;-0.1123;
861.3000;0.1457;-0.1290;
861.6000;0.1490;-0.1266;
861.9000;0.1351;-0.1601;
862.2000;0.1481;-0.1314;
862.5000;0.1449;-0.1338;
862.8000;0.1490;-0.1195;
863.1000;0.1522;-0.1099;
863.4000;0.1473;-0.1099;
863.7000;0.1490;-0.1099;
864.0000;0.1490;-0.1171;
864.3000;0.1425;-0.1314;
864.6000;0.1490;-0.1075;
864.9000;0.1481;-0.1004;
865.2000;0.1441;-0.1028;
865.5000;0.1465;-0.1051;
865.8000;0.1490;-0.0980;
866.1000;0.1449;-0.1051;
866.4000;0.1481;-0.0932;
866.7000;0.1490;-0.0980;
867.0000;0.1473;-0.1099;
867.3000;0.1392;-0.1386;
867.6000;0.1457;-0.1243;
867.9000;0.1498;-0.1171;
868.2000;0.1490;-0.1219;
868.5000;0.1441;-0.1266;
868.8000;0.1490;-0.1171;
869.1000;0.1449;-0.1219;
869.4000;0.1433;-0.1219;
869.7000;0.1490;-0.1195;
870.0000;0.1490;-0.1171;
870.3000;0.1490;-0.1123;
870.6000;0.1498;-0.1075;
870.9000;0.1400;-0.1314;
871.2000;0.1473;-0.1099;
871.5000;0.1473;-0.1075;
871.8000;0.1473;-0.1099;
872.1000;0.1473;-0.1099;
872.4000;0.1465;-0.1171;
872.7000;0.1473;-0.1147;
873.0000;0.1433;-0.1290;
873.3000;0.1490;-0.1075;
873.6000;0.1514;-0.0956;
873.9000;0.1473;-0.1028;
874.2000;0.1465;-0.1075;
874.5000;0.1408;-0.1314;
874.8000;0.1506;-0.1051;
875.1000;0.1490;-0.1028;
875.4000;0.1506;-0.1004;
875.7000;0.1490;-0.1004;
876.0000;0.1490;-0.0956;
876.3000;0.1547;-0.0789;
876.6000;0.1465;-0.1028;
876.9000;0.1473;-0.1028;
877.2000;0.1490;-0.1028;
877.5000;0.1490;-0.1028;
877.8000;0.1473;-0.0980;
878.1000;0.1490;-0.0956;
878.4000;0.1481;-0.0884;
878.7000;0.1490;-0.0860;
879.0000;0.1498;-0.0860;
879.3000;0.1490;-0.0884;
879.6000;0.1490;-0.0860;
879.9000;0.1514;-0.0789;
880.2000;0.1490;-0.0884;
880.5000;0.1473;-0.0932;
880.8000;0.1481;-0.0980;
881.1000;0.1498;-0.0956;
881.4000;0.1449;-0.1051;
881.7000;0.1457;-0.1051;
882.0000;0.1498;-0.1004;
882.3000;0.1425;-0.1099;
882.6000;0.1473;-0.1028;
882.9000;0.1457;-0.1099;
883.2000;0.1481;-0.1075;
883.5000;0.1498;-0.1051;
883.8000;0.1376;-0.1362;
884.1000;0.1490;-0.1028;
884.4000;0.1449;-0.1075;
884.7000;0.1490;-0.0980;
885.0000;0.1490;-0.1051;
885.3000;0.1473;-0.1099;
885.6000;0.1473;-0.1099;
885.9000;0.1473;-0.1028;
886.2000;0.1490;-0.0980;
886.5000;0.1490;-0.1004;
886.8000;0.1506;-0.0956;
887.1000;0.1490;-0.0980;
887.4000;0.1449;-0.1075;
887.7000;0.1481;-0.1075;
888.0000;0.1506;-0.1099;
888.3000;0.1498;-0.1099;
888.6000;0.1490;-0.1099;
888.9000;0.1433;-0.1147;
889.2000;0.1481;-0.0956;
889.5000;0.1465;-0.1028;
889.8000;0.1498;-0.1051;
890.1000;0.1473;-0.1004;
890.4000;0.1465;-0.1028;
890.7000;0.1351;-0.1290;
891.0000;0.1449;-0.1051;
891.3000;0.1555;-0.0812;
891.6000;0.1481;-0.1028;
891.9000;0.1473;-0.1004;
892.2000;0.1457;-0.1075;
892.5000;0.1490;-0.1075;
892.8000;0.1490;-0.1075;
893.1000;0.1416;-0.1195;
893.4000;0.1506;-0.0908;
893.7000;0.1433;-0.1123;
894.0000;0.1408;-0.1147;
894.3000;0.1457;-0.1051;
894.6000;0.1490;-0.0932;
894.9000;0.1481;-0.0884;
895.2000;0.1530;-0.0789;
895.5000;0.1579;-0.0741;
895.8000;0.1457;-0.1099;
896.1000;0.1571;-0.0812;
896.4000;0.1473;-0.1075;
896.7000;0.1481;-0.1028;
897.0000;0.1473;-0.1075;
897.3000;0.1473;-0.1075;
897.6000;0.1538;-0.0884;
897.9000;0.1481;-0.0956;
898.2000;0.1481;-0.0980;
898.5000;0.1473;-0.1075;
898.8000;0.1457;-0.1123;
899.1000;0.1481;-0.1099;
899.4000;0.1490;-0.1075;
899.7000;0.1481;-0.1099;
900.0000;0.1481;-0.1147;
900.3000;0.1481;-0.1099;
900.6000;0.1473;-0.1028;
900.9000;0.1473;-0.1004;
901.2000;0.1449;-0.1099;
901.5000;0.1498;-0.1123;
901.8000;0.1506;-0.1075;
902.1000;0.1490;-0.1099;
902.4000;0.1481;-0.1123;
902.7000;0.1514;-0.1123;
903.0000;0.1465;-0.1290;
903.3000;0.1490;-0.1290;
903.6000;0.1465;-0.1290;
903.9000;0.1481;-0.1243;
904.2000;0.1490;-0.1171;
904.5000;0.1481;-0.1147;
904.8000;0.1481;-0.1123;
905.1000;0.1473;-0.1171;
905.4000;0.1465;-0.1171;
905.7000;0.1425;-0.1123;
906.0000;0.1408;-0.1099;
906.3000;0.1368;-0.1171;
906.6000;0.1481;-0.0980;
906.9000;0.1498;-0.1004;
907.2000;0.1490;-0.1004;
907.5000;0.1481;-0.0956;
907.8000;0.1473;-0.0980;
908.1000;0.1506;-0.0860;
908.4000;0.1506;-0.0741;
908.7000;0.1490;-0.0765;
909.0000;0.1481;-0.0860;
909.3000;0.1514;-0.0741;
909.6000;0.1498;-0.0789;
909.9000;0.1457;-0.0956;
910.2000;0.1465;-0.0956;
910.5000;0.1449;-0.0908;
910.8000;0.1481;-0.0956;
911.1000;0.1490;-0.1051;
911.4000;0.1473;-0.1099;
911.7000;0.1579;-0.0812;
912.0000;0.1490;-0.1099;
912.3000;0.1490;-0.1004;
912.6000;0.1441;-0.1123;
912.9000;0.1473;-0.0980;
913.2000;0.1408;-0.1075;
913.5000;0.1490;-0.0836;
913.8000;0.1490;-0.0812;
914.1000;0.1465;-0.0884;
914.4000;0.1612;-0.0574;
914.7000;0.1433;-0.1051;
915.0000;0.1465;-0.1004;
915.3000;0.1473;-0.1051;
915.6000;0.1473;-0.1004;
915.9000;0.1481;-0.1075;
916.2000;0.1481;-0.1051;
916.5000;0.1465;-0.1028;
916.8000;0.1498;-0.1051;
917.1000;0.1465;-0.1004;
917.4000;0.1473;-0.0956;
917.7000;0.1538;-0.0789;
918.0000;0.1465;-0.1028;
918.3000;0.1481;-0.1075;
918.6000;0.1506;-0.1004;
918.9000;0.1473;-0.1075;
919.2000;0.1490;-0.1099;
919.5000;0.1481;-0.1123;
919.8000;0.1473;-0.1099;
920.1000;0.1555;-0.0836;
920.4000;0.1481;-0.1028;
920.7000;0.1465;-0.0980;
921.0000;0.1481;-0.0884;
921.3000;0.1498;-0.0860;
921.6000;0.1457;-0.0908;
921.9000;0.1498;-0.0836;
922.2000;0.1481;-0.0956;
922.5000;0.1449;-0.1099;
922.8000;0.1498;-0.0932;
923.1000;0.1481;-0.1028;
923.4000;0.1490;-0.0956;
923.7000;0.1473;-0.0980;
924.0000;0.1481;-0.0956;
924.3000;0.1481;-0.0980;
924.6000;0.1473;-0.1028;
924.9000;0.1490;-0.1028;
925.2000;0.1465;-0.1099;
925.5000;0.1449;-0.1099;
925.8000;0.1490;-0.1028;
926.1000;0.1465;-0.1028;
926.4000;0.1465;-0.1075;
926.7000;0.1465;-0.1123;
927.0000;0.1465;-0.1171;
927.3000;0.1490;-0.1123;
927.6000;0.1465;-0.1099;
927.9000;0.1498;-0.1028;
928.2000;0.1473;-0.1004;
928.5000;0.1490;-0.0908;
928.8000;0.1514;-0.0860;
929.1000;0.1473;-0.0980;
929.4000;0.1481;-0.1004;
929.7000;0.1506;-0.0908;
930.0000;0.1473;-0.1028;
930.3000;0.1481;-0.1028;
930.6000;0.1490;-0.1004;
930.9000;0.1449;-0.1147;
931.2000;0.1481;-0.1099;
931.5000;0.1490;-0.1171;
931.8000;0.1481;-0.1195;
932.1000;0.1465;-0.1147;
932.4000;0.1473;-0.1028;
932.7000;0.1473;-0.1051;
933.0000;0.1481;-0.1051;
933.3000;0.1473;-0.1028;
933.6000;0.1473;-0.0908;
933.9000;0.1457;-0.1051;
934.2000;0.1449;-0.1075;
934.5000;0.1490;-0.1051;
934.8000;0.1490;-0.1004;
935.1000;0.1538;-0.0812;
935.4000;0.1400;-0.1314;
935.7000;0.1457;-0.1219;
936.0000;0.1465;-0.1195;
936.3000;0.1490;-0.1123;
936.6000;0.1498;-0.1051;
936.9000;0.1481;-0.1004;
937.2000;0.1473;-0.0956;
937.5000;0.1481;-0.0908;
937.8000;0.1465;-0.0932;
938.1000;0.1449;-0.1028;
938.4000;0.1490;-0.0860;
938.7000;0.1547;-0.0693;
939.0000;0.1490;-0.0789;
939.3000;0.1498;-0.0717;
939.6000;0.1457;-0.0860;
939.9000;0.1481;-0.0812;
940.2000;0.1473;-0.0812;
940.5000;0.1490;-0.0645;
940.8000;0.1498;-0.0550;
941.1000;0.1498;-0.0597;
941.4000;0.1490;-0.0597;
941.7000;0.1481;-0.0717;
942.0000;0.1490;-0.0693;
942.3000;0.1506;-0.0693;
942.6000;0.1481;-0.0765;
942.9000;0.1473;-0.0884;
943.2000;0.1473;-0.0956;
943.5000;0.1481;-0.1075;
943.8000;0.1490;-0.0980;
944.1000;0.1481;-0.0956;
944.4000;0.1506;-0.0884;
944.7000;0.1498;-0.0884;
945.0000;0.1506;-0.0884;
945.3000;0.1506;-0.0860;
945.6000;0.1498;-0.0956;
945.9000;0.1506;-0.0956;
946.2000;0.1514;-0.0956;
946.5000;0.1465;-0.1051;
946.8000;0.1481;-0.0884;
947.1000;0.1481;-0.0932;
947.4000;0.1481;-0.0932;
947.7000;0.1506;-0.0956;
948.0000;0.1465;-0.0980;
948.3000;0.1457;-0.1075;
948.6000;0.1473;-0.0908;
948.9000;0.1481;-0.0884;
949.2000;0.1481;-0.0980;
949.5000;0.1449;-0.1075;
949.8000;0.1514;-0.0836;
950.1000;0.1425;-0.1004;
950.4000;0.1498;-0.0932;
950.7000;0.1498;-0.0980;
951.0000;0.1587;-0.0693;
951.3000;0.1359;-0.1338;
951.6000;0.1498;-0.1075;
951.9000;0.1547;-0.1004;
952.2000;0.1498;-0.1099;
952.5000;0.1473;-0.1099;
952.8000;0.1384;-0.1338;
953.1000;0.1473;-0.1147;
953.4000;0.1498;-0.1051;
953.7000;0.1498;-0.1075;
954.0000;0.1351;-0.1434;
954.3000;0.1490;-0.1123;
954.6000;0.1498;-0.1147;
954.9000;0.1506;-0.1028;
955.2000;0.1490;-0.1123;
955.5000;0.1465;-0.1195;
955.8000;0.1506;-0.1123;
956.1000;0.1481;-0.1195;
956.4000;0.1498;-0.1051;
956.7000;0.1473;-0.1099;
957.0000;0.1465;-0.1123;
957.3000;0.1498;-0.1028;
957.6000;0.1538;-0.0836;
957.9000;0.1481;-0.1004;
958.2000;0.1522;-0.0956;
958.5000;0.1465;-0.0980;
958.8000;0.1481;-0.1051;
959.1000;0.1498;-0.1051;
959.4000;0.1530;-0.0860;
959.7000;0.1473;-0.0932;
960.0000;0.1506;-0.0860;
960.3000;0.1481;-0.0860;
960.6000;0.1490;-0.0812;
960.9000;0.1449;-0.1004;
961.2000;0.1416;-0.1051;
961.5000;0.1490;-0.0860;
961.8000;0.1473;-0.0908;
962.1000;0.1490;-0.0860;
962.4000;0.1498;-0.0741;
962.7000;0.1490;-0.0812;
963.0000;0.1481;-0.0836;
963.3000;0.1490;-0.0836;
963.6000;0.1490;-0.0836;
963.9000;0.1498;-0.0860;
964.2000;0.1490;-0.0884;
964.5000;0.1498;-0.0932;
964.8000;0.1481;-0.0956;
965.1000;0.1473;-0.1028;
965.4000;0.1473;-0.1123;
965.7000;0.1490;-0.1123;
966.0000;0.1473;-0.1147;
966.3000;0.1359;-0.1458;
966.6000;0.1481;-0.1123;
966.9000;0.1498;-0.1075;
967.2000;0.1473;-0.1147;
967.5000;0.1425;-0.1266;
967.8000;0.1490;-0.1075;
968.1000;0.1490;-0.0980;
968.4000;0.1449;-0.1147;
968.7000;0.1473;-0.0980;
969.0000;0.1481;-0.1004;
969.3000;0.1522;-0.0932;
969.6000;0.1490;-0.1028;
969.9000;0.1481;-0.1028;
970.2000;0.1465;-0.1004;
970.5000;0.1506;-0.0932;
970.8000;0.1473;-0.1028;
971.1000;0.1473;-0.1051;
971.4000;0.1481;-0.1099;
971.7000;0.1490;-0.1123;
972.0000;0.1506;-0.1099;
972.3000;0.1498;-0.1123;
972.6000;0.1530;-0.1051;
972.9000;0.1530;-0.0956;
973.2000;0.1490;-0.0980;
973.5000;0.1473;-0.1051;
973.8000;0.1473;-0.1051;
974.1000;0.1481;-0.1028;
974.4000;0.1490;-0.0932;
974.7000;0.1457;-0.1051;
975.0000;0.1473;-0.1028;
975.3000;0.1490;-0.1051;
975.6000;0.1530;-0.0956;
975.9000;0.1433;-0.1147;
976.2000;0.1473;-0.1075;
976.5000;0.1425;-0.1314;
976.8000;0.1555;-0.0980;
977.1000;0.1473;-0.1195;
977.4000;0.1473;-0.1147;
977.7000;0.1457;-0.1099;
978.0000;0.1473;-0.1195;
978.3000;0.1490;-0.1123;
978.6000;0.1481;-0.1147;
978.9000;0.1490;-0.1123;
979.2000;0.1481;-0.1123;
979.5000;0.1465;-0.1147;
979.8000;0.1498;-0.0980;
980.1000;0.1522;-0.0932;
980.4000;0.1498;-0.1004;
980.7000;0.1481;-0.0980;
981.0000;0.1457;-0.1099;
981.3000;0.1457;-0.1123;
981.6000;0.1425;-0.1243;
981.9000;0.1465;-0.1123;
982.2000;0.1498;-0.1099;
982.5000;0.1481;-0.1075;
982.8000;0.1490;-0.1099;
983.1000;0.1473;-0.1099;
983.4000;0.1481;-0.1099;
983.7000;0.1473;-0.1195;
984.0000;0.1376;-0.1482;
984.3000;0.1368;-0.1434;
984.6000;0.1481;-0.1075;
984.9000;0.1408;-0.1219;
985.2000;0.1490;-0.1051;
985.5000;0.1571;-0.0860;
985.8000;0.1498;-0.1075;
986.1000;0.1490;-0.1147;
986.4000;0.1473;-0.1123;
986.7000;0.1481;-0.1123;
987.0000;0.1384;-0.1338;
987.3000;0.1498;-0.1051;
987.6000;0.1457;-0.1195;
987.9000;0.1514;-0.1099;
988.2000;0.1465;-0.1171;
988.5000;0.1490;-0.1195;
988.8000;0.1498;-0.1195;
989.1000;0.1498;-0.1171;
989.4000;0.1490;-0.1219;
989.7000;0.1490;-0.1171;
990.0000;0.1481;-0.1123;
990.3000;0.1473;-0.1195;
990.6000;0.1473;-0.1195;
990.9000;0.1473;-0.1195;
991.2000;0.1498;-0.1171;
991.5000;0.1490;-0.1099;
991.8000;0.1457;-0.1075;
992.1000;0.1490;-0.1123;
992.4000;0.1498;-0.0932;
992.7000;0.1465;-0.0932;
993.0000;0.1473;-0.1004;
993.3000;0.1481;-0.0980;
993.6000;0.1465;-0.1004;
993.9000;0.1490;-0.1051;
994.2000;0.1457;-0.1123;
994.5000;0.1490;-0.1051;
994.8000;0.1449;-0.1195;
995.1000;0.1490;-0.1075;
995.4000;0.1490;-0.1075;
995.7000;0.1498;-0.1099;
996.0000;0.1473;-0.1195;
996.3000;0.1457;-0.1171;
996.6000;0.1473;-0.1028;
996.9000;0.1514;-0.0884;
997.2000;0.1465;-0.1028;
997.5000;0.1490;-0.0860;
997.8000;0.1490;-0.0812;
998.1000;0.1481;-0.0836;
998.4000;0.1481;-0.0932;
998.7000;0.1498;-0.0908;
999.0000;0.1481;-0.1004;
999.3000;0.1490;-0.1099;
999.6000;0.1481;-0.1099;
999.9000;0.1416;-0.1243;
1000.2000;0.1506;-0.0956;
1000.5000;0.1506;-0.1051;
1000.8000;0.1465;-0.1075;
1001.1000;0.1538;-0.0836;
1001.4000;0.1392;-0.1243;
1001.7000;0.1490;-0.1028;
1002.0000;0.1498;-0.0980;
1002.3000;0.1425;-0.1028;
1002.6000;0.1481;-0.0884;
1002.9000;0.1506;-0.0765;
1003.2000;0.1481;-0.0836;
1003.5000;0.1473;-0.0860;
1003.8000;0.1449;-0.0908;
1004.1000;0.1457;-0.1004;
1004.4000;0.1490;-0.0908;
1004.7000;0.1538;-0.0812;
1005.0000;0.1498;-0.0884;
1005.3000;0.1498;-0.0884;
1005.6000;0.1490;-0.0860;
1005.9000;0.1351;-0.1099;
1006.2000;0.1481;-0.0812;
1006.5000;0.1538;-0.0621;
1006.8000;0.1498;-0.0741;
1007.1000;0.1490;-0.0765;
1007.4000;0.1555;-0.0669;
1007.7000;0.1473;-0.0980;
1008.0000;0.1473;-0.0932;
1008.3000;0.1498;-0.0956;
1008.6000;0.1490;-0.1028;
1008.9000;0.1490;-0.0980;
1009.2000;0.1514;-0.0812;
1009.5000;0.1530;-0.0789;
1009.8000;0.1465;-0.0908;
1010.1000;0.1514;-0.0860;
1010.4000;0.1473;-0.0956;
1010.7000;0.1587;-0.0597;
1011.0000;0.1416;-0.1051;
1011.3000;0.1490;-0.0860;
1011.6000;0.1522;-0.0836;
1011.9000;0.1473;-0.1028;
1012.2000;0.1498;-0.1004;
1012.5000;0.1473;-0.1028;
1012.8000;0.1612;-0.0789;
1013.1000;0.1498;-0.1004;
1013.4000;0.1481;-0.0980;
1013.7000;0.1473;-0.1051;
1014.0000;0.1481;-0.1028;
1014.3000;0.1490;-0.0980;
1014.6000;0.1498;-0.0932;
1014.9000;0.1481;-0.0884;
1015.2000;0.1490;-0.0908;
1015.5000;0.1522;-0.0789;
1015.8000;0.1433;-0.1051;
1016.1000;0.1473;-0.0980;
1016.4000;0.1481;-0.0956;
1016.7000;0.1465;-0.1004;
1017.0000;0.1481;-0.0956;
1017.3000;0.1473;-0.0932;
1017.6000;0.1481;-0.0884;
1017.9000;0.1547;-0.0693;
1018.2000;0.1490;-0.0908;
1018.5000;0.1473;-0.0956;
1018.8000;0.1481;-0.0908;
1019.1000;0.1481;-0.0980;
1019.4000;0.1465;-0.1075;
1019.7000;0.1506;-0.1028;
1020.0000;0.1465;-0.1171;
1020.3000;0.1473;-0.1147;
1020.6000;0.1481;-0.1123;
1020.9000;0.1490;-0.1099;
1021.2000;0.1465;-0.1147;
1021.5000;0.1449;-0.1171;
1021.8000;0.1522;-0.0980;
1022.1000;0.1604;-0.0765;
1022.4000;0.1506;-0.1004;
1022.7000;0.1481;-0.1099;
1023.0000;0.1481;-0.1147;
1023.3000;0.1457;-0.1195;
1023.6000;0.1498;-0.1075;
1023.9000;0.1514;-0.1028;
1024.2000;0.1425;-0.1314;
1024.5000;0.1547;-0.0956;
1024.8000;0.1473;-0.1004;
1025.1000;0.1449;-0.1051;
1025.4000;0.1490;-0.0980;
1025.7000;0.1490;-0.0956;
1026.0000;0.1522;-0.0860;
1026.3000;0.1506;-0.0884;
1026.6000;0.1449;-0.0980;
1026.9000;0.1498;-0.0908;
1027.2000;0.1498;-0.0908;
1027.5000;0.1457;-0.1075;
1027.8000;0.1465;-0.1075;
1028.1000;0.1498;-0.0980;
1028.4000;0.1465;-0.1028;
1028.7000;0.1530;-0.0884;
1029.0000;0.1465;-0.0980;
1029.3000;0.1473;-0.1028;
1029.6000;0.1481;-0.1075;
1029.9000;0.1490;-0.0980;
1030.2000;0.1514;-0.0932;
1030.5000;0.1514;-0.0908;
1030.8000;0.1481;-0.1004;
1031.1000;0.1457;-0.1075;
1031.4000;0.1465;-0.1099;
1031.7000;0.1408;-0.1123;
1032.0000;0.1498;-0.0908;
1032.3000;0.1506;-0.0932;
1032.6000;0.1538;-0.0789;
1032.9000;0.1481;-0.1028;
1033.2000;0.1490;-0.1028;
1033.5000;0.1465;-0.1099;
1033.8000;0.1473;-0.1075;
1034.1000;0.1481;-0.1075;
1034.4000;0.1481;-0.1004;
1034.7000;0.1490;-0.0932;
1035.0000;0.1490;-0.0956;
1035.3000;0.1408;-0.1171;
1035.6000;0.1465;-0.1147;
1035.9000;0.1498;-0.1028;
1036.2000;0.1506;-0.1004;
1036.5000;0.1514;-0.0932;
1036.8000;0.1498;-0.0956;
1037.1000;0.1481;-0.1028;
1037.4000;0.1498;-0.1051;
1037.7000;0.1506;-0.1147;
1038.0000;0.1481;-0.1147;
1038.3000;0.1473;-0.1147;
1038.6000;0.1473;-0.1051;
1038.9000;0.1473;-0.1051;
1039.2000;0.1490;-0.1004;
1039.5000;0.1490;-0.1028;
1039.8000;0.1506;-0.0980;
1040.1000;0.1490;-0.1099;
1040.4000;0.1481;-0.1147;
1040.7000;0.1473;-0.1171;
1041.0000;0.1481;-0.1171;
1041.3000;0.1457;-0.1219;
1041.6000;0.1481;-0.1195;
1041.9000;0.1506;-0.1099;
1042.2000;0.1498;-0.1123;
1042.5000;0.1498;-0.1171;
1042.8000;0.1506;-0.1171;
1043.1000;0.1490;-0.1219;
1043.4000;0.1441;-0.1338;
1043.7000;0.1498;-0.1171;
1044.0000;0.1473;-0.1219;
1044.3000;0.1498;-0.1123;
1044.6000;0.1465;-0.1171;
1044.9000;0.1498;-0.1123;
1045.2000;0.1490;-0.1028;
1045.5000;0.1490;-0.1028;
1045.8000;0.1473;-0.1028;
1046.1000;0.1441;-0.1171;
1046.4000;0.1579;-0.0812;
1046.7000;0.1514;-0.1099;
1047.0000;0.1425;-0.1314;
1047.3000;0.1481;-0.1171;
1047.6000;0.1498;-0.1075;
1047.9000;0.1571;-0.0812;
1048.2000;0.1481;-0.1123;
1048.5000;0.1490;-0.1051;
1048.8000;0.1490;-0.1075;
1049.1000;0.1490;-0.1051;
1049.4000;0.1490;-0.1075;
1049.7000;0.1465;-0.1099;
1050.0000;0.1490;-0.1075;
1050.3000;0.1384;-0.1434;
1050.6000;0.1465;-0.1290;
1050.9000;0.1481;-0.1243;
1051.2000;0.1490;-0.1195;
1051.5000;0.1473;-0.1219;
1051.8000;0.1498;-0.1075;
1052.1000;0.1538;-0.0884;
1052.4000;0.1465;-0.1123;
1052.7000;0.1473;-0.1028;
1053.0000;0.1490;-0.1075;
1053.3000;0.1506;-0.1051;
1053.6000;0.1490;-0.1075;
1053.9000;0.1465;-0.1195;
1054.2000;0.1490;-0.1051;
1054.5000;0.1498;-0.0980;
1054.8000;0.1490;-0.1075;
1055.1000;0.1457;-0.1195;
1055.4000;0.1628;-0.0765;
1055.7000;0.1481;-0.1075;
1056.0000;0.1490;-0.1075;
1056.3000;0.1481;-0.1147;
1056.6000;0.1457;-0.1219;
1056.9000;0.1506;-0.1075;
1057.2000;0.1490;-0.1123;
1057.5000;0.1465;-0.1290;
1057.8000;0.1490;-0.1243;
1058.1000;0.1457;-0.1290;
1058.4000;0.1481;-0.1195;
1058.7000;0.1506;-0.1123;
1059.0000;0.1506;-0.1147;
1059.3000;0.1481;-0.1219;
1059.6000;0.1473;-0.1123;
1059.9000;0.1498;-0.1051;
1060.2000;0.1481;-0.1099;
1060.5000;0.1433;-0.1266;
1060.8000;0.1506;-0.1004;
1061.1000;0.1481;-0.1004;
1061.4000;0.1465;-0.1099;
1061.7000;0.1547;-0.0932;
1062.0000;0.1506;-0.1099;
1062.3000;0.1465;-0.1171;
1062.6000;0.1441;-0.1195;
1062.9000;0.1498;-0.1123;
1063.2000;0.1498;-0.1099;
1063.5000;0.1449;-0.1171;
1063.8000;0.1481;-0.1123;
1064.1000;0.1506;-0.1075;
1064.4000;0.1490;-0.1099;
1064.7000;0.1490;-0.1051;
1065.0000;0.1465;-0.1075;
1065.3000;0.1400;-0.1266;
1065.6000;0.1514;-0.1051;
1065.9000;0.1498;-0.1075;
1066.2000;0.1481;-0.1123;
1066.5000;0.1465;-0.1219;
1066.8000;0.1571;-0.0812;
1067.1000;0.1498;-0.0932;
1067.4000;0.1547;-0.0908;
1067.7000;0.1473;-0.1147;
1068.0000;0.1433;-0.1266;
1068.3000;0.1498;-0.1099;
1068.6000;0.1571;-0.0956;
1068.9000;0.1481;-0.1099;
1069.2000;0.1612;-0.0812;
1069.5000;0.1514;-0.1004;
1069.8000;0.1490;-0.1051;
1070.1000;0.1514;-0.1075;
1070.4000;0.1481;-0.1266;
1070.7000;0.1490;-0.1314;
1071.0000;0.1490;-0.1290;
1071.3000;0.1473;-0.1434;
1071.6000;0.1490;-0.1386;
1071.9000;0.1416;-0.1577;
1072.2000;0.1490;-0.1410;
1072.5000;0.1481;-0.1458;
1072.8000;0.1555;-0.1338;
1073.1000;0.1457;-0.1529;
1073.4000;0.1425;-0.1505;
1073.7000;0.1490;-0.1314;
1074.0000;0.1465;-0.1338;
1074.3000;0.1457;-0.1338;
1074.6000;0.1498;-0.1290;
1074.9000;0.1498;-0.1290;
1075.2000;0.1547;-0.1147;
1075.5000;0.1473;-0.1314;
1075.8000;0.1538;-0.1171;
1076.1000;0.1579;-0.1028;
1076.4000;0.1506;-0.1243;
1076.7000;0.1490;-0.1266;
1077.0000;0.1490;-0.1243;
1077.3000;0.1481;-0.1314;
1077.6000;0.1481;-0.1290;
1077.9000;0.1506;-0.1314;
1078.2000;0.1473;-0.1386;
1078.5000;0.1498;-0.1458;
1078.8000;0.1481;-0.1410;
1079.1000;0.1481;-0.1410;
1079.4000;0.1514;-0.1266;
1079.7000;0.1490;-0.1290;
1080.0000;0.1498;-0.1243;
1080.3000;0.1392;-0.1553;
1080.6000;0.1490;-0.1266;
1080.9000;0.1465;-0.1314;
1081.2000;0.1465;-0.1290;
1081.5000;0.1490;-0.1195;
1081.8000;0.1498;-0.1195;
1082.1000;0.1506;-0.1219;
1082.4000;0.1473;-0.1266;
1082.7000;0.1441;-0.1338;
1083.0000;0.1481;-0.1314;
1083.3000;0.1376;-0.1625;
1083.6000;0.1465;-0.1386;
1083.9000;0.1473;-0.1362;
1084.2000;0.1457;-0.1362;
1084.5000;0.1400;-0.1553;
1084.8000;0.1506;-0.1338;
1085.1000;0.1481;-0.1410;
1085.4000;0.1481;-0.1338;
1085.7000;0.1473;-0.1362;
1086.0000;0.1457;-0.1434;
1086.3000;0.1514;-0.1195;
1086.6000;0.1506;-0.1219;
1086.9000;0.1490;-0.1266;
1087.2000;0.1473;-0.1266;
1087.5000;0.1481;-0.1243;
1087.8000;0.1498;-0.1243;
1088.1000;0.1498;-0.1219;
1088.4000;0.1506;-0.1290;
1088.7000;0.1481;-0.1314;
1089.0000;0.1465;-0.1290;
1089.3000;0.1481;-0.1314;
1089.6000;0.1514;-0.1147;
1089.9000;0.1425;-0.1314;
1090.2000;0.1530;-0.1123;
1090.5000;0.1490;-0.1219;
1090.8000;0.1465;-0.1243;
1091.1000;0.1490;-0.1171;
1091.4000;0.1506;-0.1195;
1091.7000;0.1498;-0.1123;
1092.0000;0.1579;-0.0908;
1092.3000;0.1498;-0.1147;
1092.6000;0.1481;-0.1195;
1092.9000;0.1465;-0.1219;
1093.2000;0.1481;-0.1099;
1093.5000;0.1425;-0.1290;
1093.8000;0.1481;-0.1099;
1094.1000;0.1490;-0.1147;
1094.4000;0.1514;-0.1099;
1094.7000;0.1481;-0.1290;
1095.0000;0.1465;-0.1386;
1095.3000;0.1490;-0.1243;
1095.6000;0.1514;-0.1195;
1095.9000;0.1506;-0.1219;
1096.2000;0.1481;-0.1314;
1096.5000;0.1490;-0.1266;
1096.8000;0.1530;-0.1195;
1097.1000;0.1522;-0.1314;
1097.4000;0.1481;-0.1434;
1097.7000;0.1481;-0.1338;
1098.0000;0.1457;-0.1386;
1098.3000;0.1490;-0.1266;
1098.6000;0.1473;-0.1266;
1098.9000;0.1481;-0.1290;
1099.2000;0.1612;-0.0956;
1099.5000;0.1481;-0.1338;
1099.8000;0.1490;-0.1266;
1100.1000;0.1490;-0.1219;
1100.4000;0.1490;-0.1219;
1100.7000;0.1481;-0.1314;
1101.0000;0.1473;-0.1314;
1101.3000;0.1481;-0.1266;
1101.6000;0.1473;-0.1243;
1101.9000;0.1481;-0.1266;
1102.2000;0.1522;-0.1099;
1102.5000;0.1473;-0.1219;
1102.8000;0.1522;-0.1075;
1103.1000;0.1490;-0.1195;
1103.4000;0.1481;-0.1290;
1103.7000;0.1481;-0.1338;
1104.0000;0.1473;-0.1362;
1104.3000;0.1490;-0.1266;
1104.6000;0.1473;-0.1314;
1104.9000;0.1465;-0.1314;
1105.2000;0.1481;-0.1243;
1105.5000;0.1481;-0.1195;
1105.8000;0.1473;-0.1266;
1106.1000;0.1498;-0.1243;
1106.4000;0.1538;-0.1099;
1106.7000;0.1481;-0.1243;
1107.0000;0.1465;-0.1243;
1107.3000;0.1392;-0.1458;
1107.6000;0.1416;-0.1338;
1107.9000;0.1449;-0.1338;
1108.2000;0.1481;-0.1338;
1108.5000;0.1498;-0.1338;
1108.8000;0.1498;-0.1338;
1109.1000;0.1465;-0.1410;
1109.4000;0.1392;-0.1553;
1109.7000;0.1530;-0.1195;
1110.0000;0.1473;-0.1290;
1110.3000;0.1465;-0.1314;
1110.6000;0.1473;-0.1314;
1110.9000;0.1473;-0.1290;
1111.2000;0.1465;-0.1266;
1111.5000;0.1498;-0.1219;
1111.8000;0.1441;-0.1482;
1112.1000;0.1481;-0.1314;
1112.4000;0.1481;-0.1243;
1112.7000;0.1481;-0.1290;
1113.0000;0.1465;-0.1290;
1113.3000;0.1498;-0.1219;
1113.6000;0.1490;-0.1266;
1113.9000;0.1490;-0.1123;
1114.2000;0.1498;-0.1099;
1114.5000;0.1490;-0.1219;
1114.8000;0.1449;-0.1219;
1115.1000;0.1490;-0.1147;
1115.4000;0.1563;-0.0884;
1115.7000;0.1498;-0.1075;
1116.0000;0.1457;-0.1171;
1116.3000;0.1481;-0.1243;
1116.6000;0.1473;-0.1243;
1116.9000;0.1481;-0.1290;
1117.2000;0.1481;-0.1338;
1117.5000;0.1514;-0.1386;
1117.8000;0.1498;-0.1386;
1118.1000;0.1490;-0.1362;
1118.4000;0.1506;-0.1219;
1118.7000;0.1481;-0.1266;
1119.0000;0.1514;-0.1243;
1119.3000;0.1522;-0.1266;
1119.6000;0.1498;-0.1219;
1119.9000;0.1498;-0.1266;
1120.2000;0.1433;-0.1434;
1120.5000;0.1465;-0.1362;
1120.8000;0.1457;-0.1362;
1121.1000;0.1473;-0.1266;
1121.4000;0.1490;-0.1243;
1121.7000;0.1481;-0.1290;
1122.0000;0.1473;-0.1338;
1122.3000;0.1465;-0.1362;
1122.6000;0.1473;-0.1314;
1122.9000;0.1538;-0.1099;
1123.2000;0.1473;-0.1290;
1123.5000;0.1481;-0.1314;
1123.8000;0.1490;-0.1219;
1124.1000;0.1490;-0.1266;
1124.4000;0.1457;-0.1266;
1124.7000;0.1465;-0.1290;
1125.0000;0.1481;-0.1314;
1125.3000;0.1490;-0.1314;
1125.6000;0.1490;-0.1314;
1125.9000;0.1465;-0.1434;
1126.2000;0.1490;-0.1410;
1126.5000;0.1498;-0.1338;
1126.8000;0.1465;-0.1362;
1127.1000;0.1481;-0.1314;
1127.4000;0.1490;-0.1195;
1127.7000;0.1490;-0.1219;
1128.0000;0.1473;-0.1243;
1128.3000;0.1473;-0.1195;
1128.6000;0.1473;-0.1219;
1128.9000;0.1465;-0.1290;
1129.2000;0.1481;-0.1171;
1129.5000;0.1473;-0.1147;
1129.8000;0.1473;-0.1099;
1130.1000;0.1506;-0.1075;
1130.4000;0.1498;-0.1099;
1130.7000;0.1481;-0.1243;
1131.0000;0.1400;-0.1458;
1131.3000;0.1473;-0.1314;
1131.6000;0.1473;-0.1362;
1131.9000;0.1473;-0.1338;
1132.2000;0.1465;-0.1362;
1132.5000;0.1530;-0.1290;
1132.8000;0.1490;-0.1410;
1133.1000;0.1490;-0.1362;
1133.4000;0.1481;-0.1243;
1133.7000;0.1441;-0.1266;
1134.0000;0.1490;-0.1195;
1134.3000;0.1490;-0.1123;
1134.6000;0.1522;-0.1075;
1134.9000;0.1473;-0.1219;
1135.2000;0.1506;-0.1195;
1135.5000;0.1441;-0.1386;
1135.8000;0.1506;-0.1338;
1136.1000;0.1490;-0.1386;
1136.4000;0.1506;-0.1314;
1136.7000;0.1506;-0.1338;
1137.0000;0.1490;-0.1338;
1137.3000;0.1490;-0.1266;
1137.6000;0.1481;-0.1290;
1137.9000;0.1441;-0.1338;
1138.2000;0.1490;-0.1171;
1138.5000;0.1473;-0.1171;
1138.8000;0.1465;-0.1219;
1139.1000;0.1384;-0.1505;
1139.4000;0.1449;-0.1290;
1139.7000;0.1473;-0.1266;
1140.0000;0.1498;-0.1219;
1140.3000;0.1490;-0.1243;
1140.6000;0.1481;-0.1362;
1140.9000;0.1490;-0.1290;
1141.2000;0.1368;-0.1577;
1141.5000;0.1506;-0.1171;
1141.8000;0.1473;-0.1362;
1142.1000;0.1481;-0.1243;
1142.4000;0.1522;-0.1266;
1142.7000;0.1490;-0.1338;
1143.0000;0.1490;-0.1362;
1143.3000;0.1465;-0.1386;
1143.6000;0.1481;-0.1362;
1143.9000;0.1481;-0.1314;
1144.2000;0.1481;-0.1266;
1144.5000;0.1506;-0.1266;
1144.8000;0.1506;-0.1147;
1145.1000;0.1498;-0.1051;
1145.4000;0.1490;-0.0932;
1145.7000;0.1498;-0.0980;
1146.0000;0.1490;-0.1028;
1146.3000;0.1506;-0.0980;
1146.6000;0.1498;-0.1004;
1146.9000;0.1473;-0.1075;
1147.2000;0.1506;-0.1028;
1147.5000;0.1481;-0.1147;
1147.8000;0.1547;-0.0956;
1148.1000;0.1481;-0.1075;
1148.4000;0.1490;-0.0980;
1148.7000;0.1481;-0.1075;
1149.0000;0.1481;-0.1051;
1149.3000;0.1481;-0.1123;
1149.6000;0.1481;-0.1123;
1149.9000;0.1473;-0.1123;
1150.2000;0.1498;-0.1195;
1150.5000;0.1481;-0.1171;
1150.8000;0.1481;-0.1099;
1151.1000;0.1473;-0.1075;
1151.4000;0.1514;-0.1004;
1151.7000;0.1514;-0.1099;
1152.0000;0.1481;-0.1171;
1152.3000;0.1514;-0.1099;
1152.6000;0.1441;-0.1243;
1152.9000;0.1490;-0.1171;
1153.2000;0.1490;-0.1266;
1153.5000;0.1481;-0.1243;
1153.8000;0.1473;-0.1219;
1154.1000;0.1498;-0.1147;
1154.4000;0.1490;-0.1195;
1154.7000;0.1571;-0.1004;
1155.0000;0.1433;-0.1266;
1155.3000;0.1490;-0.1051;
1155.6000;0.1490;-0.1123;
1155.9000;0.1481;-0.1075;
1156.2000;0.1465;-0.1219;
1156.5000;0.1473;-0.1171;
1156.8000;0.1481;-0.1195;
1157.1000;0.1490;-0.1099;
1157.4000;0.1473;-0.1195;
1157.7000;0.1433;-0.1290;
1158.0000;0.1473;-0.1123;
1158.3000;0.1498;-0.1028;
1158.6000;0.1481;-0.1051;
1158.9000;0.1490;-0.1004;
1159.2000;0.1473;-0.1123;
1159.5000;0.1481;-0.1123;
1159.8000;0.1498;-0.1004;
1160.1000;0.1473;-0.1075;
1160.4000;0.1416;-0.1195;
1160.7000;0.1465;-0.1123;
1161.0000;0.1481;-0.1099;
1161.3000;0.1498;-0.1051;
1161.6000;0.1547;-0.0908;
1161.9000;0.1490;-0.0908;
1162.2000;0.1473;-0.1028;
1162.5000;0.1498;-0.0884;
1162.8000;0.1481;-0.0932;
1163.1000;0.1530;-0.0908;
1163.4000;0.1441;-0.1123;
1163.7000;0.1465;-0.1004;
1164.0000;0.1465;-0.0980;
1164.3000;0.1481;-0.0932;
1164.6000;0.1465;-0.1004;
1164.9000;0.1473;-0.1004;
1165.2000;0.1473;-0.1051;
1165.5000;0.1473;-0.1075;
1165.8000;0.1522;-0.0908;
1166.1000;0.1547;-0.0908;
1166.4000;0.1473;-0.1004;
1166.7000;0.1490;-0.0932;
1167.0000;0.1498;-0.0908;
1167.3000;0.1481;-0.1051;
1167.6000;0.1490;-0.1051;
1167.9000;0.1538;-0.0908;
1168.2000;0.1457;-0.1147;
1168.5000;0.1465;-0.1099;
1168.8000;0.1498;-0.1075;
1169.1000;0.1473;-0.1123;
1169.4000;0.1490;-0.1099;
1169.7000;0.1473;-0.1123;
1170.0000;0.1473;-0.1171;
1170.3000;0.1490;-0.1099;
1170.6000;0.1481;-0.1123;
1170.9000;0.1457;-0.1266;
1171.2000;0.1498;-0.1147;
1171.5000;0.1490;-0.1290;
1171.8000;0.1514;-0.1243;
1172.1000;0.1473;-0.1266;
1172.4000;0.1490;-0.1195;
1172.7000;0.1506;-0.1147;
1173.0000;0.1506;-0.1195;
1173.3000;0.1498;-0.1219;
1173.6000;0.1473;-0.1266;
1173.9000;0.1481;-0.1195;
1174.2000;0.1498;-0.1290;
1174.5000;0.1481;-0.1314;
1174.8000;0.1457;-0.1386;
1175.1000;0.1465;-0.1338;
1175.4000;0.1441;-0.1362;
1175.7000;0.1490;-0.1290;
1176.0000;0.1449;-0.1505;
1176.3000;0.1465;-0.1505;
1176.6000;0.1473;-0.1458;
1176.9000;0.1481;-0.1338;
1177.2000;0.1506;-0.1266;
1177.5000;0.1481;-0.1290;
1177.8000;0.1481;-0.1195;
1178.1000;0.1376;-0.1458;
1178.4000;0.1449;-0.1171;
1178.7000;0.1481;-0.1123;
1179.0000;0.1433;-0.1219;
1179.3000;0.1465;-0.1028;
1179.6000;0.1473;-0.0908;
1179.9000;0.1465;-0.0932;
1180.2000;0.1465;-0.0980;
1180.5000;0.1538;-0.0884;
1180.8000;0.1498;-0.1028;
1181.1000;0.1473;-0.1123;
1181.4000;0.1481;-0.1123;
1181.7000;0.1465;-0.1147;
1182.0000;0.1490;-0.1099;
1182.3000;0.1506;-0.1028;
1182.6000;0.1473;-0.1099;
1182.9000;0.1457;-0.1123;
1183.2000;0.1490;-0.1099;
1183.5000;0.1490;-0.1075;
1183.8000;0.1498;-0.1051;
1184.1000;0.1490;-0.1028;
1184.4000;0.1465;-0.1051;
1184.7000;0.1604;-0.0812;
1185.0000;0.1481;-0.1290;
1185.3000;0.1522;-0.1219;
1185.6000;0.1481;-0.1338;
1185.9000;0.1490;-0.1195;
1186.2000;0.1473;-0.1290;
1186.5000;0.1473;-0.1314;
1186.8000;0.1473;-0.1266;
1187.1000;0.1498;-0.1219;
1187.4000;0.1473;-0.1243;
1187.7000;0.1498;-0.1171;
1188.0000;0.1506;-0.1171;
1188.3000;0.1481;-0.1195;
1188.6000;0.1441;-0.1386;
1188.9000;0.1506;-0.1219;
1189.2000;0.1490;-0.1338;
1189.5000;0.1498;-0.1243;
1189.8000;0.1449;-0.1338;
1190.1000;0.1498;-0.1219;
1190.4000;0.1490;-0.1195;
1190.7000;0.1481;-0.1195;
1191.0000;0.1563;-0.0908;
1191.3000;0.1490;-0.0956;
1191.6000;0.1506;-0.0860;
1191.9000;0.1473;-0.0980;
1192.2000;0.1465;-0.1028;
1192.5000;0.1473;-0.0956;
1192.8000;0.1547;-0.0741;
1193.1000;0.1481;-0.0980;
1193.4000;0.1465;-0.1075;
1193.7000;0.1555;-0.0908;
1194.0000;0.1490;-0.1099;
1194.3000;0.1490;-0.1123;
1194.6000;0.1481;-0.1266;
1194.9000;0.1506;-0.1314;
1195.2000;0.1490;-0.1314;
1195.5000;0.1481;-0.1338;
1195.8000;0.1571;-0.1147;
1196.1000;0.1457;-0.1386;
1196.4000;0.1473;-0.1338;
1196.7000;0.1465;-0.1362;
1197.0000;0.1392;-0.1505;
1197.3000;0.1425;-0.1338;
1197.6000;0.1473;-0.1171;
1197.9000;0.1465;-0.1243;
1198.2000;0.1481;-0.1266;
1198.5000;0.1498;-0.1219;
1198.8000;0.1604;-0.0980;
1199.1000;0.1514;-0.1290;
1199.4000;0.1490;-0.1290;
1199.7000;0.1514;-0.1290;
1200.0000;0.1514;-0.1266;
1200.3000;0.1449;-0.1458;
1200.6000;0.1498;-0.1386;
1200.9000;0.1481;-0.1314;
1201.2000;0.1441;-0.1362;
1201.5000;0.1481;-0.1338;
1201.8000;0.1465;-0.1410;
1202.1000;0.1490;-0.1266;
1202.4000;0.1498;-0.1195;
1202.7000;0.1441;-0.1290;
1203.0000;0.1490;-0.1243;
1203.3000;0.1433;-0.1314;
1203.6000;0.1498;-0.1147;
1203.9000;0.1465;-0.1195;
1204.2000;0.1368;-0.1529;
1204.5000;0.1498;-0.1195;
1204.8000;0.1490;-0.1195;
1205.1000;0.1473;-0.1243;
1205.4000;0.1425;-0.1290;
1205.7000;0.1490;-0.1195;
1206.0000;0.1490;-0.1219;
1206.3000;0.1498;-0.1219;
1206.6000;0.1481;-0.1147;
1206.9000;0.1514;-0.1051;
1207.2000;0.1498;-0.1219;
1207.5000;0.1490;-0.1266;
1207.8000;0.1457;-0.1410;
1208.1000;0.1490;-0.1338;
1208.4000;0.1473;-0.1410;
1208.7000;0.1555;-0.1147;
1209.0000;0.1465;-0.1314;
1209.3000;0.1490;-0.1290;
1209.6000;0.1473;-0.1290;
1209.9000;0.1465;-0.1386;
1210.2000;0.1490;-0.1290;
1210.5000;0.1498;-0.1195;
1210.8000;0.1481;-0.1243;
1211.1000;0.1490;-0.1171;
1211.4000;0.1481;-0.1171;
1211.7000;0.1449;-0.1243;
1212.0000;0.1473;-0.1099;
1212.3000;0.1473;-0.1051;
1212.6000;0.1473;-0.1099;
1212.9000;0.1481;-0.1028;
1213.2000;0.1473;-0.1051;
1213.5000;0.1481;-0.1028;
1213.8000;0.1408;-0.1243;
1214.1000;0.1465;-0.1028;
1214.4000;0.1506;-0.0932;
1214.7000;0.1465;-0.0980;
1215.0000;0.1465;-0.0980;
1215.3000;0.1481;-0.0884;
1215.6000;0.1490;-0.0932;
1215.9000;0.1465;-0.0956;
1216.2000;0.1514;-0.0884;
1216.5000;0.1506;-0.0860;
1216.8000;0.1481;-0.0956;
1217.1000;0.1490;-0.1051;
1217.4000;0.1481;-0.1147;
1217.7000;0.1465;-0.1195;
1218.0000;0.1473;-0.1123;
1218.3000;0.1425;-0.1243;
1218.6000;0.1473;-0.1004;
1218.9000;0.1481;-0.1028;
1219.2000;0.1473;-0.1075;
1219.5000;0.1433;-0.1219;
1219.8000;0.1481;-0.1147;
1220.1000;0.1490;-0.1123;
1220.4000;0.1490;-0.1195;
1220.7000;0.1644;-0.0789;
1221.0000;0.1481;-0.1314;
1221.3000;0.1522;-0.1171;
1221.6000;0.1368;-0.1577;
1221.9000;0.1498;-0.1243;
1222.2000;0.1514;-0.1171;
1222.5000;0.1481;-0.1195;
1222.8000;0.1465;-0.1123;
1223.1000;0.1506;-0.1004;
1223.4000;0.1473;-0.1123;
1223.7000;0.1595;-0.0884;
1224.0000;0.1490;-0.1147;
1224.3000;0.1473;-0.1219;
1224.6000;0.1490;-0.1243;
1224.9000;0.1441;-0.1386;
1225.2000;0.1490;-0.1171;
1225.5000;0.1490;-0.1075;
1225.8000;0.1555;-0.0908;
1226.1000;0.1514;-0.1004;
1226.4000;0.1473;-0.1123;
1226.7000;0.1473;-0.1171;
1227.0000;0.1498;-0.1243;
1227.3000;0.1433;-0.1362;
1227.6000;0.1481;-0.1195;
1227.9000;0.1490;-0.1147;
1228.2000;0.1481;-0.1147;
1228.5000;0.1498;-0.1171;
1228.8000;0.1522;-0.1171;
1229.1000;0.1481;-0.1219;
1229.4000;0.1473;-0.1195;
1229.7000;0.1490;-0.1147;
1230.0000;0.1490;-0.1219;
1230.3000;0.1498;-0.1243;
1230.6000;0.1481;-0.1386;
1230.9000;0.1457;-0.1458;
1231.2000;0.1465;-0.1362;
1231.5000;0.1473;-0.1314;
1231.8000;0.1465;-0.1266;
1232.1000;0.1506;-0.1219;
1232.4000;0.1498;-0.1290;
1232.7000;0.1498;-0.1266;
1233.0000;0.1490;-0.1219;
1233.3000;0.1490;-0.1195;
1233.6000;0.1506;-0.1123;
1233.9000;0.1481;-0.1219;
1234.2000;0.1490;-0.1195;
1234.5000;0.1490;-0.1171;
1234.8000;0.1490;-0.1243;
1235.1000;0.1506;-0.1195;
1235.4000;0.1473;-0.1243;
1235.7000;0.1498;-0.1266;
1236.0000;0.1506;-0.1243;
1236.3000;0.1433;-0.1482;
1236.6000;0.1498;-0.1219;
1236.9000;0.1490;-0.1219;
1237.2000;0.1498;-0.1219;
1237.5000;0.1547;-0.1051;
1237.8000;0.1481;-0.1266;
1238.1000;0.1506;-0.1290;
1238.4000;0.1416;-0.1482;
1238.7000;0.1490;-0.1314;
1239.0000;0.1490;-0.1314;
1239.3000;0.1490;-0.1290;
1239.6000;0.1490;-0.1290;
1239.9000;0.1481;-0.1314;
1240.2000;0.1547;-0.1099;
1240.5000;0.1465;-0.1314;
1240.8000;0.1498;-0.1290;
1241.1000;0.1506;-0.1147;
1241.4000;0.1490;-0.1123;
1241.7000;0.1457;-0.1171;
1242.0000;0.1473;-0.1099;
1242.3000;0.1457;-0.1195;
1242.6000;0.1481;-0.1123;
1242.9000;0.1490;-0.1147;
1243.2000;0.1449;-0.1219;
1243.5000;0.1473;-0.1219;
1243.8000;0.1449;-0.1266;
1244.1000;0.1498;-0.1195;
1244.4000;0.1481;-0.1195;
1244.7000;0.1563;-0.0980;
1245.0000;0.1465;-0.1219;
1245.3000;0.1563;-0.0932;
1245.6000;0.1416;-0.1338;
1245.9000;0.1457;-0.1171;
1246.2000;0.1473;-0.1123;
1246.5000;0.1473;-0.1099;
1246.8000;0.1490;-0.1171;
1247.1000;0.1506;-0.1219;
1247.4000;0.1465;-0.1290;
1247.7000;0.1481;-0.1243;
1248.0000;0.1498;-0.1243;
1248.3000;0.1481;-0.1219;
1248.6000;0.1490;-0.1219;
1248.9000;0.1498;-0.1147;
1249.2000;0.1490;-0.1123;
1249.5000;0.1473;-0.1219;
1249.8000;0.1604;-0.0884;
1250.1000;0.1506;-0.1195;
1250.4000;0.1490;-0.1266;
1250.7000;0.1457;-0.1410;
1251.0000;0.1351;-0.1721;
1251.3000;0.1457;-0.1434;
1251.6000;0.1473;-0.1434;
1251.9000;0.1481;-0.1386;
1252.2000;0.1473;-0.1505;
1252.5000;0.1481;-0.1338;
1252.8000;0.1481;-0.1266;
1253.1000;0.1481;-0.1243;
1253.4000;0.1457;-0.1386;
1253.7000;0.1457;-0.1362;
1254.0000;0.1457;-0.1314;
1254.3000;0.1498;-0.1290;
1254.6000;0.1473;-0.1338;
1254.9000;0.1433;-0.1482;
1255.2000;0.1465;-0.1410;
1255.5000;0.1538;-0.1195;
1255.8000;0.1514;-0.1290;
1256.1000;0.1408;-0.1625;
1256.4000;0.1506;-0.1362;
1256.7000;0.1457;-0.1458;
1257.0000;0.1498;-0.1243;
1257.3000;0.1481;-0.1290;
1257.6000;0.1490;-0.1266;
1257.9000;0.1449;-0.1458;
1258.2000;0.1490;-0.1338;
1258.5000;0.1514;-0.1266;
1258.8000;0.1538;-0.1171;
1259.1000;0.1498;-0.1314;
1259.4000;0.1506;-0.1362;
1259.7000;0.1498;-0.1434;
1260.0000;0.1498;-0.1386;
1260.3000;0.1538;-0.1243;
1260.6000;0.1473;-0.1314;
1260.9000;0.1490;-0.1243;
1261.2000;0.1571;-0.0956;
1261.5000;0.1522;-0.0980;
1261.8000;0.1538;-0.1028;
1262.1000;0.1538;-0.0908;
1262.4000;0.1473;-0.1123;
1262.7000;0.1465;-0.1219;
1263.0000;0.1481;-0.1123;
1263.3000;0.1465;-0.1123;
1263.6000;0.1481;-0.1051;
1263.9000;0.1473;-0.1028;
1264.2000;0.1490;-0.0980;
1264.5000;0.1465;-0.0956;
1264.8000;0.1465;-0.1051;
1265.1000;0.1506;-0.0932;
1265.4000;0.1473;-0.0980;
1265.7000;0.1465;-0.0956;
1266.0000;0.1498;-0.0836;
1266.3000;0.1473;-0.0884;
1266.6000;0.1481;-0.0884;
1266.9000;0.1498;-0.0908;
1267.2000;0.1481;-0.0932;
1267.5000;0.1498;-0.0884;
1267.8000;0.1465;-0.1051;
1268.1000;0.1473;-0.1004;
1268.4000;0.1498;-0.0956;
1268.7000;0.1481;-0.1004;
1269.0000;0.1490;-0.0980;
1269.3000;0.1522;-0.0908;
1269.6000;0.1506;-0.0908;
1269.9000;0.1498;-0.0956;
1270.2000;0.1457;-0.1099;
1270.5000;0.1400;-0.1266;
1270.8000;0.1481;-0.1123;
1271.1000;0.1473;-0.1195;
1271.4000;0.1473;-0.1219;
1271.7000;0.1465;-0.1147;
1272.0000;0.1490;-0.1171;
1272.3000;0.1490;-0.1243;
1272.6000;0.1498;-0.1147;
1272.9000;0.1481;-0.1075;
1273.2000;0.1481;-0.1147;
1273.5000;0.1522;-0.1051;
1273.8000;0.1498;-0.0956;
1274.1000;0.1498;-0.0980;
1274.4000;0.1351;-0.1386;
1274.7000;0.1490;-0.1028;
1275.0000;0.1514;-0.0956;
1275.3000;0.1449;-0.1028;
1275.6000;0.1481;-0.0932;
1275.9000;0.1465;-0.1028;
1276.2000;0.1465;-0.1028;
1276.5000;0.1465;-0.1099;
1276.8000;0.1465;-0.1051;
1277.1000;0.1587;-0.0741;
1277.4000;0.1506;-0.1004;
1277.7000;0.1498;-0.1099;
1278.0000;0.1473;-0.1171;
1278.3000;0.1457;-0.1195;
1278.6000;0.1481;-0.1195;
1278.9000;0.1481;-0.1243;
1279.2000;0.1473;-0.1219;
1279.5000;0.1514;-0.1075;
1279.8000;0.1538;-0.1051;
1280.1000;0.1522;-0.1075;
1280.4000;0.1506;-0.1051;
1280.7000;0.1481;-0.1171;
1281.0000;0.1473;-0.1123;
1281.3000;0.1498;-0.1051;
1281.6000;0.1473;-0.1171;
1281.9000;0.1498;-0.1099;
1282.2000;0.1514;-0.1075;
1282.5000;0.1498;-0.1123;
1282.8000;0.1376;-0.1314;
1283.1000;0.1449;-0.1171;
1283.4000;0.1457;-0.1075;
1283.7000;0.1481;-0.1075;
1284.0000;0.1481;-0.1051;
1284.3000;0.1449;-0.1123;
1284.6000;0.1490;-0.1171;
1284.9000;0.1490;-0.1123;
1285.2000;0.1490;-0.1123;
1285.5000;0.1473;-0.1123;
1285.8000;0.1490;-0.1099;
1286.1000;0.1441;-0.1290;
1286.4000;0.1490;-0.1219;
1286.7000;0.1490;-0.1243;
1287.0000;0.1498;-0.1314;
1287.3000;0.1400;-0.1601;
1287.6000;0.1628;-0.0980;
1287.9000;0.1506;-0.1243;
1288.2000;0.1490;-0.1290;
1288.5000;0.1481;-0.1290;
1288.8000;0.1490;-0.1266;
1289.1000;0.1498;-0.1266;
1289.4000;0.1473;-0.1243;
1289.7000;0.1481;-0.1243;
1290.0000;0.1490;-0.1219;
1290.3000;0.1506;-0.1147;
1290.6000;0.1481;-0.1195;
1290.9000;0.1473;-0.1243;
1291.2000;0.1490;-0.1290;
1291.5000;0.1465;-0.1386;
1291.8000;0.1514;-0.1266;
1292.1000;0.1457;-0.1338;
1292.4000;0.1473;-0.1338;
1292.7000;0.1498;-0.1219;
1293.0000;0.1530;-0.1147;
1293.3000;0.1441;-0.1410;
1293.6000;0.1490;-0.1362;
1293.9000;0.1457;-0.1410;
1294.2000;0.1433;-0.1505;
1294.5000;0.1465;-0.1314;
1294.8000;0.1481;-0.1243;
1295.1000;0.1392;-0.1458;
1295.4000;0.1587;-0.1004;
1295.7000;0.1522;-0.1171;
1296.0000;0.1555;-0.1099;
1296.3000;0.1457;-0.1338;
1296.6000;0.1490;-0.1219;
1296.9000;0.1473;-0.1195;
1297.2000;0.1498;-0.1171;
1297.5000;0.1465;-0.1147;
1297.8000;0.1498;-0.1219;
1298.1000;0.1465;-0.1243;
1298.4000;0.1473;-0.1171;
1298.7000;0.1547;-0.0980;
1299.0000;0.1498;-0.1195;
1299.3000;0.1490;-0.1243;
1299.6000;0.1571;-0.1028;
1299.9000;0.1506;-0.1147;
1300.2000;0.1490;-0.1219;
1300.5000;0.1498;-0.1195;
1300.8000;0.1498;-0.1171;
1301.1000;0.1473;-0.1266;
1301.4000;0.1490;-0.1195;
1301.7000;0.1473;-0.1243;
1302.0000;0.1481;-0.1099;
1302.3000;0.1481;-0.1123;
1302.6000;0.1579;-0.0908;
1302.9000;0.1481;-0.1171;
1303.2000;0.1473;-0.1099;
1303.5000;0.1571;-0.0812;
1303.8000;0.1506;-0.1028;
1304.1000;0.1498;-0.1075;
1304.4000;0.1506;-0.1099;
1304.7000;0.1498;-0.1171;
1305.0000;0.1498;-0.1171;
1305.3000;0.1465;-0.1195;
1305.6000;0.1473;-0.1147;
1305.9000;0.1571;-0.0836;
1306.2000;0.1490;-0.1195;
1306.5000;0.1473;-0.1243;
1306.8000;0.1514;-0.1123;
1307.1000;0.1473;-0.1219;
1307.4000;0.1490;-0.1243;
1307.7000;0.1473;-0.1219;
1308.0000;0.1555;-0.1075;
1308.3000;0.1457;-0.1266;
1308.6000;0.1351;-0.1529;
1308.9000;0.1473;-0.1243;
1309.2000;0.1465;-0.1266;
1309.5000;0.1490;-0.1219;
1309.8000;0.1441;-0.1434;
1310.1000;0.1490;-0.1266;
1310.4000;0.1343;-0.1625;
1310.7000;0.1473;-0.1314;
1311.0000;0.1473;-0.1266;
1311.3000;0.1506;-0.1219;
1311.6000;0.1473;-0.1290;
1311.9000;0.1571;-0.1075;
1312.2000;0.1587;-0.0932;
1312.5000;0.1473;-0.1243;
1312.8000;0.1465;-0.1338;
1313.1000;0.1490;-0.1195;
1313.4000;0.1490;-0.1219;
1313.7000;0.1498;-0.1219;
1314.0000;0.1473;-0.1266;
1314.3000;0.1433;-0.1410;
1314.6000;0.1506;-0.1195;
1314.9000;0.1490;-0.1266;
1315.2000;0.1498;-0.1243;
1315.5000;0.1490;-0.1243;
1315.8000;0.1473;-0.1266;
1316.1000;0.1506;-0.1075;
1316.4000;0.1481;-0.1243;
1316.7000;0.1490;-0.1338;
1317.0000;0.1473;-0.1410;
1317.3000;0.1530;-0.1410;
1317.6000;0.1514;-0.1482;
1317.9000;0.1506;-0.1386;
1318.2000;0.1465;-0.1458;
1318.5000;0.1465;-0.1458;
1318.8000;0.1481;-0.1434;
1319.1000;0.1490;-0.1410;
1319.4000;0.1473;-0.1553;
1319.7000;0.1481;-0.1553;
1320.0000;0.1490;-0.1625;
1320.3000;0.1441;-0.1649;
1320.6000;0.1506;-0.1625;
1320.9000;0.1490;-0.1673;
1321.2000;0.1555;-0.1482;
1321.5000;0.1595;-0.1338;
1321.8000;0.1473;-0.1577;
1322.1000;0.1473;-0.1625;
1322.4000;0.1465;-0.1625;
1322.7000;0.1490;-0.1482;
1323.0000;0.1481;-0.1434;
1323.3000;0.1457;-0.1505;
1323.6000;0.1473;-0.1434;
1323.9000;0.1490;-0.1386;
1324.2000;0.1498;-0.1338;
1324.5000;0.1498;-0.1410;
1324.8000;0.1425;-0.1601;
1325.1000;0.1473;-0.1482;
1325.4000;0.1481;-0.1314;
1325.7000;0.1490;-0.1314;
1326.0000;0.1473;-0.1434;
1326.3000;0.1490;-0.1505;
1326.6000;0.1498;-0.1529;
1326.9000;0.1490;-0.1601;
1327.2000;0.1481;-0.1553;
1327.5000;0.1514;-0.1434;
1327.8000;0.1473;-0.1577;
1328.1000;0.1490;-0.1601;
1328.4000;0.1481;-0.1577;
1328.7000;0.1465;-0.1625;
1329.0000;0.1473;-0.1553;
1329.3000;0.1538;-0.1410;
1329.6000;0.1563;-0.1266;
1329.9000;0.1514;-0.1386;
1330.2000;0.1481;-0.1577;
1330.5000;0.1498;-0.1553;
1330.8000;0.1449;-0.1577;
1331.1000;0.1416;-0.1625;
1331.4000;0.1490;-0.1434;
1331.7000;0.1514;-0.1314;
1332.0000;0.1490;-0.1458;
1332.3000;0.1457;-0.1505;
1332.6000;0.1490;-0.1410;
1332.9000;0.1481;-0.1362;
1333.2000;0.1490;-0.1314;
1333.5000;0.1465;-0.1434;
1333.8000;0.1498;-0.1410;
1334.1000;0.1506;-0.1362;
1334.4000;0.1498;-0.1314;
1334.7000;0.1498;-0.1362;
1335.0000;0.1498;-0.1410;
1335.3000;0.1481;-0.1505;
1335.6000;0.1498;-0.1434;
1335.9000;0.1481;-0.1434;
1336.2000;0.1441;-0.1505;
1336.5000;0.1481;-0.1314;
1336.8000;0.1416;-0.1529;
1337.1000;0.1490;-0.1362;
1337.4000;0.1473;-0.1314;
1337.7000;0.1465;-0.1386;
1338.0000;0.1481;-0.1290;
1338.3000;0.1473;-0.1338;
1338.6000;0.1530;-0.1147;
1338.9000;0.1473;-0.1290;
1339.2000;0.1506;-0.1266;
1339.5000;0.1481;-0.1195;
1339.8000;0.1498;-0.1147;
1340.1000;0.1465;-0.1171;
1340.4000;0.1473;-0.1171;
1340.7000;0.1547;-0.1051;
1341.0000;0.1481;-0.1219;
1341.3000;0.1498;-0.1123;
1341.6000;0.1490;-0.1123;
1341.9000;0.1498;-0.1075;
1342.2000;0.1498;-0.1147;
1342.5000;0.1416;-0.1362;
1342.8000;0.1498;-0.1290;
1343.1000;0.1490;-0.1314;
1343.4000;0.1490;-0.1386;
1343.7000;0.1473;-0.1386;
1344.0000;0.1457;-0.1458;
1344.3000;0.1498;-0.1362;
1344.6000;0.1481;-0.1362;
1344.9000;0.1522;-0.1290;
1345.2000;0.1465;-0.1362;
1345.5000;0.1416;-0.1529;
1345.8000;0.1481;-0.1410;
1346.1000;0.1481;-0.1529;
1346.4000;0.1481;-0.1577;
1346.7000;0.1465;-0.1601;
1347.0000;0.1481;-0.1482;
1347.3000;0.1506;-0.1362;
1347.6000;0.1498;-0.1458;
1347.9000;0.1465;-0.1529;
1348.2000;0.1490;-0.1410;
1348.5000;0.1587;-0.1219;
1348.8000;0.1522;-0.1410;
1349.1000;0.1433;-0.1649;
1349.4000;0.1538;-0.1434;
1349.7000;0.1473;-0.1577;
1350.0000;0.1498;-0.1529;
1350.3000;0.1481;-0.1529;
1350.6000;0.1571;-0.1362;
1350.9000;0.1530;-0.1458;
1351.2000;0.1506;-0.1529;
1351.5000;0.1514;-0.1434;
1351.8000;0.1449;-0.1601;
1352.1000;0.1441;-0.1649;
1352.4000;0.1498;-0.1577;
1352.7000;0.1498;-0.1601;
1353.0000;0.1522;-0.1482;
1353.3000;0.1473;-0.1529;
1353.6000;0.1457;-0.1625;
1353.9000;0.1441;-0.1625;
1354.2000;0.1587;-0.1099;
1354.5000;0.1490;-0.1386;
1354.8000;0.1506;-0.1386;
1355.1000;0.1579;-0.1243;
1355.4000;0.1498;-0.1434;
1355.7000;0.1498;-0.1386;
1356.0000;0.1498;-0.1362;
1356.3000;0.1571;-0.1147;
1356.6000;0.1425;-0.1482;
1356.9000;0.1473;-0.1386;
1357.2000;0.1481;-0.1410;
1357.5000;0.1481;-0.1410;
1357.8000;0.1481;-0.1362;
1358.1000;0.1490;-0.1338;
1358.4000;0.1506;-0.1338;
1358.7000;0.1416;-0.1553;
1359.0000;0.1490;-0.1314;
1359.3000;0.1457;-0.1314;
1359.6000;0.1506;-0.1243;
1359.9000;0.1506;-0.1195;
1360.2000;0.1473;-0.1243;
1360.5000;0.1481;-0.1171;
1360.8000;0.1465;-0.1243;
1361.1000;0.1514;-0.1147;
1361.4000;0.1473;-0.1195;
1361.7000;0.1490;-0.1195;
1362.0000;0.1506;-0.1147;
1362.3000;0.1481;-0.1195;
1362.6000;0.1473;-0.1147;
1362.9000;0.1481;-0.1195;
1363.2000;0.1498;-0.1147;
1363.5000;0.1465;-0.1219;
1363.8000;0.1490;-0.1219;
1364.1000;0.1506;-0.1147;
1364.4000;0.1563;-0.1075;
1364.7000;0.1481;-0.1338;
1365.0000;0.1481;-0.1314;
1365.3000;0.1498;-0.1314;
1365.6000;0.1449;-0.1434;
1365.9000;0.1498;-0.1314;
1366.2000;0.1473;-0.1314;
1366.5000;0.1563;-0.1171;
1366.8000;0.1481;-0.1338;
1367.1000;0.1457;-0.1410;
1367.4000;0.1563;-0.1147;
1367.7000;0.1498;-0.1386;
1368.0000;0.1522;-0.1290;
1368.3000;0.1465;-0.1338;
1368.6000;0.1481;-0.1243;
1368.9000;0.1498;-0.1171;
1369.2000;0.1481;-0.1362;
1369.5000;0.1473;-0.1338;
1369.8000;0.1473;-0.1290;
1370.1000;0.1490;-0.1266;
1370.4000;0.1473;-0.1290;
1370.7000;0.1465;-0.1362;
1371.0000;0.1490;-0.1410;
1371.3000;0.1473;-0.1482;
1371.6000;0.1465;-0.1482;
1371.9000;0.1449;-0.1577;
1372.2000;0.1481;-0.1458;
1372.5000;0.1530;-0.1195;
1372.8000;0.1498;-0.1219;
1373.1000;0.1498;-0.1195;
1373.4000;0.1441;-0.1434;
1373.7000;0.1457;-0.1362;
1374.0000;0.1530;-0.1171;
1374.3000;0.1498;-0.1266;
1374.6000;0.1433;-0.1386;
1374.9000;0.1506;-0.1195;
1375.2000;0.1498;-0.1338;
1375.5000;0.1425;-0.1458;
1375.8000;0.1449;-0.1482;
1376.1000;0.1441;-0.1553;
1376.4000;0.1481;-0.1505;
1376.7000;0.1449;-0.1529;
1377.0000;0.1498;-0.1290;
1377.3000;0.1522;-0.1195;
1377.6000;0.1514;-0.1219;
1377.9000;0.1481;-0.1290;
1378.2000;0.1498;-0.1243;
1378.5000;0.1498;-0.1171;
1378.8000;0.1490;-0.1123;
1379.1000;0.1506;-0.1195;
1379.4000;0.1514;-0.1195;
1379.7000;0.1506;-0.1266;
1380.0000;0.1433;-0.1505;
1380.3000;0.1490;-0.1362;
1380.6000;0.1490;-0.1290;
1380.9000;0.1465;-0.1243;
1381.2000;0.1481;-0.1266;
1381.5000;0.1490;-0.1243;
1381.8000;0.1563;-0.1028;
1382.1000;0.1490;-0.1243;
1382.4000;0.1506;-0.1219;
1382.7000;0.1490;-0.1243;
1383.0000;0.1498;-0.1219;
1383.3000;0.1490;-0.1290;
1383.6000;0.1490;-0.1243;
1383.9000;0.1514;-0.1147;
1384.2000;0.1368;-0.1601;
1384.5000;0.1514;-0.1290;
1384.8000;0.1498;-0.1314;
1385.1000;0.1481;-0.1362;
1385.4000;0.1498;-0.1290;
1385.7000;0.1449;-0.1458;
1386.0000;0.1490;-0.1266;
1386.3000;0.1481;-0.1290;
1386.6000;0.1481;-0.1243;
1386.9000;0.1498;-0.1266;
1387.2000;0.1481;-0.1290;
1387.5000;0.1490;-0.1314;
1387.8000;0.1473;-0.1362;
1388.1000;0.1465;-0.1266;
1388.4000;0.1490;-0.1147;
1388.7000;0.1481;-0.1147;
1389.0000;0.1473;-0.1243;
1389.3000;0.1490;-0.1266;
1389.6000;0.1506;-0.1219;
1389.9000;0.1506;-0.1147;
1390.2000;0.1490;-0.1243;
1390.5000;0.1449;-0.1410;
1390.8000;0.1490;-0.1338;
1391.1000;0.1498;-0.1266;
1391.4000;0.1490;-0.1219;
1391.7000;0.1473;-0.1195;
1392.0000;0.1481;-0.1266;
1392.3000;0.1506;-0.1219;
1392.6000;0.1490;-0.1338;
1392.9000;0.1490;-0.1314;
1393.2000;0.1457;-0.1434;
1393.5000;0.1514;-0.1171;
1393.8000;0.1506;-0.1147;
1394.1000;0.1473;-0.1195;
1394.4000;0.1490;-0.1075;
1394.7000;0.1490;-0.1123;
1395.0000;0.1498;-0.1099;
1395.3000;0.1498;-0.1195;
1395.6000;0.1481;-0.1147;
1395.9000;0.1490;-0.1147;
1396.2000;0.1490;-0.1171;
1396.5000;0.1481;-0.1243;
1396.8000;0.1498;-0.1219;
1397.1000;0.1490;-0.1243;
1397.4000;0.1490;-0.1171;
1397.7000;0.1490;-0.1099;
1398.0000;0.1498;-0.1075;
1398.3000;0.1481;-0.1171;
1398.6000;0.1490;-0.1123;
1398.9000;0.1473;-0.1123;
1399.2000;0.1481;-0.1171;
1399.5000;0.1457;-0.1219;
1399.8000;0.1473;-0.1171;
