time/ms;Fluo/V;P700 deltaI/I x10³;
-199.8000;0.1522;-0.2437;
-199.5000;0.1514;-0.2437;
-199.2000;0.1392;-0.2844;
-198.9000;0.1522;-0.2605;
-198.6000;0.1522;-0.2485;
-198.3000;0.1530;-0.2437;
-198.0000;0.1547;-0.2294;
-197.7000;0.1514;-0.2390;
-197.4000;0.1530;-0.2413;
-197.1000;0.1530;-0.2413;
-196.8000;0.1538;-0.2366;
-196.5000;0.1538;-0.2413;
-196.2000;0.1547;-0.2413;
-195.9000;0.1538;-0.2461;
-195.6000;0.1538;-0.2509;
-195.3000;0.1530;-0.2581;
-195.0000;0.1530;-0.2557;
-194.7000;0.1433;-0.2891;
-194.4000;0.1547;-0.2366;
-194.1000;0.1547;-0.2294;
-193.8000;0.1498;-0.2437;
-193.5000;0.1522;-0.2485;
-193.2000;0.1538;-0.2509;
-192.9000;0.1498;-0.2533;
-192.6000;0.1522;-0.2485;
-192.3000;0.1506;-0.2509;
-192.0000;0.1555;-0.2390;
-191.7000;0.1547;-0.2342;
-191.4000;0.1530;-0.2342;
-191.1000;0.1538;-0.2318;
-190.8000;0.1473;-0.2437;
-190.5000;0.1530;-0.2270;
-190.2000;0.1498;-0.2437;
-189.9000;0.1530;-0.2342;
-189.6000;0.1530;-0.2342;
-189.3000;0.1522;-0.2413;
-189.0000;0.1522;-0.2413;
-188.7000;0.1530;-0.2413;
-188.4000;0.1514;-0.2437;
-188.1000;0.1530;-0.2461;
-187.8000;0.1522;-0.2509;
-187.5000;0.1547;-0.2413;
-187.2000;0.1530;-0.2461;
-186.9000;0.1595;-0.2246;
-186.6000;0.1538;-0.2461;
-186.3000;0.1522;-0.2485;
-186.0000;0.1530;-0.2437;
-185.7000;0.1481;-0.2557;
-185.4000;0.1555;-0.2366;
-185.1000;0.1547;-0.2413;
-184.8000;0.1636;-0.2198;
-184.5000;0.1490;-0.2581;
-184.2000;0.1465;-0.2629;
-183.9000;0.1538;-0.2485;
-183.6000;0.1530;-0.2533;
-183.3000;0.1530;-0.2533;
-183.0000;0.1538;-0.2437;
-182.7000;0.1530;-0.2461;
-182.4000;0.1530;-0.2437;
-182.1000;0.1498;-0.2437;
-181.8000;0.1538;-0.2413;
-181.5000;0.1538;-0.2461;
-181.2000;0.1522;-0.2509;
-180.9000;0.1530;-0.2581;
-180.6000;0.1636;-0.2198;
-180.3000;0.1522;-0.2509;
-180.0000;0.1538;-0.2437;
-179.7000;0.1538;-0.2413;
-179.4000;0.1408;-0.2676;
-179.1000;0.1547;-0.2246;
-178.8000;0.1555;-0.2246;
-178.5000;0.1538;-0.2342;
-178.2000;0.1538;-0.2246;
-177.9000;0.1514;-0.2270;
-177.6000;0.1547;-0.2198;
-177.3000;0.1530;-0.2270;
-177.0000;0.1522;-0.2294;
-176.7000;0.1522;-0.2366;
-176.4000;0.1555;-0.2294;
-176.1000;0.1530;-0.2366;
-175.8000;0.1522;-0.2509;
-175.5000;0.1538;-0.2413;
-175.2000;0.1538;-0.2413;
-174.9000;0.1587;-0.2175;
-174.6000;0.1514;-0.2270;
-174.3000;0.1514;-0.2222;
-174.0000;0.1522;-0.2318;
-173.7000;0.1514;-0.2437;
-173.4000;0.1538;-0.2390;
-173.1000;0.1522;-0.2437;
-172.8000;0.1530;-0.2437;
-172.5000;0.1490;-0.2629;
-172.2000;0.1530;-0.2461;
-171.9000;0.1514;-0.2461;
-171.6000;0.1416;-0.2748;
-171.3000;0.1522;-0.2485;
-171.0000;0.1514;-0.2509;
-170.7000;0.1538;-0.2366;
-170.4000;0.1522;-0.2318;
-170.1000;0.1538;-0.2342;
-169.8000;0.1547;-0.2366;
-169.5000;0.1530;-0.2413;
-169.2000;0.1481;-0.2461;
-168.9000;0.1636;-0.2103;
-168.6000;0.1530;-0.2390;
-168.3000;0.1538;-0.2413;
-168.0000;0.1490;-0.2605;
-167.7000;0.1555;-0.2390;
-167.4000;0.1530;-0.2485;
-167.1000;0.1522;-0.2509;
-166.8000;0.1530;-0.2485;
-166.5000;0.1506;-0.2485;
-166.2000;0.1547;-0.2342;
-165.9000;0.1530;-0.2366;
-165.6000;0.1628;-0.2007;
-165.3000;0.1530;-0.2318;
-165.0000;0.1530;-0.2342;
-164.7000;0.1538;-0.2246;
-164.4000;0.1530;-0.2366;
-164.1000;0.1652;-0.2055;
-163.8000;0.1538;-0.2390;
-163.5000;0.1652;-0.2079;
-163.2000;0.1498;-0.2485;
-162.9000;0.1522;-0.2366;
-162.6000;0.1522;-0.2366;
-162.3000;0.1530;-0.2246;
-162.0000;0.1530;-0.2270;
-161.7000;0.1506;-0.2294;
-161.4000;0.1506;-0.2390;
-161.1000;0.1514;-0.2390;
-160.8000;0.1587;-0.2222;
-160.5000;0.1522;-0.2413;
-160.2000;0.1522;-0.2533;
-159.9000;0.1563;-0.2390;
-159.6000;0.1636;-0.2222;
-159.3000;0.1530;-0.2437;
-159.0000;0.1514;-0.2509;
-158.7000;0.1522;-0.2413;
-158.4000;0.1530;-0.2437;
-158.1000;0.1547;-0.2413;
-157.8000;0.1644;-0.2127;
-157.5000;0.1514;-0.2461;
-157.2000;0.1514;-0.2437;
-156.9000;0.1530;-0.2461;
-156.6000;0.1547;-0.2390;
-156.3000;0.1522;-0.2461;
-156.0000;0.1538;-0.2390;
-155.7000;0.1465;-0.2605;
-155.4000;0.1490;-0.2509;
-155.1000;0.1473;-0.2557;
-154.8000;0.1522;-0.2318;
-154.5000;0.1538;-0.2390;
-154.2000;0.1416;-0.2724;
-153.9000;0.1579;-0.2294;
-153.6000;0.1538;-0.2413;
-153.3000;0.1522;-0.2413;
-153.0000;0.1555;-0.2246;
-152.7000;0.1538;-0.2437;
-152.4000;0.1522;-0.2437;
-152.1000;0.1530;-0.2461;
-151.8000;0.1547;-0.2509;
-151.5000;0.1457;-0.2724;
-151.2000;0.1481;-0.2629;
-150.9000;0.1538;-0.2557;
-150.6000;0.1547;-0.2390;
-150.3000;0.1530;-0.2461;
-150.0000;0.1514;-0.2413;
-149.7000;0.1506;-0.2318;
-149.4000;0.1579;-0.2151;
-149.1000;0.1530;-0.2342;
-148.8000;0.1522;-0.2437;
-148.5000;0.1555;-0.2390;
-148.2000;0.1514;-0.2533;
-147.9000;0.1441;-0.2605;
-147.6000;0.1547;-0.2318;
-147.3000;0.1530;-0.2342;
-147.0000;0.1506;-0.2461;
-146.7000;0.1465;-0.2652;
-146.4000;0.1538;-0.2413;
-146.1000;0.1563;-0.2246;
-145.8000;0.1538;-0.2437;
-145.5000;0.1506;-0.2437;
-145.2000;0.1530;-0.2366;
-144.9000;0.1514;-0.2318;
-144.6000;0.1522;-0.2342;
-144.3000;0.1408;-0.2629;
-144.0000;0.1563;-0.2175;
-143.7000;0.1522;-0.2318;
-143.4000;0.1522;-0.2366;
-143.1000;0.1498;-0.2366;
-142.8000;0.1538;-0.2366;
-142.5000;0.1522;-0.2366;
-142.2000;0.1538;-0.2342;
-141.9000;0.1514;-0.2461;
-141.6000;0.1538;-0.2413;
-141.3000;0.1538;-0.2461;
-141.0000;0.1563;-0.2437;
-140.7000;0.1530;-0.2485;
-140.4000;0.1530;-0.2485;
-140.1000;0.1530;-0.2509;
-139.8000;0.1530;-0.2509;
-139.5000;0.1522;-0.2533;
-139.2000;0.1522;-0.2557;
-138.9000;0.1547;-0.2557;
-138.6000;0.1538;-0.2557;
-138.3000;0.1514;-0.2652;
-138.0000;0.1538;-0.2461;
-137.7000;0.1506;-0.2461;
-137.4000;0.1563;-0.2222;
-137.1000;0.1530;-0.2246;
-136.8000;0.1514;-0.2270;
-136.5000;0.1530;-0.2342;
-136.2000;0.1530;-0.2413;
-135.9000;0.1571;-0.2318;
-135.6000;0.1547;-0.2318;
-135.3000;0.1514;-0.2437;
-135.0000;0.1538;-0.2222;
-134.7000;0.1351;-0.2652;
-134.4000;0.1498;-0.2246;
-134.1000;0.1506;-0.2222;
-133.8000;0.1563;-0.2103;
-133.5000;0.1555;-0.2103;
-133.2000;0.1481;-0.2318;
-132.9000;0.1595;-0.1983;
-132.6000;0.1498;-0.2246;
-132.3000;0.1514;-0.2175;
-132.0000;0.1522;-0.2175;
-131.7000;0.1530;-0.2151;
-131.4000;0.1555;-0.2222;
-131.1000;0.1538;-0.2294;
-130.8000;0.1514;-0.2366;
-130.5000;0.1522;-0.2366;
-130.2000;0.1555;-0.2342;
-129.9000;0.1538;-0.2413;
-129.6000;0.1530;-0.2437;
-129.3000;0.1538;-0.2390;
-129.0000;0.1408;-0.2748;
-128.7000;0.1538;-0.2437;
-128.4000;0.1514;-0.2533;
-128.1000;0.1465;-0.2629;
-127.8000;0.1490;-0.2581;
-127.5000;0.1538;-0.2509;
-127.2000;0.1514;-0.2509;
-126.9000;0.1514;-0.2437;
-126.6000;0.1530;-0.2437;
-126.3000;0.1514;-0.2461;
-126.0000;0.1530;-0.2461;
-125.7000;0.1538;-0.2437;
-125.4000;0.1514;-0.2509;
-125.1000;0.1530;-0.2533;
-124.8000;0.1522;-0.2437;
-124.5000;0.1538;-0.2485;
-124.2000;0.1538;-0.2437;
-123.9000;0.1465;-0.2629;
-123.6000;0.1538;-0.2485;
-123.3000;0.1498;-0.2533;
-123.0000;0.1506;-0.2437;
-122.7000;0.1530;-0.2437;
-122.4000;0.1547;-0.2390;
-122.1000;0.1530;-0.2461;
-121.8000;0.1547;-0.2461;
-121.5000;0.1555;-0.2366;
-121.2000;0.1490;-0.2629;
-120.9000;0.1522;-0.2437;
-120.6000;0.1547;-0.2342;
-120.3000;0.1538;-0.2509;
-120.0000;0.1538;-0.2581;
-119.7000;0.1547;-0.2557;
-119.4000;0.1514;-0.2581;
-119.1000;0.1522;-0.2557;
-118.8000;0.1530;-0.2533;
-118.5000;0.1514;-0.2437;
-118.2000;0.1514;-0.2390;
-117.9000;0.1514;-0.2485;
-117.6000;0.1514;-0.2485;
-117.3000;0.1538;-0.2437;
-117.0000;0.1514;-0.2533;
-116.7000;0.1587;-0.2366;
-116.4000;0.1538;-0.2581;
-116.1000;0.1514;-0.2605;
-115.8000;0.1522;-0.2652;
-115.5000;0.1547;-0.2605;
-115.2000;0.1498;-0.2700;
-114.9000;0.1522;-0.2557;
-114.6000;0.1522;-0.2533;
-114.3000;0.1522;-0.2533;
-114.0000;0.1506;-0.2605;
-113.7000;0.1555;-0.2413;
-113.4000;0.1506;-0.2605;
-113.1000;0.1530;-0.2581;
-112.8000;0.1555;-0.2485;
-112.5000;0.1547;-0.2461;
-112.2000;0.1498;-0.2581;
-111.9000;0.1530;-0.2533;
-111.6000;0.1563;-0.2390;
-111.3000;0.1506;-0.2509;
-111.0000;0.1416;-0.2676;
-110.7000;0.1579;-0.2270;
-110.4000;0.1538;-0.2342;
-110.1000;0.1522;-0.2366;
-109.8000;0.1579;-0.2318;
-109.5000;0.1555;-0.2413;
-109.2000;0.1530;-0.2437;
-108.9000;0.1538;-0.2485;
-108.6000;0.1498;-0.2581;
-108.3000;0.1595;-0.2294;
-108.0000;0.1506;-0.2509;
-107.7000;0.1490;-0.2533;
-107.4000;0.1522;-0.2413;
-107.1000;0.1530;-0.2461;
-106.8000;0.1522;-0.2461;
-106.5000;0.1514;-0.2461;
-106.2000;0.1416;-0.2772;
-105.9000;0.1563;-0.2318;
-105.6000;0.1571;-0.2294;
-105.3000;0.1547;-0.2294;
-105.0000;0.1538;-0.2342;
-104.7000;0.1522;-0.2294;
-104.4000;0.1538;-0.2342;
-104.1000;0.1563;-0.2246;
-103.8000;0.1530;-0.2342;
-103.5000;0.1392;-0.2629;
-103.2000;0.1547;-0.2318;
-102.9000;0.1506;-0.2413;
-102.6000;0.1530;-0.2390;
-102.3000;0.1498;-0.2485;
-102.0000;0.1514;-0.2437;
-101.7000;0.1530;-0.2366;
-101.4000;0.1473;-0.2437;
-101.1000;0.1514;-0.2294;
-100.8000;0.1514;-0.2342;
-100.5000;0.1530;-0.2437;
-100.2000;0.1514;-0.2509;
-99.9000;0.1473;-0.2533;
-99.6000;0.1547;-0.2413;
-99.3000;0.1538;-0.2461;
-99.0000;0.1530;-0.2437;
-98.7000;0.1555;-0.2342;
-98.4000;0.1522;-0.2390;
-98.1000;0.1563;-0.2294;
-97.8000;0.1555;-0.2366;
-97.5000;0.1530;-0.2509;
-97.2000;0.1449;-0.2629;
-96.9000;0.1481;-0.2557;
-96.6000;0.1514;-0.2461;
-96.3000;0.1530;-0.2413;
-96.0000;0.1530;-0.2413;
-95.7000;0.1506;-0.2509;
-95.4000;0.1530;-0.2461;
-95.1000;0.1555;-0.2342;
-94.8000;0.1612;-0.2222;
-94.5000;0.1530;-0.2413;
-94.2000;0.1538;-0.2413;
-93.9000;0.1555;-0.2318;
-93.6000;0.1530;-0.2390;
-93.3000;0.1530;-0.2366;
-93.0000;0.1522;-0.2437;
-92.7000;0.1538;-0.2366;
-92.4000;0.1506;-0.2390;
-92.1000;0.1522;-0.2342;
-91.8000;0.1530;-0.2342;
-91.5000;0.1579;-0.2175;
-91.2000;0.1555;-0.2294;
-90.9000;0.1538;-0.2222;
-90.6000;0.1514;-0.2294;
-90.3000;0.1506;-0.2318;
-90.0000;0.1522;-0.2294;
-89.7000;0.1555;-0.2151;
-89.4000;0.1498;-0.2222;
-89.1000;0.1530;-0.2198;
-88.8000;0.1538;-0.2246;
-88.5000;0.1538;-0.2294;
-88.2000;0.1538;-0.2342;
-87.9000;0.1514;-0.2485;
-87.6000;0.1530;-0.2509;
-87.3000;0.1514;-0.2485;
-87.0000;0.1587;-0.2318;
-86.7000;0.1522;-0.2557;
-86.4000;0.1490;-0.2676;
-86.1000;0.1514;-0.2676;
-85.8000;0.1555;-0.2581;
-85.5000;0.1563;-0.2581;
-85.2000;0.1481;-0.2652;
-84.9000;0.1498;-0.2652;
-84.6000;0.1538;-0.2485;
-84.3000;0.1547;-0.2413;
-84.0000;0.1538;-0.2437;
-83.7000;0.1547;-0.2390;
-83.4000;0.1547;-0.2366;
-83.1000;0.1538;-0.2413;
-82.8000;0.1522;-0.2437;
-82.5000;0.1538;-0.2461;
-82.2000;0.1538;-0.2437;
-81.9000;0.1587;-0.2342;
-81.6000;0.1522;-0.2557;
-81.3000;0.1522;-0.2390;
-81.0000;0.1571;-0.2270;
-80.7000;0.1506;-0.2413;
-80.4000;0.1506;-0.2366;
-80.1000;0.1555;-0.2175;
-79.8000;0.1522;-0.2222;
-79.5000;0.1538;-0.2222;
-79.2000;0.1506;-0.2294;
-78.9000;0.1473;-0.2342;
-78.6000;0.1473;-0.2437;
-78.3000;0.1547;-0.2342;
-78.0000;0.1522;-0.2318;
-77.7000;0.1571;-0.2103;
-77.4000;0.1530;-0.2175;
-77.1000;0.1530;-0.2246;
-76.8000;0.1530;-0.2222;
-76.5000;0.1538;-0.2175;
-76.2000;0.1522;-0.2175;
-75.9000;0.1538;-0.2198;
-75.6000;0.1547;-0.2175;
-75.3000;0.1514;-0.2342;
-75.0000;0.1490;-0.2413;
-74.7000;0.1530;-0.2366;
-74.4000;0.1538;-0.2342;
-74.1000;0.1506;-0.2461;
-73.8000;0.1506;-0.2461;
-73.5000;0.1530;-0.2390;
-73.2000;0.1579;-0.2318;
-72.9000;0.1514;-0.2437;
-72.6000;0.1522;-0.2437;
-72.3000;0.1530;-0.2413;
-72.0000;0.1506;-0.2390;
-71.7000;0.1498;-0.2366;
-71.4000;0.1522;-0.2342;
-71.1000;0.1506;-0.2390;
-70.8000;0.1522;-0.2390;
-70.5000;0.1522;-0.2342;
-70.2000;0.1522;-0.2413;
-69.9000;0.1514;-0.2461;
-69.6000;0.1547;-0.2390;
-69.3000;0.1514;-0.2390;
-69.0000;0.1530;-0.2318;
-68.7000;0.1522;-0.2366;
-68.4000;0.1555;-0.2270;
-68.1000;0.1522;-0.2342;
-67.8000;0.1522;-0.2390;
-67.5000;0.1530;-0.2461;
-67.2000;0.1530;-0.2413;
-66.9000;0.1522;-0.2413;
-66.6000;0.1522;-0.2366;
-66.3000;0.1538;-0.2366;
-66.0000;0.1547;-0.2294;
-65.7000;0.1530;-0.2318;
-65.4000;0.1563;-0.2294;
-65.1000;0.1538;-0.2294;
-64.8000;0.1514;-0.2318;
-64.5000;0.1555;-0.2222;
-64.2000;0.1490;-0.2318;
-63.9000;0.1522;-0.2198;
-63.6000;0.1514;-0.2222;
-63.3000;0.1425;-0.2413;
-63.0000;0.1538;-0.2222;
-62.7000;0.1530;-0.2294;
-62.4000;0.1514;-0.2390;
-62.1000;0.1644;-0.2055;
-61.8000;0.1514;-0.2366;
-61.5000;0.1538;-0.2318;
-61.2000;0.1530;-0.2270;
-60.9000;0.1506;-0.2366;
-60.6000;0.1506;-0.2294;
-60.3000;0.1522;-0.2198;
-60.0000;0.1547;-0.2175;
-59.7000;0.1530;-0.2222;
-59.4000;0.1522;-0.2270;
-59.1000;0.1530;-0.2246;
-58.8000;0.1547;-0.2246;
-58.5000;0.1506;-0.2342;
-58.2000;0.1514;-0.2390;
-57.9000;0.1506;-0.2390;
-57.6000;0.1490;-0.2413;
-57.3000;0.1530;-0.2366;
-57.0000;0.1530;-0.2390;
-56.7000;0.1530;-0.2366;
-56.4000;0.1604;-0.2175;
-56.1000;0.1522;-0.2413;
-55.8000;0.1530;-0.2366;
-55.5000;0.1514;-0.2366;
-55.2000;0.1433;-0.2557;
-54.9000;0.1522;-0.2222;
-54.6000;0.1514;-0.2342;
-54.3000;0.1506;-0.2270;
-54.0000;0.1522;-0.2127;
-53.7000;0.1530;-0.2103;
-53.4000;0.1514;-0.2151;
-53.1000;0.1522;-0.2127;
-52.8000;0.1506;-0.2222;
-52.5000;0.1555;-0.2079;
-52.2000;0.1547;-0.2175;
-51.9000;0.1514;-0.2198;
-51.6000;0.1514;-0.2175;
-51.3000;0.1522;-0.2079;
-51.0000;0.1522;-0.2127;
-50.7000;0.1530;-0.2055;
-50.4000;0.1538;-0.2151;
-50.1000;0.1514;-0.2246;
-49.8000;0.1530;-0.2246;
-49.5000;0.1473;-0.2461;
-49.2000;0.1522;-0.2413;
-48.9000;0.1547;-0.2342;
-48.6000;0.1547;-0.2318;
-48.3000;0.1522;-0.2390;
-48.0000;0.1514;-0.2485;
-47.7000;0.1742;-0.1816;
-47.4000;0.1547;-0.2342;
-47.1000;0.1555;-0.2246;
-46.8000;0.1530;-0.2222;
-46.5000;0.1538;-0.2198;
-46.2000;0.1538;-0.2175;
-45.9000;0.1547;-0.2198;
-45.6000;0.1522;-0.2318;
-45.3000;0.1530;-0.2270;
-45.0000;0.1547;-0.2175;
-44.7000;0.1514;-0.2342;
-44.4000;0.1522;-0.2246;
-44.1000;0.1498;-0.2390;
-43.8000;0.1522;-0.2318;
-43.5000;0.1514;-0.2294;
-43.2000;0.1530;-0.2270;
-42.9000;0.1522;-0.2294;
-42.6000;0.1547;-0.2294;
-42.3000;0.1490;-0.2437;
-42.0000;0.1538;-0.2413;
-41.7000;0.1498;-0.2605;
-41.4000;0.1538;-0.2461;
-41.1000;0.1530;-0.2461;
-40.8000;0.1571;-0.2390;
-40.5000;0.1514;-0.2342;
-40.2000;0.1514;-0.2318;
-39.9000;0.1530;-0.2294;
-39.6000;0.1530;-0.2246;
-39.3000;0.1490;-0.2366;
-39.0000;0.1506;-0.2294;
-38.7000;0.1498;-0.2366;
-38.4000;0.1514;-0.2342;
-38.1000;0.1465;-0.2413;
-37.8000;0.1514;-0.2270;
-37.5000;0.1522;-0.2342;
-37.2000;0.1465;-0.2437;
-36.9000;0.1538;-0.2246;
-36.6000;0.1506;-0.2222;
-36.3000;0.1449;-0.2461;
-36.0000;0.1522;-0.2318;
-35.7000;0.1547;-0.2342;
-35.4000;0.1555;-0.2151;
-35.1000;0.1522;-0.2222;
-34.8000;0.1522;-0.2198;
-34.5000;0.1490;-0.2222;
-34.2000;0.1530;-0.2198;
-33.9000;0.1530;-0.2222;
-33.6000;0.1530;-0.2151;
-33.3000;0.1514;-0.2175;
-33.0000;0.1481;-0.2246;
-32.7000;0.1506;-0.2175;
-32.4000;0.1538;-0.2007;
-32.1000;0.1530;-0.2103;
-31.8000;0.1522;-0.2198;
-31.5000;0.1530;-0.2175;
-31.2000;0.1473;-0.2151;
-30.9000;0.1571;-0.1888;
-30.6000;0.1514;-0.2103;
-30.3000;0.1522;-0.2151;
-30.0000;0.1530;-0.2222;
-29.7000;0.1538;-0.2246;
-29.4000;0.1514;-0.2390;
-29.1000;0.1441;-0.2605;
-28.8000;0.1547;-0.2342;
-28.5000;0.1538;-0.2390;
-28.2000;0.1547;-0.2366;
-27.9000;0.1522;-0.2437;
-27.6000;0.1514;-0.2509;
-27.3000;0.1514;-0.2533;
-27.0000;0.1514;-0.2629;
-26.7000;0.1538;-0.2533;
-26.4000;0.1522;-0.2533;
-26.1000;0.1498;-0.2509;
-25.8000;0.1538;-0.2270;
-25.5000;0.1498;-0.2366;
-25.2000;0.1547;-0.2294;
-24.9000;0.1465;-0.2533;
-24.6000;0.1506;-0.2342;
-24.3000;0.1555;-0.2270;
-24.0000;0.1563;-0.2198;
-23.7000;0.1547;-0.2246;
-23.4000;0.1530;-0.2294;
-23.1000;0.1506;-0.2366;
-22.8000;0.1530;-0.2318;
-22.5000;0.1514;-0.2342;
-22.2000;0.1522;-0.2366;
-21.9000;0.1530;-0.2390;
-21.6000;0.1522;-0.2390;
-21.3000;0.1490;-0.2437;
-21.0000;0.1530;-0.2294;
-20.7000;0.1530;-0.2294;
-20.4000;0.1522;-0.2294;
-20.1000;0.1530;-0.2318;
-19.8000;0.1530;-0.2294;
-19.5000;0.1538;-0.2270;
-19.2000;0.1514;-0.2342;
-18.9000;0.1555;-0.2198;
-18.6000;0.1506;-0.2270;
-18.3000;0.1530;-0.2198;
-18.0000;0.1522;-0.2198;
-17.7000;0.1595;-0.2055;
-17.4000;0.1538;-0.2342;
-17.1000;0.1522;-0.2461;
-16.8000;0.1620;-0.2198;
-16.5000;0.1555;-0.2485;
-16.2000;0.1538;-0.2557;
-15.9000;0.1522;-0.2581;
-15.6000;0.1473;-0.2676;
-15.3000;0.1514;-0.2533;
-15.0000;0.1473;-0.2629;
-14.7000;0.1547;-0.2390;
-14.4000;0.1449;-0.2629;
-14.1000;0.1473;-0.2485;
-13.8000;0.1498;-0.2533;
-13.5000;0.1530;-0.2413;
-13.2000;0.1571;-0.2151;
-12.9000;0.1490;-0.2294;
-12.6000;0.1514;-0.2198;
-12.3000;0.1522;-0.2246;
-12.0000;0.1530;-0.2175;
-11.7000;0.1555;-0.2198;
-11.4000;0.1457;-0.2437;
-11.1000;0.1425;-0.2557;
-10.8000;0.1538;-0.2270;
-10.5000;0.1433;-0.2581;
-10.2000;0.1522;-0.2318;
-9.9000;0.1441;-0.2485;
-9.6000;0.1563;-0.2175;
-9.3000;0.1514;-0.2366;
-9.0000;0.1514;-0.2222;
-8.7000;0.1595;-0.1959;
-8.4000;0.1604;-0.1983;
-8.1000;0.1506;-0.2175;
-7.8000;0.1514;-0.2198;
-7.5000;0.1530;-0.2079;
-7.2000;0.1522;-0.2175;
-6.9000;0.1522;-0.2222;
-6.6000;0.1514;-0.2270;
-6.3000;0.1612;-0.1959;
-6.0000;0.1555;-0.2079;
-5.7000;0.1547;-0.2246;
-5.4000;0.1506;-0.2294;
-5.1000;0.1457;-0.2437;
-4.8000;0.1514;-0.2413;
-4.5000;0.1514;-0.2366;
-4.2000;0.1571;-0.2198;
-3.9000;0.1514;-0.2413;
-3.6000;0.1587;-0.2175;
-3.3000;0.1514;-0.2318;
-3.0000;0.1449;-0.2461;
-2.7000;0.1604;-0.2031;
-2.4000;0.1538;-0.2246;
-2.1000;0.1538;-0.2246;
-1.8000;0.1547;-0.2270;
-1.5000;0.1498;-0.2366;
-1.2000;0.1514;-0.2390;
-0.9000;0.1538;-0.2270;
-0.6000;0.1538;-0.2151;
-0.3000;0.1563;-0.2079;
0.0000;0.1563;-0.2079;
0.3000;0.1490;-0.2461;
0.6000;0.1530;-0.2103;
0.9000;0.1538;-0.1936;
1.2000;0.1555;-0.1864;
1.5000;0.1547;-0.1721;
1.8000;0.1563;-0.1649;
2.1000;0.1522;-0.1673;
2.4000;0.1555;-0.1529;
2.7000;0.1547;-0.1529;
3.0000;0.1555;-0.1314;
3.3000;0.1579;-0.1195;
3.6000;0.1547;-0.1195;
3.9000;0.1579;-0.1028;
4.2000;0.1563;-0.1099;
4.5000;0.1595;-0.1075;
4.8000;0.1547;-0.1219;
5.1000;0.1587;-0.1051;
5.4000;0.1555;-0.1147;
5.7000;0.1563;-0.1147;
6.0000;0.1555;-0.1147;
6.3000;0.1563;-0.1099;
6.6000;0.1498;-0.1338;
6.9000;0.1555;-0.1243;
7.2000;0.1604;-0.0932;
7.5000;0.1538;-0.1171;
7.8000;0.1579;-0.0932;
8.1000;0.1563;-0.1051;
8.4000;0.1490;-0.1219;
8.7000;0.1473;-0.1266;
9.0000;0.1579;-0.1099;
9.3000;0.1644;-0.0980;
9.6000;0.1457;-0.1482;
9.9000;0.1490;-0.1410;
10.2000;0.1563;-0.1219;
10.5000;0.1530;-0.1338;
10.8000;0.1579;-0.1219;
11.1000;0.1587;-0.1243;
11.4000;0.1538;-0.1219;
11.7000;0.1547;-0.1243;
12.0000;0.1547;-0.1386;
12.3000;0.1555;-0.1362;
12.6000;0.1595;-0.1195;
12.9000;0.1522;-0.1338;
13.2000;0.1514;-0.1266;
13.5000;0.1563;-0.1075;
13.8000;0.1555;-0.1028;
14.1000;0.1555;-0.1051;
14.4000;0.1555;-0.1004;
14.7000;0.1555;-0.1028;
15.0000;0.1563;-0.0908;
15.3000;0.1530;-0.1051;
15.6000;0.1555;-0.0980;
15.9000;0.1628;-0.0812;
16.2000;0.1514;-0.1075;
16.5000;0.1555;-0.1004;
16.8000;0.1522;-0.1099;
17.1000;0.1563;-0.1075;
17.4000;0.1555;-0.1075;
17.7000;0.1538;-0.1171;
18.0000;0.1555;-0.1028;
18.3000;0.1514;-0.1099;
18.6000;0.1538;-0.1004;
18.9000;0.1530;-0.0980;
19.2000;0.1538;-0.0932;
19.5000;0.1571;-0.0932;
19.8000;0.1555;-0.1051;
20.1000;0.1547;-0.1123;
20.4000;0.1547;-0.1123;
20.7000;0.1530;-0.1099;
21.0000;0.1530;-0.1147;
21.3000;0.1547;-0.1099;
21.6000;0.1547;-0.1075;
21.9000;0.1547;-0.0956;
22.2000;0.1555;-0.0980;
22.5000;0.1538;-0.0956;
22.8000;0.1506;-0.1028;
23.1000;0.1555;-0.0908;
23.4000;0.1547;-0.0980;
23.7000;0.1563;-0.0884;
24.0000;0.1547;-0.0884;
24.3000;0.1547;-0.0932;
24.6000;0.1555;-0.0956;
24.9000;0.1563;-0.0956;
25.2000;0.1563;-0.1028;
25.5000;0.1538;-0.1004;
25.8000;0.1563;-0.0956;
26.1000;0.1538;-0.0956;
26.4000;0.1522;-0.0812;
26.7000;0.1530;-0.0812;
27.0000;0.1538;-0.0789;
27.3000;0.1555;-0.0717;
27.6000;0.1506;-0.0932;
27.9000;0.1571;-0.0765;
28.2000;0.1530;-0.0860;
28.5000;0.1538;-0.0932;
28.8000;0.1579;-0.0884;
29.1000;0.1555;-0.1004;
29.4000;0.1563;-0.0932;
29.7000;0.1612;-0.0884;
30.0000;0.1538;-0.1051;
30.3000;0.1555;-0.1051;
30.6000;0.1514;-0.1099;
30.9000;0.1587;-0.0908;
31.2000;0.1571;-0.0932;
31.5000;0.1538;-0.0956;
31.8000;0.1547;-0.0956;
32.1000;0.1490;-0.1147;
32.4000;0.1563;-0.1004;
32.7000;0.1530;-0.1123;
33.0000;0.1547;-0.1099;
33.3000;0.1538;-0.1171;
33.6000;0.1538;-0.1147;
33.9000;0.1530;-0.1171;
34.2000;0.1538;-0.1099;
34.5000;0.1547;-0.1075;
34.8000;0.1547;-0.1075;
35.1000;0.1522;-0.1051;
35.4000;0.1538;-0.0932;
35.7000;0.1563;-0.0884;
36.0000;0.1547;-0.0932;
36.3000;0.1530;-0.0980;
36.6000;0.1538;-0.1051;
36.9000;0.1538;-0.1075;
37.2000;0.1538;-0.1195;
37.5000;0.1538;-0.1171;
37.8000;0.1547;-0.1147;
38.1000;0.1538;-0.1051;
38.4000;0.1473;-0.1314;
38.7000;0.1571;-0.0980;
39.0000;0.1628;-0.0693;
39.3000;0.1555;-0.0860;
39.6000;0.1538;-0.0860;
39.9000;0.1538;-0.0812;
40.2000;0.1563;-0.0717;
40.5000;0.1555;-0.0717;
40.8000;0.1555;-0.0741;
41.1000;0.1522;-0.0741;
41.4000;0.1506;-0.0789;
41.7000;0.1555;-0.0765;
42.0000;0.1547;-0.0812;
42.3000;0.1538;-0.0884;
42.6000;0.1563;-0.0836;
42.9000;0.1547;-0.0884;
43.2000;0.1563;-0.0812;
43.5000;0.1547;-0.0956;
43.8000;0.1555;-0.0932;
44.1000;0.1547;-0.0884;
44.4000;0.1522;-0.0956;
44.7000;0.1547;-0.0884;
45.0000;0.1490;-0.0980;
45.3000;0.1538;-0.0908;
45.6000;0.1547;-0.0980;
45.9000;0.1563;-0.0884;
46.2000;0.1530;-0.0836;
46.5000;0.1555;-0.0789;
46.8000;0.1555;-0.0717;
47.1000;0.1563;-0.0741;
47.4000;0.1530;-0.0908;
47.7000;0.1555;-0.0908;
48.0000;0.1587;-0.0765;
48.3000;0.1555;-0.0812;
48.6000;0.1563;-0.0765;
48.9000;0.1530;-0.0789;
49.2000;0.1538;-0.0860;
49.5000;0.1530;-0.0860;
49.8000;0.1538;-0.0812;
50.1000;0.1563;-0.0717;
50.4000;0.1555;-0.0765;
50.7000;0.1530;-0.0860;
51.0000;0.1555;-0.0789;
51.3000;0.1538;-0.0789;
51.6000;0.1571;-0.0693;
51.9000;0.1538;-0.0789;
52.2000;0.1587;-0.0645;
52.5000;0.1563;-0.0693;
52.8000;0.1465;-0.0956;
53.1000;0.1595;-0.0478;
53.4000;0.1555;-0.0693;
53.7000;0.1547;-0.0693;
54.0000;0.1538;-0.0741;
54.3000;0.1547;-0.0789;
54.6000;0.1547;-0.0812;
54.9000;0.1547;-0.0812;
55.2000;0.1547;-0.0836;
55.5000;0.1563;-0.0717;
55.8000;0.1498;-0.0908;
56.1000;0.1555;-0.0765;
56.4000;0.1547;-0.0741;
56.7000;0.1547;-0.0789;
57.0000;0.1547;-0.0765;
57.3000;0.1547;-0.0789;
57.6000;0.1506;-0.0884;
57.9000;0.1547;-0.0717;
58.2000;0.1571;-0.0717;
58.5000;0.1538;-0.0741;
58.8000;0.1555;-0.0789;
59.1000;0.1490;-0.0932;
59.4000;0.1530;-0.0789;
59.7000;0.1538;-0.0812;
60.0000;0.1579;-0.0717;
60.3000;0.1538;-0.0884;
60.6000;0.1547;-0.0956;
60.9000;0.1547;-0.0980;
61.2000;0.1555;-0.1028;
61.5000;0.1563;-0.1004;
61.8000;0.1547;-0.0932;
62.1000;0.1579;-0.0884;
62.4000;0.1547;-0.0980;
62.7000;0.1571;-0.0956;
63.0000;0.1547;-0.1004;
63.3000;0.1530;-0.0956;
63.6000;0.1555;-0.0812;
63.9000;0.1538;-0.0860;
64.2000;0.1547;-0.0789;
64.5000;0.1547;-0.0717;
64.8000;0.1547;-0.0669;
65.1000;0.1547;-0.0693;
65.4000;0.1522;-0.0717;
65.7000;0.1555;-0.0621;
66.0000;0.1538;-0.0669;
66.3000;0.1563;-0.0645;
66.6000;0.1555;-0.0669;
66.9000;0.1538;-0.0741;
67.2000;0.1555;-0.0741;
67.5000;0.1563;-0.0741;
67.8000;0.1547;-0.0836;
68.1000;0.1538;-0.0884;
68.4000;0.1555;-0.0884;
68.7000;0.1547;-0.1028;
69.0000;0.1563;-0.0980;
69.3000;0.1538;-0.1028;
69.6000;0.1522;-0.1028;
69.9000;0.1547;-0.1051;
70.2000;0.1563;-0.1051;
70.5000;0.1498;-0.1219;
70.8000;0.1538;-0.1028;
71.1000;0.1563;-0.0908;
71.4000;0.1538;-0.1004;
71.7000;0.1538;-0.1123;
72.0000;0.1555;-0.1123;
72.3000;0.1538;-0.1171;
72.6000;0.1547;-0.1195;
72.9000;0.1547;-0.1219;
73.2000;0.1506;-0.1290;
73.5000;0.1490;-0.1410;
73.8000;0.1563;-0.1243;
74.1000;0.1563;-0.1290;
74.4000;0.1490;-0.1362;
74.7000;0.1506;-0.1219;
75.0000;0.1555;-0.1075;
75.3000;0.1514;-0.1075;
75.6000;0.1547;-0.0956;
75.9000;0.1530;-0.0932;
76.2000;0.1547;-0.0836;
76.5000;0.1530;-0.0956;
76.8000;0.1465;-0.1171;
77.1000;0.1530;-0.1051;
77.4000;0.1555;-0.1004;
77.7000;0.1555;-0.1028;
78.0000;0.1490;-0.1028;
78.3000;0.1547;-0.0860;
78.6000;0.1490;-0.1004;
78.9000;0.1563;-0.0884;
79.2000;0.1555;-0.0884;
79.5000;0.1595;-0.0741;
79.8000;0.1481;-0.1004;
80.1000;0.1547;-0.0765;
80.4000;0.1522;-0.0860;
80.7000;0.1530;-0.0860;
81.0000;0.1547;-0.0836;
81.3000;0.1538;-0.0884;
81.6000;0.1571;-0.0789;
81.9000;0.1620;-0.0669;
82.2000;0.1547;-0.0860;
82.5000;0.1449;-0.1099;
82.8000;0.1547;-0.0884;
83.1000;0.1563;-0.0860;
83.4000;0.1628;-0.0621;
83.7000;0.1571;-0.0741;
84.0000;0.1563;-0.0717;
84.3000;0.1555;-0.0717;
84.6000;0.1563;-0.0717;
84.9000;0.1547;-0.0812;
85.2000;0.1538;-0.0812;
85.5000;0.1555;-0.0741;
85.8000;0.1547;-0.0789;
86.1000;0.1538;-0.0836;
86.4000;0.1612;-0.0645;
86.7000;0.1538;-0.0812;
87.0000;0.1563;-0.0741;
87.3000;0.1498;-0.0860;
87.6000;0.1530;-0.0908;
87.9000;0.1538;-0.0860;
88.2000;0.1555;-0.0836;
88.5000;0.1522;-0.0932;
88.8000;0.1530;-0.0932;
89.1000;0.1563;-0.0884;
89.4000;0.1579;-0.0860;
89.7000;0.1530;-0.0956;
90.0000;0.1522;-0.0884;
90.3000;0.1587;-0.0741;
90.6000;0.1538;-0.0836;
90.9000;0.1579;-0.0789;
91.2000;0.1547;-0.0884;
91.5000;0.1563;-0.0836;
91.8000;0.1579;-0.0765;
92.1000;0.1547;-0.0860;
92.4000;0.1538;-0.0884;
92.7000;0.1538;-0.0789;
93.0000;0.1530;-0.0765;
93.3000;0.1530;-0.0765;
93.6000;0.1587;-0.0693;
93.9000;0.1538;-0.0765;
94.2000;0.1547;-0.0765;
94.5000;0.1547;-0.0741;
94.8000;0.1547;-0.0717;
95.1000;0.1547;-0.0693;
95.4000;0.1530;-0.0693;
95.7000;0.1547;-0.0765;
96.0000;0.1555;-0.0789;
96.3000;0.1481;-0.0908;
96.6000;0.1514;-0.0932;
96.9000;0.1644;-0.0621;
97.2000;0.1547;-0.0812;
97.5000;0.1530;-0.0836;
97.8000;0.1547;-0.0765;
98.1000;0.1571;-0.0741;
98.4000;0.1612;-0.0597;
98.7000;0.1547;-0.0860;
99.0000;0.1547;-0.0860;
99.3000;0.1587;-0.0645;
99.6000;0.1555;-0.0765;
99.9000;0.1538;-0.0765;
100.2000;0.1604;-0.0645;
100.5000;0.1563;-0.0836;
100.8000;0.1579;-0.0812;
101.1000;0.1547;-0.0956;
101.4000;0.1514;-0.1195;
101.7000;0.1538;-0.1075;
102.0000;0.1547;-0.1028;
102.3000;0.1563;-0.0860;
102.6000;0.1522;-0.1004;
102.9000;0.1555;-0.0884;
103.2000;0.1547;-0.0884;
103.5000;0.1547;-0.0836;
103.8000;0.1530;-0.0812;
104.1000;0.1530;-0.0765;
104.4000;0.1604;-0.0526;
104.7000;0.1538;-0.0765;
105.0000;0.1530;-0.0693;
105.3000;0.1555;-0.0669;
105.6000;0.1595;-0.0502;
105.9000;0.1498;-0.0789;
106.2000;0.1547;-0.0717;
106.5000;0.1522;-0.0836;
106.8000;0.1555;-0.0836;
107.1000;0.1612;-0.0645;
107.4000;0.1563;-0.0789;
107.7000;0.1530;-0.0956;
108.0000;0.1530;-0.0932;
108.3000;0.1538;-0.0908;
108.6000;0.1522;-0.0884;
108.9000;0.1555;-0.0884;
109.2000;0.1530;-0.0956;
109.5000;0.1547;-0.0884;
109.8000;0.1555;-0.0860;
110.1000;0.1587;-0.0741;
110.4000;0.1530;-0.0884;
110.7000;0.1555;-0.0860;
111.0000;0.1547;-0.0789;
111.3000;0.1538;-0.0812;
111.6000;0.1579;-0.0765;
111.9000;0.1547;-0.0836;
112.2000;0.1538;-0.0789;
112.5000;0.1579;-0.0741;
112.8000;0.1530;-0.0836;
113.1000;0.1506;-0.1004;
113.4000;0.1555;-0.0836;
113.7000;0.1481;-0.1028;
114.0000;0.1433;-0.1147;
114.3000;0.1514;-0.0980;
114.6000;0.1547;-0.0812;
114.9000;0.1555;-0.0789;
115.2000;0.1604;-0.0597;
115.5000;0.1522;-0.0860;
115.8000;0.1547;-0.0836;
116.1000;0.1612;-0.0597;
116.4000;0.1514;-0.0860;
116.7000;0.1538;-0.0812;
117.0000;0.1514;-0.0836;
117.3000;0.1530;-0.0812;
117.6000;0.1571;-0.0693;
117.9000;0.1595;-0.0645;
118.2000;0.1522;-0.0860;
118.5000;0.1522;-0.0741;
118.8000;0.1522;-0.0812;
119.1000;0.1547;-0.0765;
119.4000;0.1514;-0.0860;
119.7000;0.1547;-0.0836;
120.0000;0.1571;-0.0836;
120.3000;0.1547;-0.0741;
120.6000;0.1563;-0.0789;
120.9000;0.1408;-0.1243;
121.2000;0.1563;-0.0812;
121.5000;0.1547;-0.0860;
121.8000;0.1514;-0.1004;
122.1000;0.1571;-0.0860;
122.4000;0.1644;-0.0717;
122.7000;0.1465;-0.1171;
123.0000;0.1538;-0.1123;
123.3000;0.1555;-0.1051;
123.6000;0.1506;-0.1123;
123.9000;0.1530;-0.1028;
124.2000;0.1530;-0.1028;
124.5000;0.1522;-0.1075;
124.8000;0.1538;-0.0980;
125.1000;0.1579;-0.0860;
125.4000;0.1555;-0.0836;
125.7000;0.1376;-0.1266;
126.0000;0.1555;-0.0789;
126.3000;0.1538;-0.0860;
126.6000;0.1530;-0.0812;
126.9000;0.1595;-0.0693;
127.2000;0.1538;-0.0908;
127.5000;0.1579;-0.0765;
127.8000;0.1547;-0.0884;
128.1000;0.1538;-0.0980;
128.4000;0.1563;-0.0932;
128.7000;0.1555;-0.0908;
129.0000;0.1547;-0.0908;
129.3000;0.1490;-0.1051;
129.6000;0.1563;-0.0812;
129.9000;0.1538;-0.0860;
130.2000;0.1538;-0.0765;
130.5000;0.1538;-0.0789;
130.8000;0.1555;-0.0693;
131.1000;0.1563;-0.0717;
131.4000;0.1538;-0.0741;
131.7000;0.1538;-0.0789;
132.0000;0.1498;-0.0908;
132.3000;0.1563;-0.0765;
132.6000;0.1547;-0.0836;
132.9000;0.1644;-0.0597;
133.2000;0.1538;-0.0860;
133.5000;0.1538;-0.0884;
133.8000;0.1530;-0.0884;
134.1000;0.1530;-0.0980;
134.4000;0.1538;-0.0980;
134.7000;0.1506;-0.1028;
135.0000;0.1538;-0.1004;
135.3000;0.1538;-0.0956;
135.6000;0.1555;-0.0884;
135.9000;0.1571;-0.0836;
136.2000;0.1530;-0.0884;
136.5000;0.1547;-0.0860;
136.8000;0.1530;-0.0884;
137.1000;0.1547;-0.0741;
137.4000;0.1538;-0.0836;
137.7000;0.1514;-0.0956;
138.0000;0.1522;-0.0908;
138.3000;0.1522;-0.0980;
138.6000;0.1530;-0.0956;
138.9000;0.1433;-0.1290;
139.2000;0.1522;-0.1051;
139.5000;0.1514;-0.1123;
139.8000;0.1571;-0.0932;
140.1000;0.1538;-0.0908;
140.4000;0.1538;-0.0932;
140.7000;0.1538;-0.0884;
141.0000;0.1547;-0.0789;
141.3000;0.1555;-0.0789;
141.6000;0.1498;-0.0980;
141.9000;0.1563;-0.0860;
142.2000;0.1530;-0.0884;
142.5000;0.1547;-0.0884;
142.8000;0.1571;-0.0860;
143.1000;0.1563;-0.0884;
143.4000;0.1555;-0.0884;
143.7000;0.1538;-0.0932;
144.0000;0.1530;-0.0980;
144.3000;0.1579;-0.0836;
144.6000;0.1538;-0.0884;
144.9000;0.1547;-0.0765;
145.2000;0.1555;-0.0789;
145.5000;0.1530;-0.0789;
145.8000;0.1595;-0.0669;
146.1000;0.1538;-0.0860;
146.4000;0.1514;-0.0932;
146.7000;0.1547;-0.0860;
147.0000;0.1498;-0.1004;
147.3000;0.1538;-0.1051;
147.6000;0.1530;-0.0980;
147.9000;0.1538;-0.0980;
148.2000;0.1555;-0.0956;
148.5000;0.1555;-0.0932;
148.8000;0.1530;-0.1004;
149.1000;0.1555;-0.0932;
149.4000;0.1547;-0.1004;
149.7000;0.1563;-0.0980;
150.0000;0.1669;-0.0645;
150.3000;0.1538;-0.0980;
150.6000;0.1604;-0.0812;
150.9000;0.1579;-0.0812;
151.2000;0.1522;-0.0860;
151.5000;0.1514;-0.0908;
151.8000;0.1563;-0.0741;
152.1000;0.1522;-0.0860;
152.4000;0.1547;-0.0812;
152.7000;0.1563;-0.0765;
153.0000;0.1547;-0.0836;
153.3000;0.1522;-0.0860;
153.6000;0.1563;-0.0717;
153.9000;0.1538;-0.0812;
154.2000;0.1555;-0.0860;
154.5000;0.1522;-0.0860;
154.8000;0.1547;-0.0860;
155.1000;0.1522;-0.0860;
155.4000;0.1441;-0.1099;
155.7000;0.1547;-0.0884;
156.0000;0.1473;-0.1123;
156.3000;0.1555;-0.0908;
156.6000;0.1530;-0.0932;
156.9000;0.1433;-0.1243;
157.2000;0.1538;-0.0884;
157.5000;0.1530;-0.0908;
157.8000;0.1547;-0.0908;
158.1000;0.1547;-0.0932;
158.4000;0.1538;-0.0884;
158.7000;0.1555;-0.0908;
159.0000;0.1555;-0.0884;
159.3000;0.1563;-0.0812;
159.6000;0.1530;-0.0860;
159.9000;0.1547;-0.0860;
160.2000;0.1563;-0.0860;
160.5000;0.1522;-0.0908;
160.8000;0.1547;-0.0908;
161.1000;0.1547;-0.0908;
161.4000;0.1547;-0.0932;
161.7000;0.1522;-0.1028;
162.0000;0.1571;-0.0908;
162.3000;0.1547;-0.0908;
162.6000;0.1547;-0.0932;
162.9000;0.1604;-0.0765;
163.2000;0.1538;-0.0980;
163.5000;0.1522;-0.1051;
163.8000;0.1547;-0.0956;
164.1000;0.1547;-0.0908;
164.4000;0.1555;-0.0860;
164.7000;0.1376;-0.1338;
165.0000;0.1547;-0.0932;
165.3000;0.1571;-0.0836;
165.6000;0.1538;-0.0908;
165.9000;0.1547;-0.0884;
166.2000;0.1530;-0.0884;
166.5000;0.1547;-0.0860;
166.8000;0.1547;-0.0812;
167.1000;0.1530;-0.0860;
167.4000;0.1571;-0.0741;
167.7000;0.1530;-0.0765;
168.0000;0.1547;-0.0717;
168.3000;0.1522;-0.0812;
168.6000;0.1555;-0.0741;
168.9000;0.1530;-0.0812;
169.2000;0.1538;-0.0812;
169.5000;0.1530;-0.0836;
169.8000;0.1555;-0.0812;
170.1000;0.1530;-0.0884;
170.4000;0.1547;-0.0884;
170.7000;0.1538;-0.0956;
171.0000;0.1538;-0.0932;
171.3000;0.1538;-0.0932;
171.6000;0.1595;-0.0789;
171.9000;0.1555;-0.1051;
172.2000;0.1538;-0.1099;
172.5000;0.1530;-0.1099;
172.8000;0.1595;-0.0789;
173.1000;0.1555;-0.0884;
173.4000;0.1587;-0.0765;
173.7000;0.1433;-0.1123;
174.0000;0.1555;-0.0789;
174.3000;0.1547;-0.0765;
174.6000;0.1555;-0.0812;
174.9000;0.1604;-0.0717;
175.2000;0.1498;-0.0980;
175.5000;0.1636;-0.0693;
175.8000;0.1547;-0.0932;
176.1000;0.1685;-0.0526;
176.4000;0.1555;-0.0908;
176.7000;0.1547;-0.1004;
177.0000;0.1661;-0.0669;
177.3000;0.1490;-0.1075;
177.6000;0.1661;-0.0574;
177.9000;0.1547;-0.0908;
178.2000;0.1538;-0.0956;
178.5000;0.1416;-0.1243;
178.8000;0.1538;-0.0956;
179.1000;0.1490;-0.1051;
179.4000;0.1530;-0.0980;
179.7000;0.1522;-0.1099;
180.0000;0.1538;-0.1147;
180.3000;0.1538;-0.1075;
180.6000;0.1563;-0.1028;
180.9000;0.1547;-0.1051;
181.2000;0.1530;-0.1028;
181.5000;0.1538;-0.0932;
181.8000;0.1506;-0.0980;
182.1000;0.1530;-0.0932;
182.4000;0.1547;-0.0836;
182.7000;0.1563;-0.0812;
183.0000;0.1538;-0.0884;
183.3000;0.1538;-0.0908;
183.6000;0.1587;-0.0765;
183.9000;0.1547;-0.0908;
184.2000;0.1538;-0.0932;
184.5000;0.1538;-0.0884;
184.8000;0.1555;-0.0789;
185.1000;0.1530;-0.0908;
185.4000;0.1530;-0.0932;
185.7000;0.1522;-0.0908;
186.0000;0.1563;-0.0812;
186.3000;0.1530;-0.0860;
186.6000;0.1538;-0.0932;
186.9000;0.1563;-0.0884;
187.2000;0.1530;-0.0956;
187.5000;0.1547;-0.0860;
187.8000;0.1538;-0.0836;
188.1000;0.1547;-0.0741;
188.4000;0.1506;-0.0765;
188.7000;0.1620;-0.0526;
189.0000;0.1547;-0.0741;
189.3000;0.1538;-0.0789;
189.6000;0.1538;-0.0765;
189.9000;0.1555;-0.0717;
190.2000;0.1547;-0.0789;
190.5000;0.1530;-0.0860;
190.8000;0.1547;-0.0860;
191.1000;0.1555;-0.0812;
191.4000;0.1530;-0.0908;
191.7000;0.1522;-0.1028;
192.0000;0.1538;-0.0932;
192.3000;0.1555;-0.0908;
192.6000;0.1547;-0.0860;
192.9000;0.1547;-0.0836;
193.2000;0.1547;-0.0932;
193.5000;0.1530;-0.0932;
193.8000;0.1555;-0.0860;
194.1000;0.1555;-0.0836;
194.4000;0.1604;-0.0645;
194.7000;0.1563;-0.0741;
195.0000;0.1547;-0.0789;
195.3000;0.1538;-0.0836;
195.6000;0.1538;-0.0836;
195.9000;0.1538;-0.0860;
196.2000;0.1555;-0.0860;
196.5000;0.1612;-0.0717;
196.8000;0.1547;-0.0980;
197.1000;0.1538;-0.1004;
197.4000;0.1538;-0.0932;
197.7000;0.1595;-0.0741;
198.0000;0.1587;-0.0693;
198.3000;0.1555;-0.0812;
198.6000;0.1612;-0.0669;
198.9000;0.1538;-0.0765;
199.2000;0.1465;-0.0980;
199.5000;0.1579;-0.0789;
199.8000;0.1555;-0.0932;
200.1000;0.1571;-0.0908;
200.4000;0.1555;-0.0932;
200.7000;0.1522;-0.1051;
201.0000;0.1530;-0.1051;
201.3000;0.1530;-0.1004;
201.6000;0.1571;-0.0956;
201.9000;0.1547;-0.1004;
202.2000;0.1530;-0.0980;
202.5000;0.1522;-0.0956;
202.8000;0.1579;-0.0789;
203.1000;0.1571;-0.0836;
203.4000;0.1538;-0.0860;
203.7000;0.1555;-0.0884;
204.0000;0.1555;-0.0860;
204.3000;0.1538;-0.0884;
204.6000;0.1555;-0.0836;
204.9000;0.1571;-0.0765;
205.2000;0.1538;-0.0836;
205.5000;0.1555;-0.0812;
205.8000;0.1547;-0.0860;
206.1000;0.1547;-0.0860;
206.4000;0.1498;-0.0980;
206.7000;0.1555;-0.0884;
207.0000;0.1652;-0.0741;
207.3000;0.1457;-0.1219;
207.6000;0.1547;-0.0956;
207.9000;0.1538;-0.1051;
208.2000;0.1506;-0.1051;
208.5000;0.1547;-0.0884;
208.8000;0.1538;-0.0836;
209.1000;0.1620;-0.0669;
209.4000;0.1579;-0.0789;
209.7000;0.1538;-0.0836;
210.0000;0.1538;-0.0908;
210.3000;0.1661;-0.0550;
210.6000;0.1547;-0.0836;
210.9000;0.1522;-0.0932;
211.2000;0.1481;-0.1051;
211.5000;0.1555;-0.0932;
211.8000;0.1547;-0.0932;
212.1000;0.1530;-0.0908;
212.4000;0.1522;-0.0980;
212.7000;0.1538;-0.0884;
213.0000;0.1547;-0.0884;
213.3000;0.1530;-0.0956;
213.6000;0.1530;-0.0956;
213.9000;0.1522;-0.0932;
214.2000;0.1473;-0.1004;
214.5000;0.1563;-0.0717;
214.8000;0.1538;-0.0765;
215.1000;0.1530;-0.0860;
215.4000;0.1514;-0.0980;
215.7000;0.1571;-0.0908;
216.0000;0.1620;-0.0765;
216.3000;0.1530;-0.1099;
216.6000;0.1530;-0.1171;
216.9000;0.1555;-0.1171;
217.2000;0.1530;-0.1195;
217.5000;0.1449;-0.1362;
217.8000;0.1522;-0.1147;
218.1000;0.1538;-0.1123;
218.4000;0.1522;-0.1195;
218.7000;0.1538;-0.1123;
219.0000;0.1571;-0.1099;
219.3000;0.1530;-0.1075;
219.6000;0.1612;-0.0908;
219.9000;0.1547;-0.1099;
220.2000;0.1530;-0.1171;
220.5000;0.1530;-0.1219;
220.8000;0.1538;-0.1195;
221.1000;0.1547;-0.1075;
221.4000;0.1612;-0.0812;
221.7000;0.1538;-0.0980;
222.0000;0.1547;-0.0956;
222.3000;0.1555;-0.0908;
222.6000;0.1571;-0.0932;
222.9000;0.1530;-0.1004;
223.2000;0.1547;-0.0908;
223.5000;0.1522;-0.0956;
223.8000;0.1555;-0.0884;
224.1000;0.1522;-0.0860;
224.4000;0.1563;-0.0836;
224.7000;0.1547;-0.0908;
225.0000;0.1530;-0.0908;
225.3000;0.1563;-0.0765;
225.6000;0.1571;-0.0693;
225.9000;0.1547;-0.0812;
226.2000;0.1530;-0.0812;
226.5000;0.1530;-0.0812;
226.8000;0.1555;-0.0860;
227.1000;0.1506;-0.1028;
227.4000;0.1538;-0.0860;
227.7000;0.1538;-0.0884;
228.0000;0.1547;-0.0860;
228.3000;0.1547;-0.0884;
228.6000;0.1555;-0.0860;
228.9000;0.1514;-0.0932;
229.2000;0.1555;-0.0908;
229.5000;0.1563;-0.0932;
229.8000;0.1547;-0.1051;
230.1000;0.1538;-0.1123;
230.4000;0.1563;-0.1075;
230.7000;0.1547;-0.1171;
231.0000;0.1555;-0.0980;
231.3000;0.1571;-0.0908;
231.6000;0.1530;-0.1075;
231.9000;0.1538;-0.1028;
232.2000;0.1547;-0.1075;
232.5000;0.1538;-0.1123;
232.8000;0.1555;-0.1051;
233.1000;0.1538;-0.1075;
233.4000;0.1530;-0.1171;
233.7000;0.1530;-0.1195;
234.0000;0.1579;-0.0980;
234.3000;0.1604;-0.0860;
234.6000;0.1522;-0.1051;
234.9000;0.1579;-0.0956;
235.2000;0.1538;-0.1004;
235.5000;0.1522;-0.1099;
235.8000;0.1538;-0.0932;
236.1000;0.1522;-0.1028;
236.4000;0.1530;-0.0956;
236.7000;0.1538;-0.1028;
237.0000;0.1555;-0.0956;
237.3000;0.1547;-0.0908;
237.6000;0.1538;-0.0860;
237.9000;0.1563;-0.0789;
238.2000;0.1547;-0.0812;
238.5000;0.1530;-0.0860;
238.8000;0.1628;-0.0693;
239.1000;0.1547;-0.0932;
239.4000;0.1473;-0.1075;
239.7000;0.1441;-0.1147;
240.0000;0.1563;-0.0884;
240.3000;0.1604;-0.0765;
240.6000;0.1506;-0.0908;
240.9000;0.1530;-0.0932;
241.2000;0.1506;-0.0956;
241.5000;0.1555;-0.0789;
241.8000;0.1612;-0.0812;
242.1000;0.1506;-0.1028;
242.4000;0.1555;-0.0860;
242.7000;0.1538;-0.0836;
243.0000;0.1547;-0.0836;
243.3000;0.1555;-0.0717;
243.6000;0.1538;-0.0741;
243.9000;0.1579;-0.0621;
244.2000;0.1514;-0.0789;
244.5000;0.1538;-0.0765;
244.8000;0.1547;-0.0741;
245.1000;0.1636;-0.0454;
245.4000;0.1547;-0.0693;
245.7000;0.1547;-0.0717;
246.0000;0.1555;-0.0765;
246.3000;0.1538;-0.0860;
246.6000;0.1538;-0.0860;
246.9000;0.1555;-0.0812;
247.2000;0.1538;-0.0741;
247.5000;0.1555;-0.0669;
247.8000;0.1522;-0.0717;
248.1000;0.1547;-0.0645;
248.4000;0.1538;-0.0717;
248.7000;0.1547;-0.0693;
249.0000;0.1530;-0.0741;
249.3000;0.1547;-0.0669;
249.6000;0.1538;-0.0693;
249.9000;0.1522;-0.0741;
250.2000;0.1547;-0.0765;
250.5000;0.1538;-0.0765;
250.8000;0.1555;-0.0717;
251.1000;0.1555;-0.0693;
251.4000;0.1538;-0.0741;
251.7000;0.1571;-0.0621;
252.0000;0.1555;-0.0574;
252.3000;0.1522;-0.0693;
252.6000;0.1547;-0.0693;
252.9000;0.1522;-0.0812;
253.2000;0.1538;-0.0860;
253.5000;0.1538;-0.0884;
253.8000;0.1563;-0.0836;
254.1000;0.1555;-0.0884;
254.4000;0.1538;-0.0884;
254.7000;0.1457;-0.1099;
255.0000;0.1563;-0.0956;
255.3000;0.1538;-0.1051;
255.6000;0.1514;-0.0980;
255.9000;0.1563;-0.0860;
256.2000;0.1530;-0.0956;
256.5000;0.1547;-0.0980;
256.8000;0.1579;-0.0836;
257.1000;0.1563;-0.0812;
257.4000;0.1579;-0.0836;
257.7000;0.1538;-0.0908;
258.0000;0.1498;-0.0956;
258.3000;0.1547;-0.0836;
258.6000;0.1555;-0.0812;
258.9000;0.1538;-0.0860;
259.2000;0.1522;-0.0908;
259.5000;0.1514;-0.1004;
259.8000;0.1530;-0.0980;
260.1000;0.1547;-0.0956;
260.4000;0.1530;-0.1028;
260.7000;0.1481;-0.1075;
261.0000;0.1555;-0.0765;
261.3000;0.1563;-0.0812;
261.6000;0.1571;-0.0812;
261.9000;0.1628;-0.0669;
262.2000;0.1514;-0.0836;
262.5000;0.1506;-0.0908;
262.8000;0.1555;-0.0741;
263.1000;0.1555;-0.0669;
263.4000;0.1441;-0.0860;
263.7000;0.1425;-0.0836;
264.0000;0.1538;-0.0574;
264.3000;0.1538;-0.0574;
264.6000;0.1604;-0.0430;
264.9000;0.1522;-0.0645;
265.2000;0.1530;-0.0669;
265.5000;0.1506;-0.0741;
265.8000;0.1530;-0.0669;
266.1000;0.1538;-0.0717;
266.4000;0.1514;-0.0789;
266.7000;0.1571;-0.0597;
267.0000;0.1677;-0.0287;
267.3000;0.1530;-0.0597;
267.6000;0.1465;-0.0789;
267.9000;0.1555;-0.0621;
268.2000;0.1514;-0.0669;
268.5000;0.1547;-0.0621;
268.8000;0.1555;-0.0526;
269.1000;0.1547;-0.0669;
269.4000;0.1530;-0.0717;
269.7000;0.1595;-0.0597;
270.0000;0.1547;-0.0621;
270.3000;0.1465;-0.0884;
270.6000;0.1538;-0.0693;
270.9000;0.1547;-0.0693;
271.2000;0.1498;-0.0765;
271.5000;0.1530;-0.0765;
271.8000;0.1555;-0.0693;
272.1000;0.1538;-0.0765;
272.4000;0.1547;-0.0836;
272.7000;0.1563;-0.0717;
273.0000;0.1538;-0.0836;
273.3000;0.1522;-0.0860;
273.6000;0.1522;-0.0789;
273.9000;0.1555;-0.0741;
274.2000;0.1563;-0.0860;
274.5000;0.1538;-0.0956;
274.8000;0.1530;-0.0860;
275.1000;0.1547;-0.0812;
275.4000;0.1563;-0.0741;
275.7000;0.1530;-0.0836;
276.0000;0.1530;-0.0741;
276.3000;0.1538;-0.0741;
276.6000;0.1555;-0.0812;
276.9000;0.1555;-0.0836;
277.2000;0.1538;-0.0789;
277.5000;0.1522;-0.0812;
277.8000;0.1644;-0.0430;
278.1000;0.1538;-0.0765;
278.4000;0.1538;-0.0812;
278.7000;0.1530;-0.0789;
279.0000;0.1555;-0.0669;
279.3000;0.1555;-0.0717;
279.6000;0.1522;-0.0765;
279.9000;0.1571;-0.0621;
280.2000;0.1555;-0.0717;
280.5000;0.1530;-0.0908;
280.8000;0.1514;-0.1028;
281.1000;0.1522;-0.1147;
281.4000;0.1547;-0.1099;
281.7000;0.1547;-0.1099;
282.0000;0.1547;-0.1051;
282.3000;0.1563;-0.1028;
282.6000;0.1555;-0.1028;
282.9000;0.1538;-0.1028;
283.2000;0.1538;-0.1123;
283.5000;0.1522;-0.1123;
283.8000;0.1522;-0.1075;
284.1000;0.1555;-0.0980;
284.4000;0.1530;-0.1075;
284.7000;0.1547;-0.1075;
285.0000;0.1547;-0.1004;
285.3000;0.1563;-0.1004;
285.6000;0.1571;-0.1051;
285.9000;0.1538;-0.1123;
286.2000;0.1530;-0.1099;
286.5000;0.1547;-0.0956;
286.8000;0.1522;-0.0884;
287.1000;0.1571;-0.0765;
287.4000;0.1538;-0.0741;
287.7000;0.1498;-0.0836;
288.0000;0.1538;-0.0789;
288.3000;0.1538;-0.0789;
288.6000;0.1538;-0.0812;
288.9000;0.1514;-0.0908;
289.2000;0.1563;-0.0836;
289.5000;0.1416;-0.1195;
289.8000;0.1433;-0.1171;
290.1000;0.1547;-0.0860;
290.4000;0.1547;-0.0932;
290.7000;0.1538;-0.0932;
291.0000;0.1530;-0.0956;
291.3000;0.1522;-0.0860;
291.6000;0.1538;-0.0836;
291.9000;0.1530;-0.0908;
292.2000;0.1579;-0.0717;
292.5000;0.1538;-0.0812;
292.8000;0.1547;-0.0812;
293.1000;0.1522;-0.0860;
293.4000;0.1465;-0.0980;
293.7000;0.1522;-0.0860;
294.0000;0.1563;-0.0765;
294.3000;0.1604;-0.0741;
294.6000;0.1538;-0.0908;
294.9000;0.1563;-0.0789;
295.2000;0.1530;-0.0956;
295.5000;0.1538;-0.1028;
295.8000;0.1579;-0.0980;
296.1000;0.1538;-0.0980;
296.4000;0.1571;-0.0860;
296.7000;0.1425;-0.1290;
297.0000;0.1547;-0.1051;
297.3000;0.1547;-0.1099;
297.6000;0.1425;-0.1410;
297.9000;0.1538;-0.1099;
298.2000;0.1538;-0.1099;
298.5000;0.1563;-0.1075;
298.8000;0.1530;-0.1099;
299.1000;0.1538;-0.1219;
299.4000;0.1547;-0.1243;
299.7000;0.1530;-0.1266;
300.0000;0.1522;-0.1219;
300.3000;0.1530;-0.1219;
300.6000;0.1538;-0.1171;
300.9000;0.1620;-0.0956;
301.2000;0.1547;-0.1099;
301.5000;0.1547;-0.1075;
301.8000;0.1547;-0.1004;
302.1000;0.1530;-0.0932;
302.4000;0.1530;-0.0884;
302.7000;0.1555;-0.0908;
303.0000;0.1538;-0.0956;
303.3000;0.1538;-0.1028;
303.6000;0.1555;-0.1004;
303.9000;0.1514;-0.1075;
304.2000;0.1514;-0.1123;
304.5000;0.1555;-0.1004;
304.8000;0.1555;-0.1004;
305.1000;0.1547;-0.1004;
305.4000;0.1547;-0.0980;
305.7000;0.1538;-0.0980;
306.0000;0.1547;-0.1051;
306.3000;0.1555;-0.1051;
306.6000;0.1522;-0.1123;
306.9000;0.1538;-0.1028;
307.2000;0.1538;-0.0932;
307.5000;0.1547;-0.0932;
307.8000;0.1538;-0.0980;
308.1000;0.1538;-0.1028;
308.4000;0.1506;-0.1123;
308.7000;0.1538;-0.1028;
309.0000;0.1547;-0.1028;
309.3000;0.1530;-0.1051;
309.6000;0.1530;-0.1028;
309.9000;0.1538;-0.0956;
310.2000;0.1506;-0.1099;
310.5000;0.1449;-0.1147;
310.8000;0.1538;-0.1004;
311.1000;0.1506;-0.1051;
311.4000;0.1530;-0.0956;
311.7000;0.1563;-0.0908;
312.0000;0.1595;-0.0765;
312.3000;0.1547;-0.0956;
312.6000;0.1547;-0.0932;
312.9000;0.1636;-0.0765;
313.2000;0.1530;-0.1028;
313.5000;0.1547;-0.1028;
313.8000;0.1481;-0.1099;
314.1000;0.1555;-0.0980;
314.4000;0.1530;-0.0932;
314.7000;0.1506;-0.0980;
315.0000;0.1587;-0.0741;
315.3000;0.1547;-0.0908;
315.6000;0.1595;-0.0812;
315.9000;0.1547;-0.0956;
316.2000;0.1522;-0.1004;
316.5000;0.1669;-0.0669;
316.8000;0.1457;-0.1266;
317.1000;0.1587;-0.0956;
317.4000;0.1579;-0.1004;
317.7000;0.1530;-0.1171;
318.0000;0.1538;-0.1099;
318.3000;0.1538;-0.1123;
318.6000;0.1530;-0.1099;
318.9000;0.1555;-0.1123;
319.2000;0.1433;-0.1458;
319.5000;0.1563;-0.1099;
319.8000;0.1538;-0.1123;
320.1000;0.1538;-0.1099;
320.4000;0.1555;-0.1028;
320.7000;0.1530;-0.1099;
321.0000;0.1530;-0.1099;
321.3000;0.1547;-0.1099;
321.6000;0.1555;-0.1123;
321.9000;0.1538;-0.1099;
322.2000;0.1538;-0.1075;
322.5000;0.1563;-0.0956;
322.8000;0.1538;-0.1004;
323.1000;0.1571;-0.1075;
323.4000;0.1563;-0.1075;
323.7000;0.1547;-0.1195;
324.0000;0.1473;-0.1338;
324.3000;0.1579;-0.1075;
324.6000;0.1530;-0.1219;
324.9000;0.1563;-0.1219;
325.2000;0.1555;-0.1195;
325.5000;0.1555;-0.1123;
325.8000;0.1538;-0.1075;
326.1000;0.1538;-0.1123;
326.4000;0.1547;-0.1099;
326.7000;0.1473;-0.1243;
327.0000;0.1538;-0.1123;
327.3000;0.1530;-0.1123;
327.6000;0.1530;-0.1147;
327.9000;0.1628;-0.0860;
328.2000;0.1384;-0.1362;
328.5000;0.1506;-0.0956;
328.8000;0.1457;-0.1147;
329.1000;0.1538;-0.0980;
329.4000;0.1530;-0.0956;
329.7000;0.1538;-0.1051;
330.0000;0.1555;-0.0980;
330.3000;0.1530;-0.1028;
330.6000;0.1571;-0.0980;
330.9000;0.1547;-0.1028;
331.2000;0.1506;-0.1123;
331.5000;0.1490;-0.1219;
331.8000;0.1538;-0.1075;
332.1000;0.1547;-0.1099;
332.4000;0.1587;-0.0932;
332.7000;0.1530;-0.1028;
333.0000;0.1538;-0.1004;
333.3000;0.1547;-0.0980;
333.6000;0.1571;-0.0932;
333.9000;0.1547;-0.1028;
334.2000;0.1473;-0.1219;
334.5000;0.1604;-0.0932;
334.8000;0.1490;-0.1314;
335.1000;0.1538;-0.1195;
335.4000;0.1579;-0.1051;
335.7000;0.1571;-0.1099;
336.0000;0.1604;-0.1147;
336.3000;0.1538;-0.1219;
336.6000;0.1522;-0.1290;
336.9000;0.1522;-0.1290;
337.2000;0.1547;-0.1219;
337.5000;0.1538;-0.1290;
337.8000;0.1595;-0.1243;
338.1000;0.1514;-0.1362;
338.4000;0.1530;-0.1386;
338.7000;0.1530;-0.1434;
339.0000;0.1538;-0.1386;
339.3000;0.1538;-0.1338;
339.6000;0.1433;-0.1673;
339.9000;0.1555;-0.1290;
340.2000;0.1555;-0.1099;
340.5000;0.1555;-0.0980;
340.8000;0.1530;-0.1051;
341.1000;0.1555;-0.0932;
341.4000;0.1547;-0.1004;
341.7000;0.1547;-0.0980;
342.0000;0.1571;-0.0956;
342.3000;0.1563;-0.0980;
342.6000;0.1579;-0.0980;
342.9000;0.1538;-0.1099;
343.2000;0.1538;-0.1075;
343.5000;0.1530;-0.1099;
343.8000;0.1547;-0.1051;
344.1000;0.1490;-0.1338;
344.4000;0.1538;-0.1195;
344.7000;0.1547;-0.1171;
345.0000;0.1555;-0.1195;
345.3000;0.1498;-0.1219;
345.6000;0.1498;-0.1243;
345.9000;0.1538;-0.1195;
346.2000;0.1563;-0.1123;
346.5000;0.1530;-0.1266;
346.8000;0.1530;-0.1171;
347.1000;0.1547;-0.1075;
347.4000;0.1522;-0.1195;
347.7000;0.1587;-0.0980;
348.0000;0.1587;-0.0980;
348.3000;0.1538;-0.1123;
348.6000;0.1538;-0.1123;
348.9000;0.1587;-0.0956;
349.2000;0.1563;-0.1004;
349.5000;0.1530;-0.1051;
349.8000;0.1538;-0.1051;
350.1000;0.1547;-0.1028;
350.4000;0.1538;-0.1004;
350.7000;0.1490;-0.1147;
351.0000;0.1514;-0.1171;
351.3000;0.1514;-0.1290;
351.6000;0.1514;-0.1290;
351.9000;0.1530;-0.1147;
352.2000;0.1555;-0.1051;
352.5000;0.1498;-0.1147;
352.8000;0.1547;-0.1028;
353.1000;0.1547;-0.0980;
353.4000;0.1555;-0.1004;
353.7000;0.1563;-0.1075;
354.0000;0.1571;-0.1123;
354.3000;0.1433;-0.1458;
354.6000;0.1506;-0.1290;
354.9000;0.1555;-0.1195;
355.2000;0.1563;-0.1147;
355.5000;0.1547;-0.1123;
355.8000;0.1555;-0.1099;
356.1000;0.1538;-0.1123;
356.4000;0.1595;-0.0956;
356.7000;0.1530;-0.1028;
357.0000;0.1563;-0.0932;
357.3000;0.1547;-0.1028;
357.6000;0.1538;-0.1051;
357.9000;0.1555;-0.1051;
358.2000;0.1473;-0.1243;
358.5000;0.1563;-0.1123;
358.8000;0.1530;-0.1147;
359.1000;0.1473;-0.1338;
359.4000;0.1530;-0.1195;
359.7000;0.1620;-0.0956;
360.0000;0.1555;-0.1123;
360.3000;0.1555;-0.1123;
360.6000;0.1514;-0.1195;
360.9000;0.1425;-0.1410;
361.2000;0.1555;-0.1099;
361.5000;0.1587;-0.1028;
361.8000;0.1555;-0.1147;
362.1000;0.1563;-0.1171;
362.4000;0.1514;-0.1243;
362.7000;0.1530;-0.1195;
363.0000;0.1530;-0.1266;
363.3000;0.1530;-0.1195;
363.6000;0.1547;-0.1195;
363.9000;0.1547;-0.1123;
364.2000;0.1538;-0.1123;
364.5000;0.1538;-0.1195;
364.8000;0.1530;-0.1171;
365.1000;0.1579;-0.1028;
365.4000;0.1506;-0.1099;
365.7000;0.1522;-0.1051;
366.0000;0.1604;-0.0836;
366.3000;0.1547;-0.1004;
366.6000;0.1555;-0.1004;
366.9000;0.1538;-0.1028;
367.2000;0.1555;-0.0980;
367.5000;0.1514;-0.0980;
367.8000;0.1563;-0.0860;
368.1000;0.1547;-0.0812;
368.4000;0.1571;-0.0812;
368.7000;0.1522;-0.1004;
369.0000;0.1530;-0.0980;
369.3000;0.1595;-0.0908;
369.6000;0.1514;-0.0980;
369.9000;0.1547;-0.0932;
370.2000;0.1473;-0.1147;
370.5000;0.1530;-0.1028;
370.8000;0.1555;-0.0980;
371.1000;0.1538;-0.0956;
371.4000;0.1547;-0.0908;
371.7000;0.1514;-0.0860;
372.0000;0.1530;-0.0789;
372.3000;0.1530;-0.0860;
372.6000;0.1530;-0.0765;
372.9000;0.1555;-0.0693;
373.2000;0.1514;-0.0836;
373.5000;0.1563;-0.0836;
373.8000;0.1612;-0.0645;
374.1000;0.1547;-0.0836;
374.4000;0.1547;-0.0932;
374.7000;0.1522;-0.1028;
375.0000;0.1547;-0.0860;
375.3000;0.1530;-0.0908;
375.6000;0.1563;-0.0741;
375.9000;0.1547;-0.0741;
376.2000;0.1530;-0.0812;
376.5000;0.1547;-0.0884;
376.8000;0.1547;-0.0860;
377.1000;0.1563;-0.0860;
377.4000;0.1538;-0.0884;
377.7000;0.1530;-0.0956;
378.0000;0.1563;-0.0860;
378.3000;0.1587;-0.0884;
378.6000;0.1563;-0.0908;
378.9000;0.1547;-0.0980;
379.2000;0.1538;-0.0980;
379.5000;0.1555;-0.0932;
379.8000;0.1538;-0.1004;
380.1000;0.1538;-0.1075;
380.4000;0.1538;-0.1147;
380.7000;0.1530;-0.1004;
381.0000;0.1465;-0.1147;
381.3000;0.1481;-0.1004;
381.6000;0.1514;-0.0980;
381.9000;0.1547;-0.0884;
382.2000;0.1530;-0.0932;
382.5000;0.1506;-0.1051;
382.8000;0.1530;-0.1004;
383.1000;0.1538;-0.0980;
383.4000;0.1547;-0.0980;
383.7000;0.1530;-0.1028;
384.0000;0.1530;-0.0932;
384.3000;0.1538;-0.0956;
384.6000;0.1547;-0.0980;
384.9000;0.1604;-0.0884;
385.2000;0.1530;-0.1028;
385.5000;0.1547;-0.0932;
385.8000;0.1530;-0.0956;
386.1000;0.1547;-0.1028;
386.4000;0.1530;-0.1004;
386.7000;0.1530;-0.1004;
387.0000;0.1579;-0.0860;
387.3000;0.1563;-0.0908;
387.6000;0.1547;-0.0980;
387.9000;0.1555;-0.0932;
388.2000;0.1555;-0.0884;
388.5000;0.1530;-0.0884;
388.8000;0.1538;-0.0836;
389.1000;0.1547;-0.0765;
389.4000;0.1538;-0.0812;
389.7000;0.1555;-0.0789;
390.0000;0.1522;-0.0836;
390.3000;0.1555;-0.0812;
390.6000;0.1595;-0.0717;
390.9000;0.1547;-0.0812;
391.2000;0.1530;-0.0836;
391.5000;0.1530;-0.0860;
391.8000;0.1636;-0.0597;
392.1000;0.1547;-0.0812;
392.4000;0.1587;-0.0717;
392.7000;0.1547;-0.0860;
393.0000;0.1563;-0.0812;
393.3000;0.1538;-0.0812;
393.6000;0.1547;-0.0836;
393.9000;0.1555;-0.0836;
394.2000;0.1514;-0.0932;
394.5000;0.1530;-0.0908;
394.8000;0.1514;-0.1051;
395.1000;0.1547;-0.0980;
395.4000;0.1522;-0.1075;
395.7000;0.1587;-0.0980;
396.0000;0.1522;-0.1075;
396.3000;0.1530;-0.1051;
396.6000;0.1530;-0.1099;
396.9000;0.1538;-0.1004;
397.2000;0.1563;-0.0884;
397.5000;0.1522;-0.0956;
397.8000;0.1612;-0.0789;
398.1000;0.1555;-0.1028;
398.4000;0.1547;-0.1004;
398.7000;0.1465;-0.1266;
399.0000;0.1522;-0.1075;
399.3000;0.1547;-0.1028;
399.6000;0.1522;-0.1075;
399.9000;0.1547;-0.1099;
400.2000;0.1530;-0.1147;
400.5000;0.1530;-0.1123;
400.8000;0.1547;-0.1099;
401.1000;0.1514;-0.1195;
401.4000;0.1538;-0.1123;
401.7000;0.1547;-0.1123;
402.0000;0.1530;-0.1147;
402.3000;0.1628;-0.0860;
402.6000;0.1530;-0.1051;
402.9000;0.1547;-0.0932;
403.2000;0.1530;-0.0884;
403.5000;0.1661;-0.0526;
403.8000;0.1547;-0.0789;
404.1000;0.1563;-0.0812;
404.4000;0.1595;-0.0669;
404.7000;0.1555;-0.0717;
405.0000;0.1547;-0.0884;
405.3000;0.1530;-0.0980;
405.6000;0.1514;-0.1004;
405.9000;0.1506;-0.0932;
406.2000;0.1538;-0.0860;
406.5000;0.1530;-0.0860;
406.8000;0.1538;-0.0908;
407.1000;0.1547;-0.0980;
407.4000;0.1530;-0.0956;
407.7000;0.1538;-0.0932;
408.0000;0.1538;-0.0980;
408.3000;0.1547;-0.0908;
408.6000;0.1555;-0.0860;
408.9000;0.1547;-0.0789;
409.2000;0.1538;-0.0789;
409.5000;0.1530;-0.0812;
409.8000;0.1547;-0.0717;
410.1000;0.1538;-0.0812;
410.4000;0.1628;-0.0669;
410.7000;0.1547;-0.0908;
411.0000;0.1538;-0.0908;
411.3000;0.1530;-0.0884;
411.6000;0.1522;-0.0812;
411.9000;0.1555;-0.0765;
412.2000;0.1547;-0.0789;
412.5000;0.1604;-0.0693;
412.8000;0.1555;-0.0836;
413.1000;0.1538;-0.0860;
413.4000;0.1425;-0.1147;
413.7000;0.1547;-0.0812;
414.0000;0.1457;-0.1099;
414.3000;0.1547;-0.0860;
414.6000;0.1547;-0.0836;
414.9000;0.1555;-0.0765;
415.2000;0.1530;-0.0789;
415.5000;0.1514;-0.0860;
415.8000;0.1555;-0.0812;
416.1000;0.1571;-0.0765;
416.4000;0.1555;-0.0812;
416.7000;0.1555;-0.0765;
417.0000;0.1555;-0.0669;
417.3000;0.1555;-0.0669;
417.6000;0.1555;-0.0717;
417.9000;0.1579;-0.0717;
418.2000;0.1547;-0.0765;
418.5000;0.1555;-0.0717;
418.8000;0.1530;-0.0765;
419.1000;0.1522;-0.0789;
419.4000;0.1547;-0.0789;
419.7000;0.1595;-0.0693;
420.0000;0.1530;-0.0884;
420.3000;0.1538;-0.0860;
420.6000;0.1514;-0.0884;
420.9000;0.1579;-0.0645;
421.2000;0.1538;-0.0717;
421.5000;0.1547;-0.0860;
421.8000;0.1530;-0.0884;
422.1000;0.1555;-0.0860;
422.4000;0.1547;-0.0908;
422.7000;0.1522;-0.0932;
423.0000;0.1547;-0.0812;
423.3000;0.1547;-0.0908;
423.6000;0.1563;-0.0812;
423.9000;0.1530;-0.0860;
424.2000;0.1538;-0.0884;
424.5000;0.1547;-0.0884;
424.8000;0.1547;-0.0884;
425.1000;0.1457;-0.1123;
425.4000;0.1563;-0.0860;
425.7000;0.1530;-0.0884;
426.0000;0.1547;-0.0812;
426.3000;0.1563;-0.0717;
426.6000;0.1522;-0.0789;
426.9000;0.1538;-0.0789;
427.2000;0.1547;-0.0884;
427.5000;0.1506;-0.0932;
427.8000;0.1547;-0.0812;
428.1000;0.1522;-0.0884;
428.4000;0.1579;-0.0717;
428.7000;0.1530;-0.0908;
429.0000;0.1555;-0.0812;
429.3000;0.1465;-0.0884;
429.6000;0.1563;-0.0669;
429.9000;0.1547;-0.0765;
430.2000;0.1538;-0.0693;
430.5000;0.1530;-0.0693;
430.8000;0.1530;-0.0765;
431.1000;0.1571;-0.0621;
431.4000;0.1555;-0.0812;
431.7000;0.1530;-0.0956;
432.0000;0.1661;-0.0621;
432.3000;0.1547;-0.0836;
432.6000;0.1555;-0.0789;
432.9000;0.1530;-0.0908;
433.2000;0.1530;-0.0884;
433.5000;0.1555;-0.0765;
433.8000;0.1620;-0.0645;
434.1000;0.1530;-0.0812;
434.4000;0.1538;-0.0789;
434.7000;0.1522;-0.0765;
435.0000;0.1620;-0.0430;
435.3000;0.1538;-0.0621;
435.6000;0.1587;-0.0454;
435.9000;0.1571;-0.0502;
436.2000;0.1547;-0.0550;
436.5000;0.1547;-0.0574;
436.8000;0.1547;-0.0597;
437.1000;0.1547;-0.0621;
437.4000;0.1538;-0.0693;
437.7000;0.1530;-0.0669;
438.0000;0.1506;-0.0812;
438.3000;0.1547;-0.0765;
438.6000;0.1530;-0.0765;
438.9000;0.1514;-0.0908;
439.2000;0.1547;-0.0812;
439.5000;0.1547;-0.0860;
439.8000;0.1441;-0.1099;
440.1000;0.1522;-0.0789;
440.4000;0.1514;-0.0884;
440.7000;0.1547;-0.0789;
441.0000;0.1514;-0.0932;
441.3000;0.1547;-0.0908;
441.6000;0.1538;-0.0836;
441.9000;0.1555;-0.0860;
442.2000;0.1465;-0.1147;
442.5000;0.1538;-0.0956;
442.8000;0.1563;-0.0860;
443.1000;0.1530;-0.1004;
443.4000;0.1628;-0.0741;
443.7000;0.1498;-0.1099;
444.0000;0.1538;-0.1051;
444.3000;0.1538;-0.1004;
444.6000;0.1530;-0.0980;
444.9000;0.1530;-0.0884;
445.2000;0.1644;-0.0574;
445.5000;0.1538;-0.0789;
445.8000;0.1538;-0.0884;
446.1000;0.1530;-0.0860;
446.4000;0.1538;-0.0765;
446.7000;0.1555;-0.0741;
447.0000;0.1571;-0.0693;
447.3000;0.1498;-0.0765;
447.6000;0.1538;-0.0717;
447.9000;0.1522;-0.0741;
448.2000;0.1547;-0.0741;
448.5000;0.1538;-0.0741;
448.8000;0.1563;-0.0836;
449.1000;0.1587;-0.0741;
449.4000;0.1506;-0.0932;
449.7000;0.1530;-0.0884;
450.0000;0.1538;-0.0836;
450.3000;0.1547;-0.0765;
450.6000;0.1538;-0.0812;
450.9000;0.1506;-0.0908;
451.2000;0.1530;-0.0860;
451.5000;0.1547;-0.0860;
451.8000;0.1465;-0.1075;
452.1000;0.1522;-0.1004;
452.4000;0.1547;-0.0956;
452.7000;0.1514;-0.0956;
453.0000;0.1538;-0.0932;
453.3000;0.1579;-0.0836;
453.6000;0.1465;-0.1171;
453.9000;0.1522;-0.1051;
454.2000;0.1669;-0.0645;
454.5000;0.1416;-0.1362;
454.8000;0.1522;-0.1147;
455.1000;0.1555;-0.1123;
455.4000;0.1538;-0.1075;
455.7000;0.1563;-0.0908;
456.0000;0.1571;-0.0789;
456.3000;0.1547;-0.0765;
456.6000;0.1604;-0.0574;
456.9000;0.1595;-0.0645;
457.2000;0.1538;-0.0789;
457.5000;0.1433;-0.1123;
457.8000;0.1563;-0.0741;
458.1000;0.1498;-0.0860;
458.4000;0.1538;-0.0741;
458.7000;0.1555;-0.0693;
459.0000;0.1555;-0.0812;
459.3000;0.1563;-0.0812;
459.6000;0.1579;-0.0717;
459.9000;0.1555;-0.0789;
460.2000;0.1571;-0.0789;
460.5000;0.1538;-0.0836;
460.8000;0.1538;-0.0860;
461.1000;0.1538;-0.0789;
461.4000;0.1538;-0.0860;
461.7000;0.1547;-0.0836;
462.0000;0.1530;-0.0860;
462.3000;0.1555;-0.0693;
462.6000;0.1530;-0.0860;
462.9000;0.1547;-0.0884;
463.2000;0.1530;-0.0908;
463.5000;0.1555;-0.0860;
463.8000;0.1555;-0.0812;
464.1000;0.1530;-0.0812;
464.4000;0.1571;-0.0717;
464.7000;0.1555;-0.0836;
465.0000;0.1547;-0.0812;
465.3000;0.1522;-0.0884;
465.6000;0.1547;-0.0836;
465.9000;0.1677;-0.0478;
466.2000;0.1563;-0.0765;
466.5000;0.1538;-0.0860;
466.8000;0.1481;-0.1028;
467.1000;0.1538;-0.0812;
467.4000;0.1547;-0.0884;
467.7000;0.1579;-0.0884;
468.0000;0.1538;-0.1004;
468.3000;0.1522;-0.1051;
468.6000;0.1563;-0.0884;
468.9000;0.1538;-0.0956;
469.2000;0.1465;-0.1147;
469.5000;0.1579;-0.0860;
469.8000;0.1547;-0.0932;
470.1000;0.1498;-0.1051;
470.4000;0.1571;-0.1004;
470.7000;0.1538;-0.1099;
471.0000;0.1522;-0.1123;
471.3000;0.1514;-0.1099;
471.6000;0.1522;-0.1004;
471.9000;0.1538;-0.0980;
472.2000;0.1522;-0.0980;
472.5000;0.1538;-0.0956;
472.8000;0.1538;-0.1004;
473.1000;0.1555;-0.0908;
473.4000;0.1538;-0.0836;
473.7000;0.1538;-0.0836;
474.0000;0.1514;-0.0908;
474.3000;0.1473;-0.1051;
474.6000;0.1620;-0.0741;
474.9000;0.1547;-0.1004;
475.2000;0.1555;-0.1028;
475.5000;0.1555;-0.1051;
475.8000;0.1563;-0.1004;
476.1000;0.1571;-0.1004;
476.4000;0.1547;-0.1051;
476.7000;0.1555;-0.1075;
477.0000;0.1514;-0.1075;
477.3000;0.1506;-0.1123;
477.6000;0.1481;-0.1147;
477.9000;0.1490;-0.1171;
478.2000;0.1555;-0.0980;
478.5000;0.1555;-0.1075;
478.8000;0.1579;-0.0980;
479.1000;0.1571;-0.0980;
479.4000;0.1555;-0.1004;
479.7000;0.1538;-0.0956;
480.0000;0.1538;-0.1004;
480.3000;0.1555;-0.0932;
480.6000;0.1579;-0.0908;
480.9000;0.1555;-0.0908;
481.2000;0.1547;-0.0932;
481.5000;0.1530;-0.0908;
481.8000;0.1530;-0.0908;
482.1000;0.1538;-0.0980;
482.4000;0.1628;-0.0765;
482.7000;0.1547;-0.0980;
483.0000;0.1636;-0.0645;
483.3000;0.1563;-0.0836;
483.6000;0.1530;-0.0860;
483.9000;0.1547;-0.0836;
484.2000;0.1530;-0.0860;
484.5000;0.1530;-0.0812;
484.8000;0.1538;-0.0860;
485.1000;0.1506;-0.0884;
485.4000;0.1571;-0.0765;
485.7000;0.1530;-0.0884;
486.0000;0.1522;-0.0812;
486.3000;0.1547;-0.0812;
486.6000;0.1547;-0.0765;
486.9000;0.1522;-0.0860;
487.2000;0.1514;-0.0860;
487.5000;0.1506;-0.0908;
487.8000;0.1490;-0.0932;
488.1000;0.1530;-0.0860;
488.4000;0.1522;-0.0932;
488.7000;0.1628;-0.0645;
489.0000;0.1547;-0.0884;
489.3000;0.1571;-0.0812;
489.6000;0.1538;-0.0860;
489.9000;0.1612;-0.0693;
490.2000;0.1530;-0.0884;
490.5000;0.1555;-0.0812;
490.8000;0.1612;-0.0621;
491.1000;0.1530;-0.0884;
491.4000;0.1530;-0.0860;
491.7000;0.1547;-0.0860;
492.0000;0.1547;-0.0932;
492.3000;0.1563;-0.0932;
492.6000;0.1547;-0.1123;
492.9000;0.1457;-0.1266;
493.2000;0.1473;-0.1219;
493.5000;0.1514;-0.1028;
493.8000;0.1555;-0.1004;
494.1000;0.1538;-0.0980;
494.4000;0.1555;-0.0860;
494.7000;0.1547;-0.0932;
495.0000;0.1530;-0.0932;
495.3000;0.1612;-0.0621;
495.6000;0.1530;-0.0741;
495.9000;0.1538;-0.0741;
496.2000;0.1538;-0.0741;
496.5000;0.1514;-0.0789;
496.8000;0.1555;-0.0717;
497.1000;0.1522;-0.0836;
497.4000;0.1506;-0.0884;
497.7000;0.1547;-0.0789;
498.0000;0.1514;-0.0908;
498.3000;0.1538;-0.0836;
498.6000;0.1555;-0.0765;
498.9000;0.1538;-0.0789;
499.2000;0.1522;-0.0765;
499.5000;0.1563;-0.0597;
499.8000;0.1579;-0.0597;
500.1000;0.1538;-0.0717;
500.4000;0.1563;-0.0717;
500.7000;0.1522;-0.0860;
501.0000;0.1530;-0.0980;
501.3000;0.1555;-0.0932;
501.6000;0.1547;-0.0908;
501.9000;0.1530;-0.0932;
502.2000;0.1538;-0.0884;
502.5000;0.1522;-0.0860;
502.8000;0.1522;-0.0836;
503.1000;0.1538;-0.0836;
503.4000;0.1457;-0.1051;
503.7000;0.1555;-0.0812;
504.0000;0.1538;-0.0860;
504.3000;0.1522;-0.0884;
504.6000;0.1563;-0.0884;
504.9000;0.1538;-0.0812;
505.2000;0.1555;-0.0812;
505.5000;0.1433;-0.1099;
505.8000;0.1547;-0.0789;
506.1000;0.1547;-0.0812;
506.4000;0.1612;-0.0717;
506.7000;0.1547;-0.0884;
507.0000;0.1628;-0.0693;
507.3000;0.1547;-0.0884;
507.6000;0.1530;-0.0932;
507.9000;0.1547;-0.0884;
508.2000;0.1538;-0.0836;
508.5000;0.1547;-0.0669;
508.8000;0.1530;-0.0669;
509.1000;0.1538;-0.0621;
509.4000;0.1530;-0.0621;
509.7000;0.1555;-0.0550;
510.0000;0.1538;-0.0621;
510.3000;0.1538;-0.0621;
510.6000;0.1547;-0.0669;
510.9000;0.1522;-0.0717;
511.2000;0.1530;-0.0765;
511.5000;0.1498;-0.0836;
511.8000;0.1587;-0.0597;
512.1000;0.1555;-0.0717;
512.4000;0.1555;-0.0741;
512.7000;0.1522;-0.0836;
513.0000;0.1522;-0.0908;
513.3000;0.1563;-0.0860;
513.6000;0.1555;-0.0765;
513.9000;0.1538;-0.0765;
514.2000;0.1522;-0.0741;
514.5000;0.1547;-0.0574;
514.8000;0.1652;-0.0335;
515.1000;0.1538;-0.0693;
515.4000;0.1522;-0.0717;
515.7000;0.1538;-0.0765;
516.0000;0.1506;-0.0884;
516.3000;0.1538;-0.0765;
516.6000;0.1530;-0.0812;
516.9000;0.1514;-0.0836;
517.2000;0.1522;-0.0812;
517.5000;0.1538;-0.0765;
517.8000;0.1538;-0.0741;
518.1000;0.1538;-0.0741;
518.4000;0.1538;-0.0789;
518.7000;0.1547;-0.0765;
519.0000;0.1522;-0.0908;
519.3000;0.1530;-0.0812;
519.6000;0.1538;-0.0836;
519.9000;0.1538;-0.0884;
520.2000;0.1538;-0.0908;
520.5000;0.1571;-0.0860;
520.8000;0.1538;-0.0908;
521.1000;0.1538;-0.0908;
521.4000;0.1530;-0.0956;
521.7000;0.1538;-0.0932;
522.0000;0.1547;-0.0884;
522.3000;0.1538;-0.0908;
522.6000;0.1571;-0.0860;
522.9000;0.1538;-0.0884;
523.2000;0.1457;-0.1075;
523.5000;0.1473;-0.0884;
523.8000;0.1538;-0.0717;
524.1000;0.1538;-0.0669;
524.4000;0.1547;-0.0621;
524.7000;0.1538;-0.0669;
525.0000;0.1538;-0.0669;
525.3000;0.1530;-0.0717;
525.6000;0.1547;-0.0717;
525.9000;0.1538;-0.0597;
526.2000;0.1538;-0.0645;
526.5000;0.1563;-0.0597;
526.8000;0.1571;-0.0550;
527.1000;0.1547;-0.0621;
527.4000;0.1522;-0.0765;
527.7000;0.1538;-0.0836;
528.0000;0.1538;-0.0860;
528.3000;0.1547;-0.0836;
528.6000;0.1595;-0.0693;
528.9000;0.1547;-0.0789;
529.2000;0.1563;-0.0812;
529.5000;0.1490;-0.0956;
529.8000;0.1530;-0.0789;
530.1000;0.1538;-0.0789;
530.4000;0.1538;-0.0693;
530.7000;0.1547;-0.0645;
531.0000;0.1530;-0.0597;
531.3000;0.1530;-0.0621;
531.6000;0.1555;-0.0621;
531.9000;0.1547;-0.0621;
532.2000;0.1530;-0.0741;
532.5000;0.1530;-0.0812;
532.8000;0.1522;-0.0765;
533.1000;0.1530;-0.0741;
533.4000;0.1530;-0.0741;
533.7000;0.1555;-0.0765;
534.0000;0.1563;-0.0741;
534.3000;0.1604;-0.0550;
534.6000;0.1538;-0.0717;
534.9000;0.1530;-0.0693;
535.2000;0.1587;-0.0741;
535.5000;0.1538;-0.0812;
535.8000;0.1425;-0.1123;
536.1000;0.1538;-0.0789;
536.4000;0.1530;-0.0789;
536.7000;0.1547;-0.0836;
537.0000;0.1514;-0.0789;
537.3000;0.1547;-0.0717;
537.6000;0.1522;-0.0765;
537.9000;0.1522;-0.0860;
538.2000;0.1547;-0.0741;
538.5000;0.1547;-0.0717;
538.8000;0.1555;-0.0669;
539.1000;0.1538;-0.0812;
539.4000;0.1530;-0.0836;
539.7000;0.1555;-0.0765;
540.0000;0.1555;-0.0717;
540.3000;0.1490;-0.0765;
540.6000;0.1547;-0.0597;
540.9000;0.1522;-0.0597;
541.2000;0.1408;-0.0956;
541.5000;0.1530;-0.0693;
541.8000;0.1514;-0.0717;
542.1000;0.1441;-0.0884;
542.4000;0.1498;-0.0693;
542.7000;0.1547;-0.0526;
543.0000;0.1416;-0.0812;
543.3000;0.1457;-0.0717;
543.6000;0.1555;-0.0574;
543.9000;0.1530;-0.0669;
544.2000;0.1530;-0.0645;
544.5000;0.1530;-0.0645;
544.8000;0.1547;-0.0621;
545.1000;0.1579;-0.0454;
545.4000;0.1547;-0.0621;
545.7000;0.1644;-0.0382;
546.0000;0.1547;-0.0717;
546.3000;0.1555;-0.0597;
546.6000;0.1538;-0.0717;
546.9000;0.1547;-0.0717;
547.2000;0.1555;-0.0765;
547.5000;0.1604;-0.0526;
547.8000;0.1547;-0.0717;
548.1000;0.1498;-0.0741;
548.4000;0.1522;-0.0693;
548.7000;0.1555;-0.0550;
549.0000;0.1522;-0.0669;
549.3000;0.1538;-0.0669;
549.6000;0.1530;-0.0645;
549.9000;0.1555;-0.0574;
550.2000;0.1579;-0.0717;
550.5000;0.1481;-0.0908;
550.8000;0.1538;-0.0741;
551.1000;0.1449;-0.0836;
551.4000;0.1481;-0.0741;
551.7000;0.1547;-0.0550;
552.0000;0.1465;-0.0765;
552.3000;0.1555;-0.0550;
552.6000;0.1547;-0.0621;
552.9000;0.1538;-0.0669;
553.2000;0.1522;-0.0669;
553.5000;0.1538;-0.0597;
553.8000;0.1547;-0.0693;
554.1000;0.1547;-0.0717;
554.4000;0.1522;-0.0717;
554.7000;0.1538;-0.0645;
555.0000;0.1538;-0.0693;
555.3000;0.1522;-0.0693;
555.6000;0.1547;-0.0693;
555.9000;0.1538;-0.0693;
556.2000;0.1538;-0.0669;
556.5000;0.1555;-0.0645;
556.8000;0.1538;-0.0621;
557.1000;0.1538;-0.0645;
557.4000;0.1547;-0.0645;
557.7000;0.1555;-0.0621;
558.0000;0.1547;-0.0645;
558.3000;0.1547;-0.0693;
558.6000;0.1538;-0.0574;
558.9000;0.1571;-0.0550;
559.2000;0.1506;-0.0717;
559.5000;0.1547;-0.0574;
559.8000;0.1587;-0.0478;
560.1000;0.1563;-0.0597;
560.4000;0.1449;-0.0884;
560.7000;0.1555;-0.0597;
561.0000;0.1555;-0.0645;
561.3000;0.1571;-0.0502;
561.6000;0.1530;-0.0669;
561.9000;0.1498;-0.0765;
562.2000;0.1522;-0.0717;
562.5000;0.1530;-0.0693;
562.8000;0.1547;-0.0621;
563.1000;0.1555;-0.0574;
563.4000;0.1547;-0.0478;
563.7000;0.1506;-0.0597;
564.0000;0.1530;-0.0645;
564.3000;0.1563;-0.0597;
564.6000;0.1538;-0.0717;
564.9000;0.1530;-0.0669;
565.2000;0.1547;-0.0645;
565.5000;0.1547;-0.0621;
565.8000;0.1538;-0.0550;
566.1000;0.1547;-0.0574;
566.4000;0.1595;-0.0454;
566.7000;0.1538;-0.0597;
567.0000;0.1563;-0.0597;
567.3000;0.1538;-0.0645;
567.6000;0.1514;-0.0645;
567.9000;0.1652;-0.0311;
568.2000;0.1538;-0.0597;
568.5000;0.1506;-0.0574;
568.8000;0.1555;-0.0574;
569.1000;0.1530;-0.0669;
569.4000;0.1530;-0.0693;
569.7000;0.1530;-0.0741;
570.0000;0.1563;-0.0669;
570.3000;0.1538;-0.0741;
570.6000;0.1498;-0.0812;
570.9000;0.1547;-0.0621;
571.2000;0.1547;-0.0621;
571.5000;0.1514;-0.0669;
571.8000;0.1555;-0.0621;
572.1000;0.1571;-0.0550;
572.4000;0.1547;-0.0669;
572.7000;0.1408;-0.0956;
573.0000;0.1538;-0.0574;
573.3000;0.1547;-0.0478;
573.6000;0.1514;-0.0502;
573.9000;0.1522;-0.0526;
574.2000;0.1530;-0.0502;
574.5000;0.1538;-0.0478;
574.8000;0.1490;-0.0574;
575.1000;0.1547;-0.0430;
575.4000;0.1530;-0.0454;
575.7000;0.1555;-0.0526;
576.0000;0.1595;-0.0454;
576.3000;0.1555;-0.0669;
576.6000;0.1571;-0.0645;
576.9000;0.1571;-0.0693;
577.2000;0.1514;-0.0765;
577.5000;0.1595;-0.0574;
577.8000;0.1538;-0.0693;
578.1000;0.1490;-0.0884;
578.4000;0.1563;-0.0765;
578.7000;0.1538;-0.0812;
579.0000;0.1538;-0.0741;
579.3000;0.1538;-0.0717;
579.6000;0.1547;-0.0693;
579.9000;0.1506;-0.0789;
580.2000;0.1522;-0.0765;
580.5000;0.1530;-0.0669;
580.8000;0.1563;-0.0550;
581.1000;0.1530;-0.0645;
581.4000;0.1538;-0.0526;
581.7000;0.1555;-0.0454;
582.0000;0.1555;-0.0574;
582.3000;0.1563;-0.0621;
582.6000;0.1547;-0.0574;
582.9000;0.1449;-0.0884;
583.2000;0.1481;-0.0884;
583.5000;0.1538;-0.0765;
583.8000;0.1555;-0.0765;
584.1000;0.1547;-0.0812;
584.4000;0.1555;-0.0765;
584.7000;0.1522;-0.0836;
585.0000;0.1538;-0.0717;
585.3000;0.1522;-0.0645;
585.6000;0.1538;-0.0669;
585.9000;0.1547;-0.0574;
586.2000;0.1530;-0.0574;
586.5000;0.1538;-0.0574;
586.8000;0.1547;-0.0621;
587.1000;0.1563;-0.0669;
587.4000;0.1530;-0.0621;
587.7000;0.1530;-0.0645;
588.0000;0.1547;-0.0693;
588.3000;0.1538;-0.0645;
588.6000;0.1547;-0.0741;
588.9000;0.1595;-0.0621;
589.2000;0.1555;-0.0741;
589.5000;0.1555;-0.0693;
589.8000;0.1538;-0.0621;
590.1000;0.1547;-0.0574;
590.4000;0.1604;-0.0454;
590.7000;0.1555;-0.0550;
591.0000;0.1555;-0.0550;
591.3000;0.1538;-0.0526;
591.6000;0.1538;-0.0621;
591.9000;0.1538;-0.0669;
592.2000;0.1530;-0.0765;
592.5000;0.1538;-0.0693;
592.8000;0.1522;-0.0765;
593.1000;0.1530;-0.0741;
593.4000;0.1522;-0.0765;
593.7000;0.1457;-0.0932;
594.0000;0.1522;-0.0836;
594.3000;0.1522;-0.0789;
594.6000;0.1555;-0.0717;
594.9000;0.1547;-0.0717;
595.2000;0.1538;-0.0741;
595.5000;0.1547;-0.0789;
595.8000;0.1530;-0.0836;
596.1000;0.1481;-0.0836;
596.4000;0.1490;-0.0765;
596.7000;0.1530;-0.0717;
597.0000;0.1547;-0.0645;
597.3000;0.1481;-0.0860;
597.6000;0.1555;-0.0597;
597.9000;0.1555;-0.0574;
598.2000;0.1530;-0.0717;
598.5000;0.1538;-0.0741;
598.8000;0.1530;-0.0812;
599.1000;0.1530;-0.0717;
599.4000;0.1473;-0.0956;
599.7000;0.1522;-0.0836;
600.0000;0.1547;-0.0789;
600.3000;0.1522;-0.0789;
600.6000;0.1547;-0.0812;
600.9000;0.1538;-0.0908;
601.2000;0.1555;-0.0932;
601.5000;0.1555;-0.1028;
601.8000;0.1547;-0.1147;
602.1000;0.1538;-0.1171;
602.4000;0.1563;-0.1171;
602.7000;0.1555;-0.1219;
603.0000;0.1563;-0.1243;
603.3000;0.1522;-0.1314;
603.6000;0.1555;-0.1386;
603.9000;0.1530;-0.1434;
604.2000;0.1563;-0.1386;
604.5000;0.1522;-0.1482;
604.8000;0.1530;-0.1505;
605.1000;0.1579;-0.1458;
605.4000;0.1530;-0.1625;
605.7000;0.1538;-0.1721;
606.0000;0.1514;-0.1840;
606.3000;0.1522;-0.1768;
606.6000;0.1514;-0.1792;
606.9000;0.1481;-0.1864;
607.2000;0.1547;-0.1816;
607.5000;0.1514;-0.1959;
607.8000;0.1433;-0.2175;
608.1000;0.1498;-0.2007;
608.4000;0.1514;-0.1959;
608.7000;0.1530;-0.1983;
609.0000;0.1538;-0.2007;
609.3000;0.1368;-0.2461;
609.6000;0.1538;-0.1983;
609.9000;0.1530;-0.1959;
610.2000;0.1498;-0.2007;
610.5000;0.1506;-0.2007;
610.8000;0.1506;-0.2079;
611.1000;0.1506;-0.2079;
611.4000;0.1514;-0.1936;
611.7000;0.1506;-0.2031;
612.0000;0.1530;-0.1959;
612.3000;0.1514;-0.1936;
612.6000;0.1530;-0.1888;
612.9000;0.1538;-0.1912;
613.2000;0.1530;-0.1912;
613.5000;0.1522;-0.1888;
613.8000;0.1522;-0.1864;
614.1000;0.1498;-0.1959;
614.4000;0.1449;-0.2007;
614.7000;0.1514;-0.1792;
615.0000;0.1514;-0.1864;
615.3000;0.1547;-0.1816;
615.6000;0.1530;-0.1864;
615.9000;0.1530;-0.1864;
616.2000;0.1538;-0.1912;
616.5000;0.1514;-0.2031;
616.8000;0.1522;-0.2007;
617.1000;0.1522;-0.2055;
617.4000;0.1481;-0.2127;
617.7000;0.1498;-0.2031;
618.0000;0.1514;-0.2055;
618.3000;0.1498;-0.2079;
618.6000;0.1498;-0.2055;
618.9000;0.1538;-0.1983;
619.2000;0.1481;-0.2031;
619.5000;0.1514;-0.1912;
619.8000;0.1514;-0.1888;
620.1000;0.1522;-0.1888;
620.4000;0.1530;-0.1888;
620.7000;0.1514;-0.1983;
621.0000;0.1498;-0.2031;
621.3000;0.1530;-0.1959;
621.6000;0.1473;-0.2055;
621.9000;0.1555;-0.1792;
622.2000;0.1522;-0.1864;
622.5000;0.1457;-0.1959;
622.8000;0.1514;-0.1864;
623.1000;0.1530;-0.1840;
623.4000;0.1555;-0.1768;
623.7000;0.1522;-0.2007;
624.0000;0.1514;-0.2007;
624.3000;0.1547;-0.1864;
624.6000;0.1481;-0.2103;
624.9000;0.1530;-0.1983;
625.2000;0.1522;-0.1983;
625.5000;0.1498;-0.1959;
625.8000;0.1522;-0.1816;
626.1000;0.1530;-0.1840;
626.4000;0.1522;-0.2007;
626.7000;0.1506;-0.2007;
627.0000;0.1506;-0.1983;
627.3000;0.1522;-0.1959;
627.6000;0.1514;-0.1912;
627.9000;0.1530;-0.1888;
628.2000;0.1522;-0.1888;
628.5000;0.1522;-0.1888;
628.8000;0.1506;-0.1936;
629.1000;0.1522;-0.1864;
629.4000;0.1506;-0.1936;
629.7000;0.1441;-0.2103;
630.0000;0.1522;-0.1816;
630.3000;0.1514;-0.1912;
630.6000;0.1547;-0.1864;
630.9000;0.1555;-0.1816;
631.2000;0.1481;-0.2079;
631.5000;0.1498;-0.2031;
631.8000;0.1392;-0.2366;
632.1000;0.1425;-0.2246;
632.4000;0.1514;-0.1959;
632.7000;0.1514;-0.1888;
633.0000;0.1498;-0.1888;
633.3000;0.1498;-0.1888;
633.6000;0.1530;-0.1816;
633.9000;0.1514;-0.1912;
634.2000;0.1514;-0.1888;
634.5000;0.1538;-0.1864;
634.8000;0.1522;-0.1816;
635.1000;0.1514;-0.1888;
635.4000;0.1506;-0.1768;
635.7000;0.1514;-0.1744;
636.0000;0.1506;-0.1792;
636.3000;0.1498;-0.1816;
636.6000;0.1538;-0.1697;
636.9000;0.1506;-0.1744;
637.2000;0.1498;-0.1768;
637.5000;0.1538;-0.1649;
637.8000;0.1522;-0.1697;
638.1000;0.1498;-0.1792;
638.4000;0.1563;-0.1625;
638.7000;0.1530;-0.1888;
639.0000;0.1514;-0.1936;
639.3000;0.1555;-0.1840;
639.6000;0.1498;-0.1912;
639.9000;0.1498;-0.1888;
640.2000;0.1514;-0.1888;
640.5000;0.1530;-0.1864;
640.8000;0.1514;-0.1864;
641.1000;0.1514;-0.1768;
641.4000;0.1514;-0.1864;
641.7000;0.1530;-0.1840;
642.0000;0.1465;-0.2055;
642.3000;0.1522;-0.1840;
642.6000;0.1522;-0.1864;
642.9000;0.1506;-0.1888;
643.2000;0.1555;-0.1744;
643.5000;0.1490;-0.2007;
643.8000;0.1498;-0.1983;
644.1000;0.1530;-0.1912;
644.4000;0.1498;-0.1912;
644.7000;0.1514;-0.2007;
645.0000;0.1490;-0.1983;
645.3000;0.1481;-0.1888;
645.6000;0.1514;-0.1816;
645.9000;0.1522;-0.1864;
646.2000;0.1481;-0.1936;
646.5000;0.1530;-0.1816;
646.8000;0.1514;-0.1792;
647.1000;0.1587;-0.1649;
647.4000;0.1514;-0.1816;
647.7000;0.1530;-0.1864;
648.0000;0.1530;-0.1864;
648.3000;0.1481;-0.2055;
648.6000;0.1490;-0.1983;
648.9000;0.1514;-0.2007;
649.2000;0.1612;-0.1744;
649.5000;0.1530;-0.1936;
649.8000;0.1514;-0.2007;
650.1000;0.1498;-0.1959;
650.4000;0.1530;-0.1888;
650.7000;0.1530;-0.1864;
651.0000;0.1547;-0.1744;
651.3000;0.1490;-0.1912;
651.6000;0.1514;-0.1888;
651.9000;0.1563;-0.1816;
652.2000;0.1490;-0.1959;
652.5000;0.1514;-0.1888;
652.8000;0.1514;-0.1888;
653.1000;0.1514;-0.1840;
653.4000;0.1506;-0.1912;
653.7000;0.1522;-0.1888;
654.0000;0.1514;-0.1840;
654.3000;0.1538;-0.1864;
654.6000;0.1514;-0.1983;
654.9000;0.1441;-0.2127;
655.2000;0.1449;-0.2079;
655.5000;0.1498;-0.1959;
655.8000;0.1595;-0.1577;
656.1000;0.1522;-0.1792;
656.4000;0.1522;-0.1816;
656.7000;0.1506;-0.1864;
657.0000;0.1514;-0.1840;
657.3000;0.1530;-0.1888;
657.6000;0.1522;-0.1983;
657.9000;0.1547;-0.1959;
658.2000;0.1506;-0.2103;
658.5000;0.1506;-0.2079;
658.8000;0.1498;-0.2103;
659.1000;0.1530;-0.2103;
659.4000;0.1587;-0.1983;
659.7000;0.1514;-0.2222;
660.0000;0.1595;-0.2031;
660.3000;0.1506;-0.2246;
660.6000;0.1498;-0.2246;
660.9000;0.1514;-0.2222;
661.2000;0.1514;-0.2175;
661.5000;0.1473;-0.2175;
661.8000;0.1522;-0.2007;
662.1000;0.1547;-0.1959;
662.4000;0.1530;-0.1959;
662.7000;0.1579;-0.1816;
663.0000;0.1514;-0.2031;
663.3000;0.1514;-0.2007;
663.6000;0.1498;-0.2055;
663.9000;0.1506;-0.1912;
664.2000;0.1522;-0.1959;
664.5000;0.1530;-0.1959;
664.8000;0.1547;-0.2055;
665.1000;0.1522;-0.2198;
665.4000;0.1514;-0.2222;
665.7000;0.1457;-0.2413;
666.0000;0.1538;-0.2294;
666.3000;0.1506;-0.2390;
666.6000;0.1506;-0.2461;
666.9000;0.1514;-0.2461;
667.2000;0.1538;-0.2390;
667.5000;0.1522;-0.2413;
667.8000;0.1506;-0.2413;
668.1000;0.1384;-0.2724;
668.4000;0.1538;-0.2318;
668.7000;0.1530;-0.2318;
669.0000;0.1514;-0.2318;
669.3000;0.1514;-0.2270;
669.6000;0.1579;-0.2055;
669.9000;0.1514;-0.2175;
670.2000;0.1498;-0.2222;
670.5000;0.1392;-0.2390;
670.8000;0.1514;-0.2270;
671.1000;0.1506;-0.2246;
671.4000;0.1506;-0.2127;
671.7000;0.1514;-0.2103;
672.0000;0.1498;-0.2198;
672.3000;0.1490;-0.2246;
672.6000;0.1522;-0.2246;
672.9000;0.1530;-0.2175;
673.2000;0.1506;-0.2151;
673.5000;0.1498;-0.2103;
673.8000;0.1530;-0.1983;
674.1000;0.1506;-0.2055;
674.4000;0.1530;-0.2007;
674.7000;0.1481;-0.2127;
675.0000;0.1595;-0.1912;
675.3000;0.1538;-0.1912;
675.6000;0.1498;-0.2055;
675.9000;0.1498;-0.2151;
676.2000;0.1571;-0.2031;
676.5000;0.1522;-0.2246;
676.8000;0.1506;-0.2366;
677.1000;0.1498;-0.2437;
677.4000;0.1498;-0.2342;
677.7000;0.1547;-0.2151;
678.0000;0.1612;-0.1959;
678.3000;0.1506;-0.2246;
678.6000;0.1522;-0.2127;
678.9000;0.1449;-0.2270;
679.2000;0.1547;-0.2007;
679.5000;0.1514;-0.2031;
679.8000;0.1522;-0.2031;
680.1000;0.1530;-0.2007;
680.4000;0.1490;-0.2079;
680.7000;0.1514;-0.1912;
681.0000;0.1547;-0.1792;
681.3000;0.1563;-0.1888;
681.6000;0.1481;-0.2127;
681.9000;0.1538;-0.2079;
682.2000;0.1506;-0.1959;
682.5000;0.1473;-0.2079;
682.8000;0.1538;-0.1888;
683.1000;0.1514;-0.1912;
683.4000;0.1506;-0.1912;
683.7000;0.1522;-0.1959;
684.0000;0.1538;-0.1936;
684.3000;0.1514;-0.1912;
684.6000;0.1506;-0.1959;
684.9000;0.1498;-0.1888;
685.2000;0.1506;-0.1888;
685.5000;0.1473;-0.1936;
685.8000;0.1506;-0.1936;
686.1000;0.1522;-0.1936;
686.4000;0.1579;-0.1768;
686.7000;0.1587;-0.1840;
687.0000;0.1506;-0.2007;
687.3000;0.1490;-0.2007;
687.6000;0.1457;-0.2103;
687.9000;0.1506;-0.1983;
688.2000;0.1506;-0.1959;
688.5000;0.1530;-0.1983;
688.8000;0.1498;-0.2079;
689.1000;0.1530;-0.2103;
689.4000;0.1538;-0.2007;
689.7000;0.1441;-0.2366;
690.0000;0.1490;-0.2175;
690.3000;0.1522;-0.1983;
690.6000;0.1547;-0.1888;
690.9000;0.1514;-0.2007;
691.2000;0.1498;-0.2031;
691.5000;0.1481;-0.2103;
691.8000;0.1547;-0.1912;
692.1000;0.1555;-0.1888;
692.4000;0.1490;-0.2103;
692.7000;0.1498;-0.1983;
693.0000;0.1490;-0.1983;
693.3000;0.1538;-0.1936;
693.6000;0.1498;-0.2031;
693.9000;0.1506;-0.2031;
694.2000;0.1579;-0.1959;
694.5000;0.1506;-0.2127;
694.8000;0.1481;-0.2198;
695.1000;0.1530;-0.1959;
695.4000;0.1522;-0.2103;
695.7000;0.1530;-0.2007;
696.0000;0.1530;-0.1959;
696.3000;0.1530;-0.2079;
696.6000;0.1514;-0.2151;
696.9000;0.1506;-0.2127;
697.2000;0.1506;-0.2031;
697.5000;0.1498;-0.2031;
697.8000;0.1522;-0.1912;
698.1000;0.1538;-0.1840;
698.4000;0.1522;-0.1959;
698.7000;0.1522;-0.1936;
699.0000;0.1522;-0.1936;
699.3000;0.1530;-0.1959;
699.6000;0.1522;-0.1959;
699.9000;0.1522;-0.1888;
700.2000;0.1416;-0.2198;
700.5000;0.1522;-0.1840;
700.8000;0.1506;-0.1864;
701.1000;0.1522;-0.1792;
701.4000;0.1522;-0.1864;
701.7000;0.1498;-0.1983;
702.0000;0.1498;-0.2031;
702.3000;0.1506;-0.1983;
702.6000;0.1490;-0.2007;
702.9000;0.1498;-0.1959;
703.2000;0.1595;-0.1697;
703.5000;0.1522;-0.1816;
703.8000;0.1481;-0.1912;
704.1000;0.1538;-0.1888;
704.4000;0.1514;-0.1864;
704.7000;0.1522;-0.1888;
705.0000;0.1481;-0.2103;
705.3000;0.1522;-0.2031;
705.6000;0.1522;-0.1959;
705.9000;0.1538;-0.1959;
706.2000;0.1506;-0.2007;
706.5000;0.1514;-0.1983;
706.8000;0.1514;-0.1959;
707.1000;0.1514;-0.1959;
707.4000;0.1530;-0.1912;
707.7000;0.1530;-0.1840;
708.0000;0.1530;-0.1983;
708.3000;0.1514;-0.1959;
708.6000;0.1514;-0.2055;
708.9000;0.1522;-0.2031;
709.2000;0.1514;-0.1959;
709.5000;0.1604;-0.1721;
709.8000;0.1506;-0.2007;
710.1000;0.1563;-0.1936;
710.4000;0.1628;-0.1792;
710.7000;0.1514;-0.2103;
711.0000;0.1587;-0.1912;
711.3000;0.1530;-0.2055;
711.6000;0.1514;-0.2079;
711.9000;0.1530;-0.2007;
712.2000;0.1498;-0.2103;
712.5000;0.1506;-0.2079;
712.8000;0.1522;-0.2079;
713.1000;0.1506;-0.2055;
713.4000;0.1498;-0.2031;
713.7000;0.1506;-0.2007;
714.0000;0.1522;-0.1983;
714.3000;0.1506;-0.2055;
714.6000;0.1498;-0.2151;
714.9000;0.1498;-0.2103;
715.2000;0.1514;-0.2007;
715.5000;0.1490;-0.2055;
715.8000;0.1490;-0.1983;
716.1000;0.1506;-0.2007;
716.4000;0.1563;-0.2007;
716.7000;0.1506;-0.2222;
717.0000;0.1514;-0.2151;
717.3000;0.1457;-0.2294;
717.6000;0.1547;-0.1983;
717.9000;0.1522;-0.2007;
718.2000;0.1498;-0.2031;
718.5000;0.1620;-0.1864;
718.8000;0.1506;-0.2222;
719.1000;0.1506;-0.2198;
719.4000;0.1506;-0.2127;
719.7000;0.1514;-0.2079;
720.0000;0.1547;-0.1959;
720.3000;0.1506;-0.2103;
720.6000;0.1498;-0.2103;
720.9000;0.1506;-0.2151;
721.2000;0.1514;-0.2175;
721.5000;0.1547;-0.1983;
721.8000;0.1522;-0.2007;
722.1000;0.1498;-0.2079;
722.4000;0.1490;-0.2055;
722.7000;0.1514;-0.2031;
723.0000;0.1498;-0.2055;
723.3000;0.1506;-0.2103;
723.6000;0.1538;-0.2055;
723.9000;0.1506;-0.2103;
724.2000;0.1555;-0.2055;
724.5000;0.1498;-0.2198;
724.8000;0.1498;-0.2175;
725.1000;0.1514;-0.2127;
725.4000;0.1416;-0.2461;
725.7000;0.1498;-0.2294;
726.0000;0.1522;-0.2103;
726.3000;0.1506;-0.2103;
726.6000;0.1506;-0.2198;
726.9000;0.1514;-0.2151;
727.2000;0.1514;-0.2031;
727.5000;0.1522;-0.2055;
727.8000;0.1498;-0.2151;
728.1000;0.1530;-0.2127;
728.4000;0.1538;-0.2079;
728.7000;0.1498;-0.2246;
729.0000;0.1579;-0.2055;
729.3000;0.1514;-0.2222;
729.6000;0.1506;-0.2222;
729.9000;0.1481;-0.2270;
730.2000;0.1506;-0.2151;
730.5000;0.1514;-0.2079;
730.8000;0.1506;-0.2103;
731.1000;0.1514;-0.2079;
731.4000;0.1506;-0.1959;
731.7000;0.1498;-0.1959;
732.0000;0.1498;-0.1959;
732.3000;0.1498;-0.1983;
732.6000;0.1506;-0.1936;
732.9000;0.1514;-0.1888;
733.2000;0.1538;-0.1816;
733.5000;0.1490;-0.1936;
733.8000;0.1555;-0.1840;
734.1000;0.1538;-0.1912;
734.4000;0.1506;-0.2031;
734.7000;0.1628;-0.1649;
735.0000;0.1506;-0.1959;
735.3000;0.1490;-0.2079;
735.6000;0.1530;-0.2007;
735.9000;0.1530;-0.1983;
736.2000;0.1506;-0.2079;
736.5000;0.1506;-0.2079;
736.8000;0.1506;-0.2222;
737.1000;0.1514;-0.2246;
737.4000;0.1465;-0.2390;
737.7000;0.1514;-0.2318;
738.0000;0.1530;-0.2127;
738.3000;0.1514;-0.2079;
738.6000;0.1522;-0.1983;
738.9000;0.1506;-0.2007;
739.2000;0.1555;-0.1840;
739.5000;0.1595;-0.1744;
739.8000;0.1530;-0.1983;
740.1000;0.1628;-0.1744;
740.4000;0.1514;-0.2055;
740.7000;0.1530;-0.2055;
741.0000;0.1522;-0.2055;
741.3000;0.1498;-0.2055;
741.6000;0.1514;-0.2007;
741.9000;0.1547;-0.1983;
742.2000;0.1514;-0.2151;
742.5000;0.1498;-0.2294;
742.8000;0.1522;-0.2246;
743.1000;0.1522;-0.2270;
743.4000;0.1514;-0.2246;
743.7000;0.1514;-0.2175;
744.0000;0.1522;-0.2198;
744.3000;0.1514;-0.2007;
744.6000;0.1522;-0.2007;
744.9000;0.1514;-0.1936;
745.2000;0.1522;-0.1959;
745.5000;0.1498;-0.2031;
745.8000;0.1522;-0.1983;
746.1000;0.1498;-0.2055;
746.4000;0.1612;-0.1864;
746.7000;0.1506;-0.2175;
747.0000;0.1498;-0.2103;
747.3000;0.1506;-0.2127;
747.6000;0.1506;-0.2103;
747.9000;0.1506;-0.2127;
748.2000;0.1522;-0.2103;
748.5000;0.1522;-0.2151;
748.8000;0.1514;-0.2175;
749.1000;0.1506;-0.2151;
749.4000;0.1490;-0.2294;
749.7000;0.1538;-0.2198;
750.0000;0.1530;-0.2270;
750.3000;0.1522;-0.2222;
750.6000;0.1514;-0.2342;
750.9000;0.1522;-0.2366;
751.2000;0.1538;-0.2175;
751.5000;0.1514;-0.2222;
751.8000;0.1514;-0.2222;
752.1000;0.1506;-0.2318;
752.4000;0.1514;-0.2318;
752.7000;0.1457;-0.2485;
753.0000;0.1506;-0.2294;
753.3000;0.1514;-0.2246;
753.6000;0.1530;-0.2175;
753.9000;0.1514;-0.2127;
754.2000;0.1514;-0.2175;
754.5000;0.1457;-0.2246;
754.8000;0.1530;-0.2055;
755.1000;0.1514;-0.2151;
755.4000;0.1530;-0.2151;
755.7000;0.1514;-0.2222;
756.0000;0.1530;-0.2222;
756.3000;0.1530;-0.2246;
756.6000;0.1498;-0.2366;
756.9000;0.1498;-0.2246;
757.2000;0.1498;-0.2222;
757.5000;0.1636;-0.1840;
757.8000;0.1522;-0.2151;
758.1000;0.1506;-0.2198;
758.4000;0.1514;-0.2222;
758.7000;0.1514;-0.2103;
759.0000;0.1514;-0.2055;
759.3000;0.1530;-0.2079;
759.6000;0.1473;-0.2079;
759.9000;0.1506;-0.2127;
760.2000;0.1538;-0.2079;
760.5000;0.1498;-0.2246;
760.8000;0.1514;-0.2318;
761.1000;0.1506;-0.2366;
761.4000;0.1473;-0.2342;
761.7000;0.1490;-0.2342;
762.0000;0.1514;-0.2270;
762.3000;0.1522;-0.2342;
762.6000;0.1522;-0.2342;
762.9000;0.1506;-0.2294;
763.2000;0.1473;-0.2437;
763.5000;0.1514;-0.2366;
763.8000;0.1522;-0.2318;
764.1000;0.1506;-0.2413;
764.4000;0.1530;-0.2246;
764.7000;0.1506;-0.2342;
765.0000;0.1400;-0.2461;
765.3000;0.1522;-0.2294;
765.6000;0.1498;-0.2222;
765.9000;0.1530;-0.2222;
766.2000;0.1490;-0.2342;
766.5000;0.1538;-0.2198;
766.8000;0.1522;-0.2175;
767.1000;0.1449;-0.2342;
767.4000;0.1514;-0.2294;
767.7000;0.1514;-0.2390;
768.0000;0.1514;-0.2318;
768.3000;0.1506;-0.2342;
768.6000;0.1506;-0.2342;
768.9000;0.1425;-0.2557;
769.2000;0.1514;-0.2270;
769.5000;0.1547;-0.2127;
769.8000;0.1514;-0.2198;
770.1000;0.1522;-0.2198;
770.4000;0.1522;-0.2151;
770.7000;0.1530;-0.2127;
771.0000;0.1522;-0.2151;
771.3000;0.1449;-0.2390;
771.6000;0.1490;-0.2270;
771.9000;0.1490;-0.2318;
772.2000;0.1595;-0.2031;
772.5000;0.1522;-0.2270;
772.8000;0.1522;-0.2294;
773.1000;0.1547;-0.2222;
773.4000;0.1506;-0.2270;
773.7000;0.1490;-0.2390;
774.0000;0.1506;-0.2318;
774.3000;0.1530;-0.2342;
774.6000;0.1481;-0.2413;
774.9000;0.1514;-0.2390;
775.2000;0.1506;-0.2413;
775.5000;0.1522;-0.2342;
775.8000;0.1514;-0.2390;
776.1000;0.1449;-0.2509;
776.4000;0.1538;-0.2294;
776.7000;0.1538;-0.2270;
777.0000;0.1530;-0.2198;
777.3000;0.1514;-0.2175;
777.6000;0.1506;-0.2294;
777.9000;0.1384;-0.2652;
778.2000;0.1514;-0.2390;
778.5000;0.1530;-0.2342;
778.8000;0.1530;-0.2318;
779.1000;0.1538;-0.2246;
779.4000;0.1538;-0.2270;
779.7000;0.1506;-0.2294;
780.0000;0.1538;-0.2198;
780.3000;0.1490;-0.2366;
780.6000;0.1530;-0.2246;
780.9000;0.1506;-0.2318;
781.2000;0.1636;-0.2007;
781.5000;0.1498;-0.2270;
781.8000;0.1530;-0.2127;
782.1000;0.1538;-0.2151;
782.4000;0.1514;-0.2198;
782.7000;0.1506;-0.2198;
783.0000;0.1522;-0.2198;
783.3000;0.1514;-0.2175;
783.6000;0.1547;-0.2103;
783.9000;0.1522;-0.2103;
784.2000;0.1612;-0.1936;
784.5000;0.1506;-0.2175;
784.8000;0.1506;-0.2127;
785.1000;0.1473;-0.2222;
785.4000;0.1506;-0.2079;
785.7000;0.1522;-0.2127;
786.0000;0.1457;-0.2246;
786.3000;0.1530;-0.2031;
786.6000;0.1514;-0.2055;
786.9000;0.1538;-0.2079;
787.2000;0.1555;-0.2055;
787.5000;0.1579;-0.2079;
787.8000;0.1490;-0.2342;
788.1000;0.1530;-0.2270;
788.4000;0.1514;-0.2318;
788.7000;0.1514;-0.2366;
789.0000;0.1514;-0.2390;
789.3000;0.1473;-0.2413;
789.6000;0.1522;-0.2270;
789.9000;0.1538;-0.2198;
790.2000;0.1530;-0.2246;
790.5000;0.1506;-0.2270;
790.8000;0.1514;-0.2246;
791.1000;0.1481;-0.2294;
791.4000;0.1538;-0.2175;
791.7000;0.1514;-0.2103;
792.0000;0.1522;-0.1936;
792.3000;0.1506;-0.1912;
792.6000;0.1514;-0.1936;
792.9000;0.1506;-0.1936;
793.2000;0.1538;-0.1959;
793.5000;0.1514;-0.1983;
793.8000;0.1522;-0.1959;
794.1000;0.1522;-0.2055;
794.4000;0.1538;-0.2079;
794.7000;0.1506;-0.2151;
795.0000;0.1555;-0.2127;
795.3000;0.1522;-0.2127;
795.6000;0.1498;-0.2151;
795.9000;0.1514;-0.2175;
796.2000;0.1506;-0.2151;
796.5000;0.1498;-0.2151;
796.8000;0.1481;-0.2198;
797.1000;0.1449;-0.2318;
797.4000;0.1522;-0.2079;
797.7000;0.1530;-0.2031;
798.0000;0.1522;-0.2079;
798.3000;0.1514;-0.2103;
798.6000;0.1514;-0.2079;
798.9000;0.1522;-0.2079;
799.2000;0.1522;-0.2103;
799.5000;0.1498;-0.2198;
799.8000;0.1587;-0.2031;
800.1000;0.1530;-0.2270;
800.4000;0.1514;-0.2318;
800.7000;0.1514;-0.2318;
801.0000;0.1514;-0.2294;
801.3000;0.1555;-0.2198;
801.6000;0.1514;-0.2294;
801.9000;0.1498;-0.2294;
802.2000;0.1473;-0.2390;
802.5000;0.1538;-0.2103;
802.8000;0.1514;-0.2151;
803.1000;0.1481;-0.2246;
803.4000;0.1522;-0.2151;
803.7000;0.1522;-0.2246;
804.0000;0.1579;-0.2007;
804.3000;0.1522;-0.2055;
804.6000;0.1498;-0.2079;
804.9000;0.1498;-0.2055;
805.2000;0.1555;-0.1983;
805.5000;0.1522;-0.2031;
805.8000;0.1514;-0.2055;
806.1000;0.1506;-0.2127;
806.4000;0.1522;-0.2103;
806.7000;0.1498;-0.2175;
807.0000;0.1514;-0.2127;
807.3000;0.1490;-0.2175;
807.6000;0.1538;-0.1983;
807.9000;0.1506;-0.1983;
808.2000;0.1506;-0.1936;
808.5000;0.1498;-0.1936;
808.8000;0.1514;-0.1888;
809.1000;0.1506;-0.1959;
809.4000;0.1481;-0.1983;
809.7000;0.1506;-0.1936;
810.0000;0.1465;-0.2055;
810.3000;0.1457;-0.2151;
810.6000;0.1587;-0.1816;
810.9000;0.1506;-0.2031;
811.2000;0.1498;-0.2079;
811.5000;0.1514;-0.2055;
811.8000;0.1498;-0.2127;
812.1000;0.1506;-0.2151;
812.4000;0.1506;-0.2175;
812.7000;0.1514;-0.2151;
813.0000;0.1571;-0.1983;
813.3000;0.1628;-0.1768;
813.6000;0.1506;-0.2103;
813.9000;0.1587;-0.1936;
814.2000;0.1522;-0.2103;
814.5000;0.1530;-0.2031;
814.8000;0.1547;-0.2055;
815.1000;0.1522;-0.2198;
815.4000;0.1587;-0.1912;
815.7000;0.1498;-0.2103;
816.0000;0.1457;-0.2103;
816.3000;0.1522;-0.1912;
816.6000;0.1498;-0.1936;
816.9000;0.1522;-0.1864;
817.2000;0.1498;-0.1959;
817.5000;0.1514;-0.1959;
817.8000;0.1498;-0.1959;
818.1000;0.1514;-0.1936;
818.4000;0.1522;-0.1936;
818.7000;0.1416;-0.2175;
819.0000;0.1506;-0.1888;
819.3000;0.1522;-0.1840;
819.6000;0.1538;-0.1840;
819.9000;0.1538;-0.1840;
820.2000;0.1498;-0.1959;
820.5000;0.1490;-0.1888;
820.8000;0.1522;-0.1840;
821.1000;0.1538;-0.1792;
821.4000;0.1530;-0.1936;
821.7000;0.1522;-0.2007;
822.0000;0.1506;-0.2079;
822.3000;0.1506;-0.2079;
822.6000;0.1473;-0.2175;
822.9000;0.1498;-0.2055;
823.2000;0.1514;-0.2031;
823.5000;0.1538;-0.1888;
823.8000;0.1514;-0.2007;
824.1000;0.1506;-0.2079;
824.4000;0.1538;-0.2103;
824.7000;0.1400;-0.2390;
825.0000;0.1514;-0.2127;
825.3000;0.1514;-0.2151;
825.6000;0.1514;-0.2198;
825.9000;0.1473;-0.2246;
826.2000;0.1522;-0.2246;
826.5000;0.1522;-0.2246;
826.8000;0.1506;-0.2222;
827.1000;0.1522;-0.2127;
827.4000;0.1514;-0.2175;
827.7000;0.1514;-0.2127;
828.0000;0.1514;-0.2079;
828.3000;0.1522;-0.2222;
828.6000;0.1473;-0.2318;
828.9000;0.1530;-0.2031;
829.2000;0.1490;-0.2103;
829.5000;0.1514;-0.2031;
829.8000;0.1522;-0.2055;
830.1000;0.1506;-0.2127;
830.4000;0.1555;-0.2103;
830.7000;0.1530;-0.2055;
831.0000;0.1506;-0.2055;
831.3000;0.1457;-0.2318;
831.6000;0.1498;-0.2175;
831.9000;0.1514;-0.2198;
832.2000;0.1506;-0.2151;
832.5000;0.1547;-0.2007;
832.8000;0.1490;-0.2222;
833.1000;0.1498;-0.2127;
833.4000;0.1506;-0.2127;
833.7000;0.1506;-0.2079;
834.0000;0.1490;-0.2055;
834.3000;0.1498;-0.2055;
834.6000;0.1522;-0.1936;
834.9000;0.1538;-0.1936;
835.2000;0.1514;-0.2079;
835.5000;0.1514;-0.2079;
835.8000;0.1514;-0.2031;
836.1000;0.1514;-0.2007;
836.4000;0.1506;-0.2007;
836.7000;0.1498;-0.1983;
837.0000;0.1498;-0.1936;
837.3000;0.1490;-0.2007;
837.6000;0.1530;-0.1983;
837.9000;0.1514;-0.2103;
838.2000;0.1481;-0.2103;
838.5000;0.1506;-0.2151;
838.8000;0.1514;-0.2175;
839.1000;0.1595;-0.1912;
839.4000;0.1538;-0.2007;
839.7000;0.1530;-0.2055;
840.0000;0.1522;-0.2007;
840.3000;0.1522;-0.1959;
840.6000;0.1530;-0.1959;
840.9000;0.1506;-0.1959;
841.2000;0.1530;-0.1864;
841.5000;0.1514;-0.1959;
841.8000;0.1514;-0.1983;
842.1000;0.1514;-0.2007;
842.4000;0.1506;-0.2031;
842.7000;0.1506;-0.1983;
843.0000;0.1522;-0.1936;
843.3000;0.1490;-0.2079;
843.6000;0.1506;-0.2103;
843.9000;0.1473;-0.2318;
844.2000;0.1498;-0.2246;
844.5000;0.1514;-0.2270;
844.8000;0.1498;-0.2294;
845.1000;0.1506;-0.2342;
845.4000;0.1530;-0.2246;
845.7000;0.1530;-0.2270;
846.0000;0.1579;-0.2079;
846.3000;0.1522;-0.2175;
846.6000;0.1547;-0.2055;
846.9000;0.1604;-0.1864;
847.2000;0.1514;-0.2175;
847.5000;0.1612;-0.1983;
847.8000;0.1604;-0.2055;
848.1000;0.1538;-0.2151;
848.4000;0.1514;-0.2198;
848.7000;0.1465;-0.2390;
849.0000;0.1514;-0.2294;
849.3000;0.1457;-0.2413;
849.6000;0.1514;-0.2222;
849.9000;0.1481;-0.2318;
850.2000;0.1530;-0.2198;
850.5000;0.1481;-0.2342;
850.8000;0.1530;-0.2270;
851.1000;0.1620;-0.2031;
851.4000;0.1506;-0.2390;
851.7000;0.1522;-0.2342;
852.0000;0.1547;-0.2270;
852.3000;0.1514;-0.2246;
852.6000;0.1538;-0.2198;
852.9000;0.1506;-0.2222;
853.2000;0.1514;-0.2151;
853.5000;0.1595;-0.1864;
853.8000;0.1498;-0.2103;
854.1000;0.1547;-0.2055;
854.4000;0.1530;-0.2127;
854.7000;0.1498;-0.2151;
855.0000;0.1481;-0.2246;
855.3000;0.1465;-0.2198;
855.6000;0.1522;-0.2103;
855.9000;0.1547;-0.2079;
856.2000;0.1514;-0.2127;
856.5000;0.1538;-0.2198;
856.8000;0.1506;-0.2294;
857.1000;0.1522;-0.2175;
857.4000;0.1498;-0.2079;
857.7000;0.1514;-0.2127;
858.0000;0.1506;-0.2079;
858.3000;0.1530;-0.2031;
858.6000;0.1433;-0.2366;
858.9000;0.1400;-0.2533;
859.2000;0.1408;-0.2485;
859.5000;0.1498;-0.2198;
859.8000;0.1522;-0.2198;
860.1000;0.1506;-0.2198;
860.4000;0.1538;-0.2246;
860.7000;0.1555;-0.2103;
861.0000;0.1498;-0.2246;
861.3000;0.1416;-0.2437;
861.6000;0.1490;-0.2342;
861.9000;0.1416;-0.2581;
862.2000;0.1522;-0.2270;
862.5000;0.1522;-0.2270;
862.8000;0.1506;-0.2270;
863.1000;0.1514;-0.2222;
863.4000;0.1522;-0.2198;
863.7000;0.1506;-0.2246;
864.0000;0.1522;-0.2175;
864.3000;0.1506;-0.2151;
864.6000;0.1506;-0.2198;
864.9000;0.1514;-0.2127;
865.2000;0.1441;-0.2318;
865.5000;0.1538;-0.2151;
865.8000;0.1514;-0.2198;
866.1000;0.1506;-0.2198;
866.4000;0.1506;-0.2222;
866.7000;0.1506;-0.2222;
867.0000;0.1522;-0.2079;
867.3000;0.1506;-0.2079;
867.6000;0.1538;-0.2031;
867.9000;0.1506;-0.2127;
868.2000;0.1498;-0.2246;
868.5000;0.1522;-0.2198;
868.8000;0.1498;-0.2294;
869.1000;0.1506;-0.2366;
869.4000;0.1514;-0.2294;
869.7000;0.1514;-0.2222;
870.0000;0.1514;-0.2222;
870.3000;0.1498;-0.2294;
870.6000;0.1522;-0.2151;
870.9000;0.1506;-0.2127;
871.2000;0.1498;-0.2127;
871.5000;0.1514;-0.2055;
871.8000;0.1522;-0.2103;
872.1000;0.1538;-0.2103;
872.4000;0.1612;-0.2031;
872.7000;0.1563;-0.2079;
873.0000;0.1506;-0.2294;
873.3000;0.1522;-0.2270;
873.6000;0.1530;-0.2175;
873.9000;0.1506;-0.2198;
874.2000;0.1498;-0.2198;
874.5000;0.1473;-0.2318;
874.8000;0.1514;-0.2198;
875.1000;0.1522;-0.2222;
875.4000;0.1522;-0.2270;
875.7000;0.1514;-0.2390;
876.0000;0.1538;-0.2270;
876.3000;0.1506;-0.2366;
876.6000;0.1514;-0.2413;
876.9000;0.1522;-0.2413;
877.2000;0.1498;-0.2437;
877.5000;0.1522;-0.2390;
877.8000;0.1514;-0.2342;
878.1000;0.1514;-0.2366;
878.4000;0.1514;-0.2342;
878.7000;0.1522;-0.2318;
879.0000;0.1522;-0.2366;
879.3000;0.1522;-0.2413;
879.6000;0.1514;-0.2366;
879.9000;0.1530;-0.2390;
880.2000;0.1433;-0.2581;
880.5000;0.1522;-0.2366;
880.8000;0.1538;-0.2294;
881.1000;0.1514;-0.2390;
881.4000;0.1571;-0.2366;
881.7000;0.1514;-0.2509;
882.0000;0.1538;-0.2437;
882.3000;0.1514;-0.2533;
882.6000;0.1514;-0.2461;
882.9000;0.1514;-0.2461;
883.2000;0.1498;-0.2461;
883.5000;0.1498;-0.2581;
883.8000;0.1498;-0.2605;
884.1000;0.1506;-0.2557;
884.4000;0.1498;-0.2461;
884.7000;0.1530;-0.2366;
885.0000;0.1514;-0.2437;
885.3000;0.1530;-0.2366;
885.6000;0.1522;-0.2390;
885.9000;0.1506;-0.2366;
886.2000;0.1661;-0.1959;
886.5000;0.1514;-0.2366;
886.8000;0.1514;-0.2366;
887.1000;0.1522;-0.2318;
887.4000;0.1587;-0.2127;
887.7000;0.1498;-0.2294;
888.0000;0.1522;-0.2246;
888.3000;0.1522;-0.2222;
888.6000;0.1522;-0.2175;
888.9000;0.1392;-0.2485;
889.2000;0.1522;-0.2079;
889.5000;0.1514;-0.2270;
889.8000;0.1547;-0.2222;
890.1000;0.1514;-0.2294;
890.4000;0.1538;-0.2270;
890.7000;0.1514;-0.2294;
891.0000;0.1481;-0.2294;
891.3000;0.1530;-0.2222;
891.6000;0.1490;-0.2318;
891.9000;0.1563;-0.2151;
892.2000;0.1530;-0.2246;
892.5000;0.1530;-0.2294;
892.8000;0.1522;-0.2342;
893.1000;0.1514;-0.2390;
893.4000;0.1514;-0.2318;
893.7000;0.1522;-0.2366;
894.0000;0.1514;-0.2390;
894.3000;0.1506;-0.2413;
894.6000;0.1498;-0.2485;
894.9000;0.1530;-0.2485;
895.2000;0.1522;-0.2390;
895.5000;0.1473;-0.2509;
895.8000;0.1514;-0.2437;
896.1000;0.1506;-0.2318;
896.4000;0.1514;-0.2222;
896.7000;0.1441;-0.2461;
897.0000;0.1506;-0.2222;
897.3000;0.1555;-0.2079;
897.6000;0.1514;-0.2222;
897.9000;0.1400;-0.2533;
898.2000;0.1530;-0.2222;
898.5000;0.1506;-0.2342;
898.8000;0.1449;-0.2485;
899.1000;0.1514;-0.2246;
899.4000;0.1506;-0.2270;
899.7000;0.1636;-0.1864;
900.0000;0.1514;-0.2151;
900.3000;0.1506;-0.2103;
900.6000;0.1530;-0.2175;
900.9000;0.1498;-0.2294;
901.2000;0.1530;-0.2222;
901.5000;0.1514;-0.2294;
901.8000;0.1595;-0.2103;
902.1000;0.1522;-0.2270;
902.4000;0.1636;-0.1983;
902.7000;0.1514;-0.2342;
903.0000;0.1595;-0.2079;
903.3000;0.1506;-0.2246;
903.6000;0.1530;-0.2198;
903.9000;0.1473;-0.2270;
904.2000;0.1506;-0.2175;
904.5000;0.1522;-0.2055;
904.8000;0.1514;-0.2055;
905.1000;0.1498;-0.2079;
905.4000;0.1490;-0.2127;
905.7000;0.1506;-0.2127;
906.0000;0.1506;-0.2127;
906.3000;0.1457;-0.2246;
906.6000;0.1522;-0.1983;
906.9000;0.1522;-0.1983;
907.2000;0.1514;-0.1959;
907.5000;0.1514;-0.1983;
907.8000;0.1522;-0.1983;
908.1000;0.1506;-0.2031;
908.4000;0.1538;-0.1983;
908.7000;0.1498;-0.2127;
909.0000;0.1514;-0.2103;
909.3000;0.1514;-0.2103;
909.6000;0.1498;-0.2151;
909.9000;0.1514;-0.2103;
910.2000;0.1522;-0.2031;
910.5000;0.1522;-0.2055;
910.8000;0.1522;-0.2031;
911.1000;0.1514;-0.2103;
911.4000;0.1522;-0.2127;
911.7000;0.1530;-0.2103;
912.0000;0.1522;-0.2198;
912.3000;0.1530;-0.2222;
912.6000;0.1522;-0.2222;
912.9000;0.1506;-0.2270;
913.2000;0.1506;-0.2318;
913.5000;0.1506;-0.2366;
913.8000;0.1473;-0.2509;
914.1000;0.1481;-0.2390;
914.4000;0.1506;-0.2270;
914.7000;0.1538;-0.2127;
915.0000;0.1514;-0.2127;
915.3000;0.1481;-0.2175;
915.6000;0.1538;-0.2007;
915.9000;0.1522;-0.2127;
916.2000;0.1538;-0.2079;
916.5000;0.1538;-0.2031;
916.8000;0.1514;-0.2151;
917.1000;0.1571;-0.2031;
917.4000;0.1506;-0.2151;
917.7000;0.1514;-0.2127;
918.0000;0.1522;-0.2198;
918.3000;0.1506;-0.2222;
918.6000;0.1514;-0.2222;
918.9000;0.1514;-0.2222;
919.2000;0.1506;-0.2151;
919.5000;0.1514;-0.2127;
919.8000;0.1506;-0.2055;
920.1000;0.1506;-0.2055;
920.4000;0.1376;-0.2318;
920.7000;0.1506;-0.2055;
921.0000;0.1522;-0.2079;
921.3000;0.1547;-0.2079;
921.6000;0.1604;-0.1840;
921.9000;0.1547;-0.2079;
922.2000;0.1506;-0.2103;
922.5000;0.1522;-0.2127;
922.8000;0.1514;-0.2151;
923.1000;0.1514;-0.2151;
923.4000;0.1506;-0.2103;
923.7000;0.1530;-0.2055;
924.0000;0.1514;-0.2103;
924.3000;0.1530;-0.1983;
924.6000;0.1522;-0.1983;
924.9000;0.1498;-0.2079;
925.2000;0.1595;-0.1768;
925.5000;0.1481;-0.2198;
925.8000;0.1498;-0.2151;
926.1000;0.1506;-0.2198;
926.4000;0.1555;-0.2055;
926.7000;0.1522;-0.2103;
927.0000;0.1359;-0.2581;
927.3000;0.1522;-0.2127;
927.6000;0.1547;-0.2127;
927.9000;0.1547;-0.2175;
928.2000;0.1384;-0.2581;
928.5000;0.1506;-0.2246;
928.8000;0.1506;-0.2198;
929.1000;0.1490;-0.2270;
929.4000;0.1514;-0.2246;
929.7000;0.1506;-0.2222;
930.0000;0.1522;-0.2127;
930.3000;0.1538;-0.2055;
930.6000;0.1530;-0.2103;
930.9000;0.1530;-0.2127;
931.2000;0.1522;-0.2103;
931.5000;0.1530;-0.2079;
931.8000;0.1498;-0.2175;
932.1000;0.1498;-0.2151;
932.4000;0.1465;-0.2246;
932.7000;0.1490;-0.2151;
933.0000;0.1522;-0.2031;
933.3000;0.1522;-0.2007;
933.6000;0.1522;-0.1983;
933.9000;0.1530;-0.1912;
934.2000;0.1563;-0.1840;
934.5000;0.1481;-0.2007;
934.8000;0.1457;-0.2055;
935.1000;0.1530;-0.1840;
935.4000;0.1449;-0.2055;
935.7000;0.1514;-0.1959;
936.0000;0.1514;-0.2055;
936.3000;0.1506;-0.2079;
936.6000;0.1538;-0.2103;
936.9000;0.1555;-0.2079;
937.2000;0.1506;-0.2246;
937.5000;0.1506;-0.2270;
937.8000;0.1522;-0.2222;
938.1000;0.1522;-0.2175;
938.4000;0.1530;-0.2246;
938.7000;0.1538;-0.2175;
939.0000;0.1490;-0.2294;
939.3000;0.1506;-0.2246;
939.6000;0.1514;-0.2246;
939.9000;0.1538;-0.2222;
940.2000;0.1514;-0.2270;
940.5000;0.1481;-0.2390;
940.8000;0.1530;-0.2151;
941.1000;0.1522;-0.2127;
941.4000;0.1547;-0.2055;
941.7000;0.1514;-0.2175;
942.0000;0.1506;-0.2079;
942.3000;0.1506;-0.1936;
942.6000;0.1522;-0.1983;
942.9000;0.1530;-0.1936;
943.2000;0.1530;-0.2007;
943.5000;0.1465;-0.2270;
943.8000;0.1481;-0.2246;
944.1000;0.1514;-0.2175;
944.4000;0.1538;-0.2055;
944.7000;0.1530;-0.2103;
945.0000;0.1481;-0.2198;
945.3000;0.1498;-0.2175;
945.6000;0.1498;-0.2198;
945.9000;0.1538;-0.2151;
946.2000;0.1522;-0.2318;
946.5000;0.1490;-0.2413;
946.8000;0.1514;-0.2390;
947.1000;0.1449;-0.2652;
947.4000;0.1530;-0.2390;
947.7000;0.1522;-0.2366;
948.0000;0.1473;-0.2366;
948.3000;0.1506;-0.2270;
948.6000;0.1449;-0.2366;
948.9000;0.1530;-0.2198;
949.2000;0.1408;-0.2581;
949.5000;0.1547;-0.2175;
949.8000;0.1538;-0.2198;
950.1000;0.1514;-0.2342;
950.4000;0.1530;-0.2175;
950.7000;0.1514;-0.2222;
951.0000;0.1490;-0.2318;
951.3000;0.1514;-0.2270;
951.6000;0.1490;-0.2294;
951.9000;0.1538;-0.2294;
952.2000;0.1587;-0.2055;
952.5000;0.1522;-0.2222;
952.8000;0.1538;-0.2175;
953.1000;0.1400;-0.2533;
953.4000;0.1530;-0.2055;
953.7000;0.1506;-0.2031;
954.0000;0.1498;-0.2127;
954.3000;0.1514;-0.2055;
954.6000;0.1530;-0.2079;
954.9000;0.1506;-0.2175;
955.2000;0.1514;-0.2079;
955.5000;0.1506;-0.2151;
955.8000;0.1514;-0.2127;
956.1000;0.1538;-0.2055;
956.4000;0.1514;-0.2079;
956.7000;0.1506;-0.2127;
957.0000;0.1449;-0.2246;
957.3000;0.1514;-0.2103;
957.6000;0.1514;-0.2079;
957.9000;0.1506;-0.2175;
958.2000;0.1506;-0.2079;
958.5000;0.1547;-0.1983;
958.8000;0.1514;-0.2007;
959.1000;0.1547;-0.1912;
959.4000;0.1514;-0.2055;
959.7000;0.1522;-0.2079;
960.0000;0.1522;-0.2079;
960.3000;0.1514;-0.2103;
960.6000;0.1547;-0.1959;
960.9000;0.1514;-0.2031;
961.2000;0.1506;-0.2127;
961.5000;0.1522;-0.2103;
961.8000;0.1498;-0.2175;
962.1000;0.1498;-0.2151;
962.4000;0.1481;-0.2151;
962.7000;0.1481;-0.2127;
963.0000;0.1506;-0.2151;
963.3000;0.1506;-0.2175;
963.6000;0.1514;-0.2175;
963.9000;0.1514;-0.2151;
964.2000;0.1514;-0.2151;
964.5000;0.1522;-0.2127;
964.8000;0.1522;-0.2079;
965.1000;0.1514;-0.2055;
965.4000;0.1514;-0.2079;
965.7000;0.1547;-0.1959;
966.0000;0.1522;-0.1983;
966.3000;0.1425;-0.2294;
966.6000;0.1506;-0.2079;
966.9000;0.1530;-0.2055;
967.2000;0.1490;-0.2127;
967.5000;0.1481;-0.2198;
967.8000;0.1514;-0.1983;
968.1000;0.1506;-0.1983;
968.4000;0.1538;-0.1912;
968.7000;0.1465;-0.2127;
969.0000;0.1612;-0.1840;
969.3000;0.1538;-0.2079;
969.6000;0.1498;-0.2127;
969.9000;0.1481;-0.2222;
970.2000;0.1555;-0.2103;
970.5000;0.1530;-0.2175;
970.8000;0.1506;-0.2222;
971.1000;0.1506;-0.2127;
971.4000;0.1506;-0.2127;
971.7000;0.1498;-0.2175;
972.0000;0.1481;-0.2175;
972.3000;0.1498;-0.2222;
972.6000;0.1514;-0.2151;
972.9000;0.1506;-0.2079;
973.2000;0.1498;-0.2031;
973.5000;0.1506;-0.2031;
973.8000;0.1506;-0.2055;
974.1000;0.1506;-0.2127;
974.4000;0.1514;-0.2055;
974.7000;0.1514;-0.2151;
975.0000;0.1498;-0.2222;
975.3000;0.1433;-0.2437;
975.6000;0.1538;-0.2151;
975.9000;0.1530;-0.2127;
976.2000;0.1514;-0.2103;
976.5000;0.1522;-0.2079;
976.8000;0.1538;-0.2055;
977.1000;0.1604;-0.1840;
977.4000;0.1514;-0.2055;
977.7000;0.1530;-0.2079;
978.0000;0.1514;-0.2127;
978.3000;0.1547;-0.2055;
978.6000;0.1506;-0.2103;
978.9000;0.1473;-0.2270;
979.2000;0.1555;-0.2151;
979.5000;0.1522;-0.2222;
979.8000;0.1514;-0.2246;
980.1000;0.1473;-0.2366;
980.4000;0.1547;-0.2175;
980.7000;0.1530;-0.2198;
981.0000;0.1498;-0.2270;
981.3000;0.1490;-0.2270;
981.6000;0.1522;-0.2175;
981.9000;0.1530;-0.2246;
982.2000;0.1628;-0.2079;
982.5000;0.1506;-0.2342;
982.8000;0.1522;-0.2270;
983.1000;0.1563;-0.2103;
983.4000;0.1514;-0.2198;
983.7000;0.1514;-0.2151;
984.0000;0.1490;-0.2127;
984.3000;0.1506;-0.2079;
984.6000;0.1498;-0.2127;
984.9000;0.1514;-0.2175;
985.2000;0.1449;-0.2390;
985.5000;0.1498;-0.2270;
985.8000;0.1530;-0.2103;
986.1000;0.1522;-0.2079;
986.4000;0.1538;-0.2079;
986.7000;0.1465;-0.2246;
987.0000;0.1514;-0.2127;
987.3000;0.1490;-0.2175;
987.6000;0.1498;-0.2222;
987.9000;0.1498;-0.2270;
988.2000;0.1498;-0.2294;
988.5000;0.1514;-0.2294;
988.8000;0.1506;-0.2294;
989.1000;0.1514;-0.2294;
989.4000;0.1514;-0.2222;
989.7000;0.1579;-0.2055;
990.0000;0.1506;-0.2318;
990.3000;0.1514;-0.2270;
990.6000;0.1563;-0.2127;
990.9000;0.1473;-0.2342;
991.2000;0.1522;-0.2198;
991.5000;0.1473;-0.2270;
991.8000;0.1514;-0.2222;
992.1000;0.1514;-0.2246;
992.4000;0.1514;-0.2318;
992.7000;0.1538;-0.2246;
993.0000;0.1473;-0.2294;
993.3000;0.1538;-0.2175;
993.6000;0.1530;-0.2175;
993.9000;0.1514;-0.2198;
994.2000;0.1416;-0.2413;
994.5000;0.1490;-0.2151;
994.8000;0.1530;-0.1983;
995.1000;0.1514;-0.1983;
995.4000;0.1498;-0.1936;
995.7000;0.1498;-0.1912;
996.0000;0.1522;-0.1864;
996.3000;0.1522;-0.1888;
996.6000;0.1514;-0.2031;
996.9000;0.1506;-0.2007;
997.2000;0.1481;-0.2079;
997.5000;0.1441;-0.2246;
997.8000;0.1506;-0.2007;
998.1000;0.1514;-0.2031;
998.4000;0.1530;-0.2007;
998.7000;0.1522;-0.1983;
999.0000;0.1498;-0.1959;
999.3000;0.1433;-0.2270;
999.6000;0.1506;-0.2103;
999.9000;0.1522;-0.2079;
1000.2000;0.1506;-0.2175;
1000.5000;0.1514;-0.2222;
1000.8000;0.1547;-0.2079;
1001.1000;0.1506;-0.2103;
1001.4000;0.1522;-0.2007;
1001.7000;0.1498;-0.1936;
1002.0000;0.1514;-0.1959;
1002.3000;0.1547;-0.2007;
1002.6000;0.1522;-0.2055;
1002.9000;0.1522;-0.2007;
1003.2000;0.1530;-0.1912;
1003.5000;0.1530;-0.1936;
1003.8000;0.1522;-0.1888;
1004.1000;0.1530;-0.1840;
1004.4000;0.1538;-0.1816;
1004.7000;0.1522;-0.1816;
1005.0000;0.1465;-0.2007;
1005.3000;0.1530;-0.1936;
1005.6000;0.1530;-0.2007;
1005.9000;0.1514;-0.2007;
1006.2000;0.1408;-0.2270;
1006.5000;0.1522;-0.1959;
1006.8000;0.1547;-0.1768;
1007.1000;0.1514;-0.1816;
1007.4000;0.1547;-0.1673;
1007.7000;0.1514;-0.1721;
1008.0000;0.1530;-0.1744;
1008.3000;0.1506;-0.1888;
1008.6000;0.1506;-0.1864;
1008.9000;0.1522;-0.1888;
1009.2000;0.1514;-0.1888;
1009.5000;0.1490;-0.1888;
1009.8000;0.1522;-0.1768;
1010.1000;0.1538;-0.1721;
1010.4000;0.1506;-0.1792;
1010.7000;0.1498;-0.1888;
1011.0000;0.1457;-0.1959;
1011.3000;0.1522;-0.1816;
1011.6000;0.1498;-0.1864;
1011.9000;0.1587;-0.1577;
1012.2000;0.1538;-0.1697;
1012.5000;0.1457;-0.1864;
1012.8000;0.1538;-0.1673;
1013.1000;0.1530;-0.1816;
1013.4000;0.1514;-0.1888;
1013.7000;0.1522;-0.1912;
1014.0000;0.1465;-0.2127;
1014.3000;0.1498;-0.1936;
1014.6000;0.1530;-0.1816;
1014.9000;0.1498;-0.1983;
1015.2000;0.1547;-0.1816;
1015.5000;0.1514;-0.1983;
1015.8000;0.1498;-0.2055;
1016.1000;0.1506;-0.1936;
1016.4000;0.1514;-0.1983;
1016.7000;0.1514;-0.2031;
1017.0000;0.1514;-0.2031;
1017.3000;0.1490;-0.2079;
1017.6000;0.1514;-0.2031;
1017.9000;0.1514;-0.2031;
1018.2000;0.1514;-0.2055;
1018.5000;0.1457;-0.2175;
1018.8000;0.1506;-0.2007;
1019.1000;0.1522;-0.1983;
1019.4000;0.1644;-0.1577;
1019.7000;0.1530;-0.1912;
1020.0000;0.1547;-0.1959;
1020.3000;0.1522;-0.1983;
1020.6000;0.1571;-0.1816;
1020.9000;0.1522;-0.1888;
1021.2000;0.1481;-0.2079;
1021.5000;0.1441;-0.2222;
1021.8000;0.1530;-0.2055;
1022.1000;0.1522;-0.2079;
1022.4000;0.1441;-0.2318;
1022.7000;0.1490;-0.2198;
1023.0000;0.1522;-0.2055;
1023.3000;0.1506;-0.2055;
1023.6000;0.1530;-0.2007;
1023.9000;0.1530;-0.2007;
1024.2000;0.1506;-0.2031;
1024.5000;0.1498;-0.2031;
1024.8000;0.1498;-0.1912;
1025.1000;0.1506;-0.1912;
1025.4000;0.1530;-0.1888;
1025.7000;0.1530;-0.1983;
1026.0000;0.1530;-0.2031;
1026.3000;0.1522;-0.2007;
1026.6000;0.1506;-0.2079;
1026.9000;0.1506;-0.2103;
1027.2000;0.1506;-0.2079;
1027.5000;0.1522;-0.2031;
1027.8000;0.1514;-0.2103;
1028.1000;0.1506;-0.2031;
1028.4000;0.1555;-0.2007;
1028.7000;0.1514;-0.2198;
1029.0000;0.1481;-0.2318;
1029.3000;0.1514;-0.2198;
1029.6000;0.1522;-0.2246;
1029.9000;0.1506;-0.2222;
1030.2000;0.1522;-0.2222;
1030.5000;0.1522;-0.2294;
1030.8000;0.1530;-0.2270;
1031.1000;0.1555;-0.2175;
1031.4000;0.1530;-0.2246;
1031.7000;0.1530;-0.2294;
1032.0000;0.1530;-0.2270;
1032.3000;0.1514;-0.2270;
1032.6000;0.1522;-0.2198;
1032.9000;0.1522;-0.2270;
1033.2000;0.1612;-0.2127;
1033.5000;0.1530;-0.2318;
1033.8000;0.1522;-0.2318;
1034.1000;0.1514;-0.2366;
1034.4000;0.1628;-0.2079;
1034.7000;0.1522;-0.2437;
1035.0000;0.1530;-0.2366;
1035.3000;0.1538;-0.2270;
1035.6000;0.1506;-0.2246;
1035.9000;0.1514;-0.2246;
1036.2000;0.1547;-0.2175;
1036.5000;0.1628;-0.1840;
1036.8000;0.1506;-0.2103;
1037.1000;0.1449;-0.2198;
1037.4000;0.1522;-0.2031;
1037.7000;0.1514;-0.2079;
1038.0000;0.1498;-0.2079;
1038.3000;0.1514;-0.2055;
1038.6000;0.1530;-0.2079;
1038.9000;0.1506;-0.2127;
1039.2000;0.1481;-0.2222;
1039.5000;0.1498;-0.2103;
1039.8000;0.1498;-0.2198;
1040.1000;0.1425;-0.2366;
1040.4000;0.1522;-0.2127;
1040.7000;0.1514;-0.2127;
1041.0000;0.1473;-0.2222;
1041.3000;0.1571;-0.1816;
1041.6000;0.1530;-0.1936;
1041.9000;0.1579;-0.1840;
1042.2000;0.1514;-0.1959;
1042.5000;0.1490;-0.1983;
1042.8000;0.1498;-0.2007;
1043.1000;0.1726;-0.1482;
1043.4000;0.1547;-0.1983;
1043.7000;0.1514;-0.2031;
1044.0000;0.1481;-0.2103;
1044.3000;0.1490;-0.2031;
1044.6000;0.1490;-0.2175;
1044.9000;0.1514;-0.2151;
1045.2000;0.1490;-0.2175;
1045.5000;0.1514;-0.2103;
1045.8000;0.1522;-0.2151;
1046.1000;0.1530;-0.2127;
1046.4000;0.1490;-0.2294;
1046.7000;0.1506;-0.2151;
1047.0000;0.1481;-0.2222;
1047.3000;0.1481;-0.2294;
1047.6000;0.1514;-0.2175;
1047.9000;0.1514;-0.2127;
1048.2000;0.1498;-0.2175;
1048.5000;0.1514;-0.2222;
1048.8000;0.1506;-0.2175;
1049.1000;0.1498;-0.2151;
1049.4000;0.1498;-0.2079;
1049.7000;0.1506;-0.2103;
1050.0000;0.1538;-0.1912;
1050.3000;0.1522;-0.1912;
1050.6000;0.1514;-0.1888;
1050.9000;0.1522;-0.1936;
1051.2000;0.1579;-0.1792;
1051.5000;0.1514;-0.2007;
1051.8000;0.1522;-0.1983;
1052.1000;0.1481;-0.2031;
1052.4000;0.1506;-0.1888;
1052.7000;0.1530;-0.1864;
1053.0000;0.1514;-0.1888;
1053.3000;0.1555;-0.1721;
1053.6000;0.1530;-0.1816;
1053.9000;0.1490;-0.1936;
1054.2000;0.1522;-0.1816;
1054.5000;0.1514;-0.1864;
1054.8000;0.1514;-0.1792;
1055.1000;0.1547;-0.1673;
1055.4000;0.1538;-0.1744;
1055.7000;0.1522;-0.1816;
1056.0000;0.1506;-0.1840;
1056.3000;0.1506;-0.1792;
1056.6000;0.1530;-0.1744;
1056.9000;0.1449;-0.2031;
1057.2000;0.1514;-0.1864;
1057.5000;0.1530;-0.1864;
1057.8000;0.1498;-0.1912;
1058.1000;0.1425;-0.2246;
1058.4000;0.1530;-0.1936;
1058.7000;0.1425;-0.2175;
1059.0000;0.1514;-0.1983;
1059.3000;0.1571;-0.1840;
1059.6000;0.1514;-0.1936;
1059.9000;0.1571;-0.1816;
1060.2000;0.1506;-0.1888;
1060.5000;0.1538;-0.1768;
1060.8000;0.1522;-0.1768;
1061.1000;0.1530;-0.1768;
1061.4000;0.1522;-0.1744;
1061.7000;0.1506;-0.1792;
1062.0000;0.1530;-0.1697;
1062.3000;0.1530;-0.1768;
1062.6000;0.1530;-0.1697;
1062.9000;0.1522;-0.1744;
1063.2000;0.1490;-0.1864;
1063.5000;0.1522;-0.1816;
1063.8000;0.1506;-0.1888;
1064.1000;0.1514;-0.1959;
1064.4000;0.1514;-0.1912;
1064.7000;0.1514;-0.1888;
1065.0000;0.1514;-0.1888;
1065.3000;0.1571;-0.1768;
1065.6000;0.1522;-0.1912;
1065.9000;0.1522;-0.1888;
1066.2000;0.1498;-0.1959;
1066.5000;0.1506;-0.1912;
1066.8000;0.1555;-0.1840;
1067.1000;0.1530;-0.1864;
1067.4000;0.1514;-0.1864;
1067.7000;0.1514;-0.1888;
1068.0000;0.1514;-0.1959;
1068.3000;0.1514;-0.2031;
1068.6000;0.1522;-0.1983;
1068.9000;0.1514;-0.2031;
1069.2000;0.1490;-0.2055;
1069.5000;0.1490;-0.2055;
1069.8000;0.1514;-0.2055;
1070.1000;0.1498;-0.1983;
1070.4000;0.1530;-0.1864;
1070.7000;0.1514;-0.1888;
1071.0000;0.1506;-0.1888;
1071.3000;0.1498;-0.1840;
1071.6000;0.1506;-0.1912;
1071.9000;0.1506;-0.2007;
1072.2000;0.1514;-0.1959;
1072.5000;0.1530;-0.1936;
1072.8000;0.1522;-0.1983;
1073.1000;0.1522;-0.2079;
1073.4000;0.1547;-0.2103;
1073.7000;0.1522;-0.2103;
1074.0000;0.1514;-0.2055;
1074.3000;0.1449;-0.2151;
1074.6000;0.1514;-0.1959;
1074.9000;0.1498;-0.1959;
1075.2000;0.1506;-0.2079;
1075.5000;0.1522;-0.1983;
1075.8000;0.1514;-0.1983;
1076.1000;0.1538;-0.2031;
1076.4000;0.1498;-0.2079;
1076.7000;0.1506;-0.1983;
1077.0000;0.1530;-0.1912;
1077.3000;0.1587;-0.1744;
1077.6000;0.1522;-0.2007;
1077.9000;0.1481;-0.2031;
1078.2000;0.1506;-0.2055;
1078.5000;0.1530;-0.2031;
1078.8000;0.1530;-0.2007;
1079.1000;0.1563;-0.1959;
1079.4000;0.1538;-0.2031;
1079.7000;0.1449;-0.2198;
1080.0000;0.1538;-0.1936;
1080.3000;0.1538;-0.1983;
1080.6000;0.1522;-0.2127;
1080.9000;0.1506;-0.2198;
1081.2000;0.1514;-0.2175;
1081.5000;0.1498;-0.2175;
1081.8000;0.1522;-0.2103;
1082.1000;0.1506;-0.2055;
1082.4000;0.1522;-0.1912;
1082.7000;0.1506;-0.1912;
1083.0000;0.1530;-0.1816;
1083.3000;0.1425;-0.1983;
1083.6000;0.1538;-0.1721;
1083.9000;0.1530;-0.1721;
1084.2000;0.1514;-0.1721;
1084.5000;0.1473;-0.1864;
1084.8000;0.1465;-0.1936;
1085.1000;0.1514;-0.1816;
1085.4000;0.1522;-0.1864;
1085.7000;0.1514;-0.1888;
1086.0000;0.1514;-0.1912;
1086.3000;0.1538;-0.1888;
1086.6000;0.1522;-0.1983;
1086.9000;0.1530;-0.1959;
1087.2000;0.1538;-0.1912;
1087.5000;0.1522;-0.1888;
1087.8000;0.1530;-0.1888;
1088.1000;0.1522;-0.1912;
1088.4000;0.1514;-0.2007;
1088.7000;0.1530;-0.2007;
1089.0000;0.1547;-0.1936;
1089.3000;0.1506;-0.2079;
1089.6000;0.1522;-0.1912;
1089.9000;0.1530;-0.1864;
1090.2000;0.1530;-0.1888;
1090.5000;0.1522;-0.1936;
1090.8000;0.1522;-0.1912;
1091.1000;0.1530;-0.1959;
1091.4000;0.1514;-0.2079;
1091.7000;0.1530;-0.2031;
1092.0000;0.1530;-0.1983;
1092.3000;0.1506;-0.1959;
1092.6000;0.1498;-0.1936;
1092.9000;0.1522;-0.1912;
1093.2000;0.1498;-0.1959;
1093.5000;0.1514;-0.1816;
1093.8000;0.1522;-0.1768;
1094.1000;0.1522;-0.1744;
1094.4000;0.1506;-0.1816;
1094.7000;0.1522;-0.1816;
1095.0000;0.1522;-0.1697;
1095.3000;0.1530;-0.1721;
1095.6000;0.1530;-0.1816;
1095.9000;0.1514;-0.1912;
1096.2000;0.1530;-0.1840;
1096.5000;0.1506;-0.1888;
1096.8000;0.1522;-0.1792;
1097.1000;0.1522;-0.1840;
1097.4000;0.1498;-0.1792;
1097.7000;0.1530;-0.1721;
1098.0000;0.1498;-0.1840;
1098.3000;0.1506;-0.1768;
1098.6000;0.1522;-0.1649;
1098.9000;0.1506;-0.1768;
1099.2000;0.1506;-0.1792;
1099.5000;0.1530;-0.1792;
1099.8000;0.1530;-0.1888;
1100.1000;0.1522;-0.1936;
1100.4000;0.1490;-0.1959;
1100.7000;0.1522;-0.1864;
1101.0000;0.1514;-0.1840;
1101.3000;0.1481;-0.1983;
1101.6000;0.1514;-0.1912;
1101.9000;0.1555;-0.1744;
1102.2000;0.1506;-0.1912;
1102.5000;0.1514;-0.1912;
1102.8000;0.1514;-0.1888;
1103.1000;0.1481;-0.2031;
1103.4000;0.1498;-0.2007;
1103.7000;0.1522;-0.1912;
1104.0000;0.1506;-0.1912;
1104.3000;0.1547;-0.1816;
1104.6000;0.1522;-0.1912;
1104.9000;0.1563;-0.1792;
1105.2000;0.1514;-0.1840;
1105.5000;0.1522;-0.1840;
1105.8000;0.1522;-0.1816;
1106.1000;0.1522;-0.1792;
1106.4000;0.1498;-0.1912;
1106.7000;0.1506;-0.1888;
1107.0000;0.1620;-0.1649;
1107.3000;0.1498;-0.2031;
1107.6000;0.1514;-0.2031;
1107.9000;0.1506;-0.2031;
1108.2000;0.1392;-0.2318;
1108.5000;0.1514;-0.2031;
1108.8000;0.1506;-0.2055;
1109.1000;0.1506;-0.2007;
1109.4000;0.1522;-0.1936;
1109.7000;0.1522;-0.1983;
1110.0000;0.1506;-0.2079;
1110.3000;0.1490;-0.2151;
1110.6000;0.1522;-0.2127;
1110.9000;0.1514;-0.2198;
1111.2000;0.1506;-0.2270;
1111.5000;0.1498;-0.2342;
1111.8000;0.1514;-0.2366;
1112.1000;0.1490;-0.2413;
1112.4000;0.1514;-0.2342;
1112.7000;0.1514;-0.2222;
1113.0000;0.1490;-0.2246;
1113.3000;0.1522;-0.2127;
1113.6000;0.1522;-0.2103;
1113.9000;0.1506;-0.2151;
1114.2000;0.1473;-0.2175;
1114.5000;0.1555;-0.1959;
1114.8000;0.1530;-0.2055;
1115.1000;0.1498;-0.2103;
1115.4000;0.1547;-0.2031;
1115.7000;0.1514;-0.2127;
1116.0000;0.1514;-0.2103;
1116.3000;0.1547;-0.2007;
1116.6000;0.1522;-0.1983;
1116.9000;0.1506;-0.2031;
1117.2000;0.1547;-0.1959;
1117.5000;0.1522;-0.2007;
1117.8000;0.1514;-0.2007;
1118.1000;0.1522;-0.2007;
1118.4000;0.1473;-0.2151;
1118.7000;0.1522;-0.2055;
1119.0000;0.1490;-0.2222;
1119.3000;0.1538;-0.2198;
1119.6000;0.1620;-0.1959;
1119.9000;0.1530;-0.2031;
1120.2000;0.1522;-0.2031;
1120.5000;0.1514;-0.1959;
1120.8000;0.1514;-0.1912;
1121.1000;0.1530;-0.1888;
1121.4000;0.1522;-0.1959;
1121.7000;0.1514;-0.2007;
1122.0000;0.1514;-0.2103;
1122.3000;0.1498;-0.2079;
1122.6000;0.1530;-0.1936;
1122.9000;0.1514;-0.1936;
1123.2000;0.1555;-0.1864;
1123.5000;0.1530;-0.1936;
1123.8000;0.1457;-0.2151;
1124.1000;0.1522;-0.2007;
1124.4000;0.1514;-0.2007;
1124.7000;0.1506;-0.2031;
1125.0000;0.1514;-0.2055;
1125.3000;0.1514;-0.2079;
1125.6000;0.1506;-0.2103;
1125.9000;0.1457;-0.2270;
1126.2000;0.1530;-0.2079;
1126.5000;0.1530;-0.2151;
1126.8000;0.1506;-0.2151;
1127.1000;0.1506;-0.2151;
1127.4000;0.1522;-0.2079;
1127.7000;0.1579;-0.1983;
1128.0000;0.1498;-0.2175;
1128.3000;0.1530;-0.2222;
1128.6000;0.1514;-0.2294;
1128.9000;0.1522;-0.2222;
1129.2000;0.1473;-0.2294;
1129.5000;0.1522;-0.2103;
1129.8000;0.1530;-0.2055;
1130.1000;0.1425;-0.2270;
1130.4000;0.1490;-0.2103;
1130.7000;0.1514;-0.2079;
1131.0000;0.1522;-0.2103;
1131.3000;0.1530;-0.2079;
1131.6000;0.1498;-0.2175;
1131.9000;0.1506;-0.2031;
1132.2000;0.1522;-0.2031;
1132.5000;0.1587;-0.1864;
1132.8000;0.1522;-0.2079;
1133.1000;0.1457;-0.2103;
1133.4000;0.1587;-0.1768;
1133.7000;0.1522;-0.1936;
1134.0000;0.1530;-0.1936;
1134.3000;0.1579;-0.1744;
1134.6000;0.1530;-0.1936;
1134.9000;0.1473;-0.2127;
1135.2000;0.1530;-0.1936;
1135.5000;0.1514;-0.2031;
1135.8000;0.1506;-0.2055;
1136.1000;0.1547;-0.1959;
1136.4000;0.1538;-0.1959;
1136.7000;0.1530;-0.1912;
1137.0000;0.1498;-0.1936;
1137.3000;0.1514;-0.1936;
1137.6000;0.1530;-0.1959;
1137.9000;0.1514;-0.2079;
1138.2000;0.1636;-0.1792;
1138.5000;0.1514;-0.2103;
1138.8000;0.1392;-0.2413;
1139.1000;0.1530;-0.2007;
1139.4000;0.1514;-0.2007;
1139.7000;0.1530;-0.2031;
1140.0000;0.1522;-0.2007;
1140.3000;0.1506;-0.2127;
1140.6000;0.1530;-0.2031;
1140.9000;0.1514;-0.2079;
1141.2000;0.1506;-0.2103;
1141.5000;0.1579;-0.1983;
1141.8000;0.1506;-0.2151;
1142.1000;0.1530;-0.2103;
1142.4000;0.1530;-0.2031;
1142.7000;0.1490;-0.2127;
1143.0000;0.1514;-0.2079;
1143.3000;0.1522;-0.2055;
1143.6000;0.1604;-0.1912;
1143.9000;0.1522;-0.2031;
1144.2000;0.1522;-0.1983;
1144.5000;0.1514;-0.2079;
1144.8000;0.1514;-0.2175;
1145.1000;0.1514;-0.2175;
1145.4000;0.1514;-0.2222;
1145.7000;0.1522;-0.2103;
1146.0000;0.1506;-0.2079;
1146.3000;0.1506;-0.2055;
1146.6000;0.1514;-0.2007;
1146.9000;0.1449;-0.2079;
1147.2000;0.1547;-0.1912;
1147.5000;0.1457;-0.2103;
1147.8000;0.1506;-0.1912;
1148.1000;0.1530;-0.1888;
1148.4000;0.1514;-0.1888;
1148.7000;0.1514;-0.1912;
1149.0000;0.1538;-0.1864;
1149.3000;0.1433;-0.2222;
1149.6000;0.1530;-0.2031;
1149.9000;0.1587;-0.1840;
1150.2000;0.1571;-0.2055;
1150.5000;0.1563;-0.2103;
1150.8000;0.1506;-0.2222;
1151.1000;0.1522;-0.2222;
1151.4000;0.1498;-0.2246;
1151.7000;0.1636;-0.1840;
1152.0000;0.1530;-0.2222;
1152.3000;0.1514;-0.2175;
1152.6000;0.1514;-0.2222;
1152.9000;0.1522;-0.2103;
1153.2000;0.1530;-0.2007;
1153.5000;0.1538;-0.2079;
1153.8000;0.1538;-0.2079;
1154.1000;0.1506;-0.2222;
1154.4000;0.1522;-0.2127;
1154.7000;0.1506;-0.2151;
1155.0000;0.1563;-0.2079;
1155.3000;0.1514;-0.2103;
1155.6000;0.1530;-0.2079;
1155.9000;0.1579;-0.2031;
1156.2000;0.1506;-0.2151;
1156.5000;0.1498;-0.2079;
1156.8000;0.1506;-0.2031;
1157.1000;0.1465;-0.2198;
1157.4000;0.1547;-0.2007;
1157.7000;0.1465;-0.2294;
1158.0000;0.1571;-0.1959;
1158.3000;0.1441;-0.2318;
1158.6000;0.1506;-0.2103;
1158.9000;0.1465;-0.2246;
1159.2000;0.1514;-0.2079;
1159.5000;0.1522;-0.2031;
1159.8000;0.1506;-0.2031;
1160.1000;0.1506;-0.2103;
1160.4000;0.1538;-0.2079;
1160.7000;0.1514;-0.2103;
1161.0000;0.1514;-0.2079;
1161.3000;0.1522;-0.2079;
1161.6000;0.1514;-0.2103;
1161.9000;0.1490;-0.2175;
1162.2000;0.1514;-0.2103;
1162.5000;0.1538;-0.2031;
1162.8000;0.1514;-0.2103;
1163.1000;0.1514;-0.2222;
1163.4000;0.1506;-0.2270;
1163.7000;0.1547;-0.2175;
1164.0000;0.1547;-0.2151;
1164.3000;0.1506;-0.2246;
1164.6000;0.1514;-0.2103;
1164.9000;0.1530;-0.2007;
1165.2000;0.1530;-0.2055;
1165.5000;0.1530;-0.2103;
1165.8000;0.1506;-0.2175;
1166.1000;0.1547;-0.2031;
1166.4000;0.1538;-0.2055;
1166.7000;0.1506;-0.2175;
1167.0000;0.1514;-0.2127;
1167.3000;0.1522;-0.2055;
1167.6000;0.1384;-0.2390;
1167.9000;0.1522;-0.1959;
1168.2000;0.1506;-0.1936;
1168.5000;0.1498;-0.1983;
1168.8000;0.1506;-0.1936;
1169.1000;0.1498;-0.1959;
1169.4000;0.1498;-0.1959;
1169.7000;0.1530;-0.1936;
1170.0000;0.1514;-0.1983;
1170.3000;0.1514;-0.2031;
1170.6000;0.1506;-0.2031;
1170.9000;0.1506;-0.2151;
1171.2000;0.1522;-0.2055;
1171.5000;0.1522;-0.2031;
1171.8000;0.1514;-0.2127;
1172.1000;0.1530;-0.2222;
1172.4000;0.1522;-0.2246;
1172.7000;0.1514;-0.2342;
1173.0000;0.1514;-0.2342;
1173.3000;0.1384;-0.2748;
1173.6000;0.1522;-0.2390;
1173.9000;0.1514;-0.2390;
1174.2000;0.1538;-0.2270;
1174.5000;0.1335;-0.2772;
1174.8000;0.1522;-0.2270;
1175.1000;0.1449;-0.2461;
1175.4000;0.1620;-0.2031;
1175.7000;0.1514;-0.2318;
1176.0000;0.1604;-0.2127;
1176.3000;0.1538;-0.2318;
1176.6000;0.1490;-0.2413;
1176.9000;0.1490;-0.2390;
1177.2000;0.1514;-0.2246;
1177.5000;0.1530;-0.2127;
1177.8000;0.1530;-0.2127;
1178.1000;0.1514;-0.2103;
1178.4000;0.1555;-0.1959;
1178.7000;0.1481;-0.2151;
1179.0000;0.1498;-0.2151;
1179.3000;0.1514;-0.1983;
1179.6000;0.1514;-0.1936;
1179.9000;0.1506;-0.1936;
1180.2000;0.1506;-0.1912;
1180.5000;0.1506;-0.1936;
1180.8000;0.1538;-0.1936;
1181.1000;0.1522;-0.1983;
1181.4000;0.1547;-0.1936;
1181.7000;0.1506;-0.2079;
1182.0000;0.1514;-0.2031;
1182.3000;0.1514;-0.2103;
1182.6000;0.1506;-0.2079;
1182.9000;0.1538;-0.2031;
1183.2000;0.1473;-0.2175;
1183.5000;0.1522;-0.2007;
1183.8000;0.1522;-0.2031;
1184.1000;0.1457;-0.2222;
1184.4000;0.1514;-0.2031;
1184.7000;0.1514;-0.2031;
1185.0000;0.1514;-0.2055;
1185.3000;0.1538;-0.1983;
1185.6000;0.1506;-0.2007;
1185.9000;0.1498;-0.2055;
1186.2000;0.1555;-0.1864;
1186.5000;0.1490;-0.2079;
1186.8000;0.1530;-0.2007;
1187.1000;0.1522;-0.1983;
1187.4000;0.1481;-0.2031;
1187.7000;0.1522;-0.1959;
1188.0000;0.1530;-0.1864;
1188.3000;0.1547;-0.1816;
1188.6000;0.1514;-0.1816;
1188.9000;0.1514;-0.1816;
1189.2000;0.1538;-0.1792;
1189.5000;0.1530;-0.1792;
1189.8000;0.1514;-0.1792;
1190.1000;0.1506;-0.1816;
1190.4000;0.1465;-0.1888;
1190.7000;0.1498;-0.1840;
1191.0000;0.1498;-0.1936;
1191.3000;0.1571;-0.1721;
1191.6000;0.1498;-0.1864;
1191.9000;0.1498;-0.1792;
1192.2000;0.1538;-0.1744;
1192.5000;0.1522;-0.1840;
1192.8000;0.1530;-0.1840;
1193.1000;0.1530;-0.1816;
1193.4000;0.1530;-0.1864;
1193.7000;0.1530;-0.1912;
1194.0000;0.1522;-0.1888;
1194.3000;0.1506;-0.1888;
1194.6000;0.1514;-0.1912;
1194.9000;0.1498;-0.1936;
1195.2000;0.1506;-0.1936;
1195.5000;0.1522;-0.1983;
1195.8000;0.1506;-0.1936;
1196.1000;0.1522;-0.1912;
1196.4000;0.1538;-0.1912;
1196.7000;0.1506;-0.2007;
1197.0000;0.1530;-0.1959;
1197.3000;0.1498;-0.2055;
1197.6000;0.1514;-0.1983;
1197.9000;0.1498;-0.2055;
1198.2000;0.1490;-0.2127;
1198.5000;0.1522;-0.1983;
1198.8000;0.1498;-0.2031;
1199.1000;0.1506;-0.2007;
1199.4000;0.1498;-0.2055;
1199.7000;0.1538;-0.1959;
1200.0000;0.1522;-0.1888;
1200.3000;0.1514;-0.1959;
1200.6000;0.1498;-0.1959;
1200.9000;0.1449;-0.2103;
1201.2000;0.1506;-0.1959;
1201.5000;0.1490;-0.2007;
1201.8000;0.1506;-0.2151;
1202.1000;0.1506;-0.2127;
1202.4000;0.1538;-0.1936;
1202.7000;0.1530;-0.1912;
1203.0000;0.1506;-0.1912;
1203.3000;0.1506;-0.1983;
1203.6000;0.1547;-0.1816;
1203.9000;0.1506;-0.1864;
1204.2000;0.1506;-0.1959;
1204.5000;0.1530;-0.1888;
1204.8000;0.1506;-0.1936;
1205.1000;0.1547;-0.1840;
1205.4000;0.1522;-0.1912;
1205.7000;0.1506;-0.2055;
1206.0000;0.1514;-0.2079;
1206.3000;0.1506;-0.2079;
1206.6000;0.1530;-0.2007;
1206.9000;0.1530;-0.2055;
1207.2000;0.1514;-0.2175;
1207.5000;0.1506;-0.2151;
1207.8000;0.1530;-0.2127;
1208.1000;0.1514;-0.2079;
1208.4000;0.1522;-0.2079;
1208.7000;0.1538;-0.2031;
1209.0000;0.1530;-0.2079;
1209.3000;0.1465;-0.2246;
1209.6000;0.1538;-0.2103;
1209.9000;0.1547;-0.2175;
1210.2000;0.1538;-0.2151;
1210.5000;0.1506;-0.2222;
1210.8000;0.1514;-0.2198;
1211.1000;0.1522;-0.2103;
1211.4000;0.1481;-0.2079;
1211.7000;0.1530;-0.2055;
1212.0000;0.1490;-0.2127;
1212.3000;0.1490;-0.2175;
1212.6000;0.1538;-0.2127;
1212.9000;0.1498;-0.2246;
1213.2000;0.1530;-0.2127;
1213.5000;0.1538;-0.2151;
1213.8000;0.1514;-0.2294;
1214.1000;0.1530;-0.2246;
1214.4000;0.1473;-0.2461;
1214.7000;0.1506;-0.2294;
1215.0000;0.1522;-0.2222;
1215.3000;0.1465;-0.2437;
1215.6000;0.1457;-0.2485;
1215.9000;0.1522;-0.2294;
1216.2000;0.1498;-0.2461;
1216.5000;0.1514;-0.2342;
1216.8000;0.1514;-0.2342;
1217.1000;0.1547;-0.2246;
1217.4000;0.1465;-0.2461;
1217.7000;0.1522;-0.2127;
1218.0000;0.1547;-0.2031;
1218.3000;0.1506;-0.2103;
1218.6000;0.1506;-0.2151;
1218.9000;0.1425;-0.2390;
1219.2000;0.1538;-0.2055;
1219.5000;0.1514;-0.2198;
1219.8000;0.1522;-0.2127;
1220.1000;0.1506;-0.2198;
1220.4000;0.1530;-0.2222;
1220.7000;0.1498;-0.2294;
1221.0000;0.1571;-0.2127;
1221.3000;0.1498;-0.2342;
1221.6000;0.1506;-0.2294;
1221.9000;0.1522;-0.2079;
1222.2000;0.1563;-0.1983;
1222.5000;0.1530;-0.2127;
1222.8000;0.1530;-0.2151;
1223.1000;0.1514;-0.2103;
1223.4000;0.1522;-0.2103;
1223.7000;0.1490;-0.2246;
1224.0000;0.1522;-0.2151;
1224.3000;0.1522;-0.2103;
1224.6000;0.1498;-0.2294;
1224.9000;0.1490;-0.2342;
1225.2000;0.1433;-0.2485;
1225.5000;0.1506;-0.2318;
1225.8000;0.1522;-0.2222;
1226.1000;0.1514;-0.2270;
1226.4000;0.1522;-0.2222;
1226.7000;0.1522;-0.2270;
1227.0000;0.1506;-0.2318;
1227.3000;0.1530;-0.2222;
1227.6000;0.1506;-0.2366;
1227.9000;0.1481;-0.2390;
1228.2000;0.1538;-0.2318;
1228.5000;0.1506;-0.2461;
1228.8000;0.1498;-0.2366;
1229.1000;0.1522;-0.2318;
1229.4000;0.1604;-0.2079;
1229.7000;0.1530;-0.2270;
1230.0000;0.1522;-0.2318;
1230.3000;0.1530;-0.2318;
1230.6000;0.1522;-0.2270;
1230.9000;0.1530;-0.2246;
1231.2000;0.1400;-0.2557;
1231.5000;0.1506;-0.2318;
1231.8000;0.1530;-0.2294;
1232.1000;0.1563;-0.2175;
1232.4000;0.1547;-0.2294;
1232.7000;0.1498;-0.2461;
1233.0000;0.1506;-0.2437;
1233.3000;0.1514;-0.2461;
1233.6000;0.1522;-0.2509;
1233.9000;0.1506;-0.2581;
1234.2000;0.1522;-0.2461;
1234.5000;0.1498;-0.2509;
1234.8000;0.1530;-0.2461;
1235.1000;0.1547;-0.2390;
1235.4000;0.1506;-0.2461;
1235.7000;0.1530;-0.2366;
1236.0000;0.1547;-0.2246;
1236.3000;0.1506;-0.2366;
1236.6000;0.1514;-0.2390;
1236.9000;0.1498;-0.2437;
1237.2000;0.1522;-0.2437;
1237.5000;0.1522;-0.2413;
1237.8000;0.1514;-0.2509;
1238.1000;0.1636;-0.2175;
1238.4000;0.1522;-0.2390;
1238.7000;0.1522;-0.2437;
1239.0000;0.1522;-0.2390;
1239.3000;0.1538;-0.2342;
1239.6000;0.1514;-0.2318;
1239.9000;0.1514;-0.2366;
1240.2000;0.1514;-0.2390;
1240.5000;0.1481;-0.2461;
1240.8000;0.1506;-0.2342;
1241.1000;0.1530;-0.2270;
1241.4000;0.1530;-0.2222;
1241.7000;0.1522;-0.2246;
1242.0000;0.1522;-0.2342;
1242.3000;0.1514;-0.2270;
1242.6000;0.1538;-0.2318;
1242.9000;0.1514;-0.2413;
1243.2000;0.1498;-0.2270;
1243.5000;0.1514;-0.2198;
1243.8000;0.1490;-0.2198;
1244.1000;0.1498;-0.2246;
1244.4000;0.1506;-0.2198;
1244.7000;0.1522;-0.2175;
1245.0000;0.1490;-0.2222;
1245.3000;0.1530;-0.2127;
1245.6000;0.1530;-0.2079;
1245.9000;0.1522;-0.2127;
1246.2000;0.1571;-0.2079;
1246.5000;0.1677;-0.1912;
1246.8000;0.1530;-0.2294;
1247.1000;0.1522;-0.2318;
1247.4000;0.1530;-0.2175;
1247.7000;0.1522;-0.2318;
1248.0000;0.1571;-0.2127;
1248.3000;0.1522;-0.2318;
1248.6000;0.1473;-0.2461;
1248.9000;0.1498;-0.2390;
1249.2000;0.1514;-0.2294;
1249.5000;0.1652;-0.2007;
1249.8000;0.1481;-0.2461;
1250.1000;0.1530;-0.2270;
1250.4000;0.1498;-0.2342;
1250.7000;0.1514;-0.2270;
1251.0000;0.1465;-0.2390;
1251.3000;0.1571;-0.2103;
1251.6000;0.1506;-0.2198;
1251.9000;0.1538;-0.2103;
1252.2000;0.1587;-0.1936;
1252.5000;0.1530;-0.2079;
1252.8000;0.1538;-0.2175;
1253.1000;0.1514;-0.2222;
1253.4000;0.1441;-0.2318;
1253.7000;0.1514;-0.2079;
1254.0000;0.1530;-0.2079;
1254.3000;0.1547;-0.2055;
1254.6000;0.1506;-0.2198;
1254.9000;0.1522;-0.2198;
1255.2000;0.1376;-0.2557;
1255.5000;0.1514;-0.2127;
1255.8000;0.1457;-0.2270;
1256.1000;0.1538;-0.2055;
1256.4000;0.1522;-0.2103;
1256.7000;0.1530;-0.2175;
1257.0000;0.1506;-0.2222;
1257.3000;0.1579;-0.2151;
1257.6000;0.1530;-0.2366;
1257.9000;0.1579;-0.2151;
1258.2000;0.1498;-0.2390;
1258.5000;0.1522;-0.2318;
1258.8000;0.1506;-0.2366;
1259.1000;0.1506;-0.2366;
1259.4000;0.1522;-0.2366;
1259.7000;0.1547;-0.2270;
1260.0000;0.1506;-0.2485;
1260.3000;0.1433;-0.2581;
1260.6000;0.1522;-0.2366;
1260.9000;0.1587;-0.2342;
1261.2000;0.1498;-0.2509;
1261.5000;0.1595;-0.2318;
1261.8000;0.1514;-0.2461;
1262.1000;0.1514;-0.2390;
1262.4000;0.1538;-0.2318;
1262.7000;0.1538;-0.2342;
1263.0000;0.1530;-0.2270;
1263.3000;0.1514;-0.2294;
1263.6000;0.1538;-0.2270;
1263.9000;0.1490;-0.2413;
1264.2000;0.1514;-0.2366;
1264.5000;0.1506;-0.2270;
1264.8000;0.1498;-0.2270;
1265.1000;0.1522;-0.2270;
1265.4000;0.1522;-0.2222;
1265.7000;0.1522;-0.2151;
1266.0000;0.1506;-0.2175;
1266.3000;0.1506;-0.2294;
1266.6000;0.1506;-0.2151;
1266.9000;0.1514;-0.2175;
1267.2000;0.1530;-0.2103;
1267.5000;0.1530;-0.2198;
1267.8000;0.1530;-0.2222;
1268.1000;0.1538;-0.2198;
1268.4000;0.1522;-0.2175;
1268.7000;0.1563;-0.1983;
1269.0000;0.1514;-0.2079;
1269.3000;0.1530;-0.2079;
1269.6000;0.1514;-0.2079;
1269.9000;0.1530;-0.2151;
1270.2000;0.1522;-0.2175;
1270.5000;0.1481;-0.2294;
1270.8000;0.1506;-0.2246;
1271.1000;0.1400;-0.2533;
1271.4000;0.1530;-0.2294;
1271.7000;0.1498;-0.2437;
1272.0000;0.1514;-0.2342;
1272.3000;0.1490;-0.2390;
1272.6000;0.1530;-0.2246;
1272.9000;0.1522;-0.2222;
1273.2000;0.1522;-0.2270;
1273.5000;0.1538;-0.2366;
1273.8000;0.1441;-0.2629;
1274.1000;0.1538;-0.2342;
1274.4000;0.1522;-0.2246;
1274.7000;0.1514;-0.2270;
1275.0000;0.1457;-0.2437;
1275.3000;0.1481;-0.2270;
1275.6000;0.1506;-0.2175;
1275.9000;0.1506;-0.2198;
1276.2000;0.1530;-0.2175;
1276.5000;0.1522;-0.2103;
1276.8000;0.1481;-0.2198;
1277.1000;0.1522;-0.2103;
1277.4000;0.1579;-0.2055;
1277.7000;0.1522;-0.2198;
1278.0000;0.1522;-0.2151;
1278.3000;0.1416;-0.2390;
1278.6000;0.1506;-0.2198;
1278.9000;0.1538;-0.2103;
1279.2000;0.1481;-0.2270;
1279.5000;0.1522;-0.2079;
1279.8000;0.1530;-0.2103;
1280.1000;0.1522;-0.2103;
1280.4000;0.1514;-0.2103;
1280.7000;0.1514;-0.2127;
1281.0000;0.1514;-0.2079;
1281.3000;0.1555;-0.2007;
1281.6000;0.1522;-0.2198;
1281.9000;0.1538;-0.2246;
1282.2000;0.1514;-0.2246;
1282.5000;0.1547;-0.2270;
1282.8000;0.1514;-0.2437;
1283.1000;0.1530;-0.2413;
1283.4000;0.1538;-0.2318;
1283.7000;0.1530;-0.2198;
1284.0000;0.1530;-0.2198;
1284.3000;0.1612;-0.1888;
1284.6000;0.1522;-0.2198;
1284.9000;0.1498;-0.2222;
1285.2000;0.1522;-0.2198;
1285.5000;0.1498;-0.2270;
1285.8000;0.1490;-0.2222;
1286.1000;0.1506;-0.2198;
1286.4000;0.1587;-0.1983;
1286.7000;0.1522;-0.2079;
1287.0000;0.1506;-0.2151;
1287.3000;0.1490;-0.2294;
1287.6000;0.1530;-0.2175;
1287.9000;0.1506;-0.2175;
1288.2000;0.1498;-0.2270;
1288.5000;0.1522;-0.2222;
1288.8000;0.1538;-0.2222;
1289.1000;0.1538;-0.2198;
1289.4000;0.1522;-0.2318;
1289.7000;0.1530;-0.2342;
1290.0000;0.1612;-0.2031;
1290.3000;0.1522;-0.2390;
1290.6000;0.1514;-0.2342;
1290.9000;0.1465;-0.2485;
1291.2000;0.1522;-0.2318;
1291.5000;0.1457;-0.2509;
1291.8000;0.1522;-0.2390;
1292.1000;0.1506;-0.2390;
1292.4000;0.1490;-0.2366;
1292.7000;0.1547;-0.2222;
1293.0000;0.1538;-0.2222;
1293.3000;0.1514;-0.2127;
1293.6000;0.1522;-0.2031;
1293.9000;0.1522;-0.2079;
1294.2000;0.1490;-0.2246;
1294.5000;0.1465;-0.2294;
1294.8000;0.1506;-0.2175;
1295.1000;0.1490;-0.2294;
1295.4000;0.1498;-0.2222;
1295.7000;0.1522;-0.2175;
1296.0000;0.1530;-0.2222;
1296.3000;0.1498;-0.2246;
1296.6000;0.1522;-0.2270;
1296.9000;0.1514;-0.2294;
1297.2000;0.1506;-0.2246;
1297.5000;0.1522;-0.2175;
1297.8000;0.1579;-0.2007;
1298.1000;0.1514;-0.2175;
1298.4000;0.1506;-0.2246;
1298.7000;0.1514;-0.2198;
1299.0000;0.1514;-0.2246;
1299.3000;0.1530;-0.2175;
1299.6000;0.1530;-0.2175;
1299.9000;0.1506;-0.2222;
1300.2000;0.1514;-0.2270;
1300.5000;0.1538;-0.2342;
1300.8000;0.1522;-0.2294;
1301.1000;0.1538;-0.2270;
1301.4000;0.1506;-0.2342;
1301.7000;0.1530;-0.2103;
1302.0000;0.1522;-0.2127;
1302.3000;0.1457;-0.2222;
1302.6000;0.1514;-0.2031;
1302.9000;0.1506;-0.2079;
1303.2000;0.1530;-0.2103;
1303.5000;0.1498;-0.2175;
1303.8000;0.1514;-0.2103;
1304.1000;0.1481;-0.2103;
1304.4000;0.1530;-0.1959;
1304.7000;0.1522;-0.2079;
1305.0000;0.1530;-0.2127;
1305.3000;0.1636;-0.1840;
1305.6000;0.1514;-0.2103;
1305.9000;0.1514;-0.2031;
1306.2000;0.1514;-0.2007;
1306.5000;0.1522;-0.1959;
1306.8000;0.1522;-0.1864;
1307.1000;0.1522;-0.1816;
1307.4000;0.1677;-0.1410;
1307.7000;0.1522;-0.1864;
1308.0000;0.1506;-0.1912;
1308.3000;0.1538;-0.1912;
1308.6000;0.1522;-0.1912;
1308.9000;0.1522;-0.1959;
1309.2000;0.1547;-0.1936;
1309.5000;0.1514;-0.1936;
1309.8000;0.1522;-0.1983;
1310.1000;0.1506;-0.2031;
1310.4000;0.1579;-0.1840;
1310.7000;0.1522;-0.1983;
1311.0000;0.1465;-0.2055;
1311.3000;0.1514;-0.1864;
1311.6000;0.1506;-0.1912;
1311.9000;0.1514;-0.1888;
1312.2000;0.1522;-0.1888;
1312.5000;0.1522;-0.1912;
1312.8000;0.1514;-0.2031;
1313.1000;0.1441;-0.2175;
1313.4000;0.1530;-0.1936;
1313.7000;0.1514;-0.2007;
1314.0000;0.1514;-0.1912;
1314.3000;0.1522;-0.1792;
1314.6000;0.1490;-0.1912;
1314.9000;0.1522;-0.1936;
1315.2000;0.1514;-0.1959;
1315.5000;0.1612;-0.1721;
1315.8000;0.1473;-0.2031;
1316.1000;0.1522;-0.1912;
1316.4000;0.1522;-0.2007;
1316.7000;0.1514;-0.2079;
1317.0000;0.1473;-0.2079;
1317.3000;0.1498;-0.2079;
1317.6000;0.1522;-0.2031;
1317.9000;0.1506;-0.2055;
1318.2000;0.1376;-0.2342;
1318.5000;0.1425;-0.2198;
1318.8000;0.1514;-0.1959;
1319.1000;0.1498;-0.2007;
1319.4000;0.1506;-0.1959;
1319.7000;0.1506;-0.1888;
1320.0000;0.1530;-0.1864;
1320.3000;0.1530;-0.1816;
1320.6000;0.1490;-0.1983;
1320.9000;0.1400;-0.2198;
1321.2000;0.1506;-0.1983;
1321.5000;0.1514;-0.1959;
1321.8000;0.1514;-0.1936;
1322.1000;0.1579;-0.1792;
1322.4000;0.1522;-0.1912;
1322.7000;0.1522;-0.1959;
1323.0000;0.1498;-0.2007;
1323.3000;0.1530;-0.2007;
1323.6000;0.1498;-0.2103;
1323.9000;0.1538;-0.2079;
1324.2000;0.1563;-0.1959;
1324.5000;0.1522;-0.2103;
1324.8000;0.1522;-0.2079;
1325.1000;0.1530;-0.2127;
1325.4000;0.1522;-0.2055;
1325.7000;0.1514;-0.2055;
1326.0000;0.1555;-0.1959;
1326.3000;0.1522;-0.2127;
1326.6000;0.1538;-0.2079;
1326.9000;0.1498;-0.2103;
1327.2000;0.1490;-0.2031;
1327.5000;0.1514;-0.1983;
1327.8000;0.1522;-0.1959;
1328.1000;0.1506;-0.1959;
1328.4000;0.1514;-0.1888;
1328.7000;0.1522;-0.1888;
1329.0000;0.1530;-0.1864;
1329.3000;0.1481;-0.2031;
1329.6000;0.1514;-0.1936;
1329.9000;0.1514;-0.1888;
1330.2000;0.1514;-0.1864;
1330.5000;0.1506;-0.1840;
1330.8000;0.1514;-0.1816;
1331.1000;0.1514;-0.1864;
1331.4000;0.1351;-0.2366;
1331.7000;0.1522;-0.1888;
1332.0000;0.1547;-0.1816;
1332.3000;0.1530;-0.1864;
1332.6000;0.1530;-0.1816;
1332.9000;0.1538;-0.1840;
1333.2000;0.1498;-0.1959;
1333.5000;0.1555;-0.1936;
1333.8000;0.1522;-0.2007;
1334.1000;0.1481;-0.2103;
1334.4000;0.1555;-0.1959;
1334.7000;0.1498;-0.2103;
1335.0000;0.1506;-0.2079;
1335.3000;0.1506;-0.2103;
1335.6000;0.1514;-0.2079;
1335.9000;0.1498;-0.2103;
1336.2000;0.1522;-0.2103;
1336.5000;0.1490;-0.2318;
1336.8000;0.1522;-0.2246;
1337.1000;0.1530;-0.2318;
1337.4000;0.1563;-0.2222;
1337.7000;0.1522;-0.2270;
1338.0000;0.1506;-0.2342;
1338.3000;0.1522;-0.2366;
1338.6000;0.1522;-0.2390;
1338.9000;0.1522;-0.2342;
1339.2000;0.1644;-0.2007;
1339.5000;0.1490;-0.2461;
1339.8000;0.1514;-0.2342;
1340.1000;0.1514;-0.2342;
1340.4000;0.1522;-0.2366;
1340.7000;0.1530;-0.2390;
1341.0000;0.1547;-0.2342;
1341.3000;0.1530;-0.2222;
1341.6000;0.1571;-0.2151;
1341.9000;0.1547;-0.2222;
1342.2000;0.1441;-0.2485;
1342.5000;0.1465;-0.2437;
1342.8000;0.1465;-0.2294;
1343.1000;0.1538;-0.2007;
1343.4000;0.1547;-0.1864;
1343.7000;0.1522;-0.1936;
1344.0000;0.1408;-0.2222;
1344.3000;0.1506;-0.2007;
1344.6000;0.1538;-0.2055;
1344.9000;0.1498;-0.2151;
1345.2000;0.1473;-0.2127;
1345.5000;0.1522;-0.2031;
1345.8000;0.1652;-0.1744;
1346.1000;0.1498;-0.2198;
1346.4000;0.1530;-0.2079;
1346.7000;0.1514;-0.2127;
1347.0000;0.1604;-0.1936;
1347.3000;0.1522;-0.2151;
1347.6000;0.1514;-0.2151;
1347.9000;0.1530;-0.2079;
1348.2000;0.1498;-0.2198;
1348.5000;0.1506;-0.2175;
1348.8000;0.1522;-0.2079;
1349.1000;0.1530;-0.2103;
1349.4000;0.1530;-0.2103;
1349.7000;0.1522;-0.2222;
1350.0000;0.1530;-0.2127;
1350.3000;0.1506;-0.2175;
1350.6000;0.1530;-0.2007;
1350.9000;0.1506;-0.2055;
1351.2000;0.1522;-0.2079;
1351.5000;0.1514;-0.2055;
1351.8000;0.1522;-0.2103;
1352.1000;0.1522;-0.2055;
1352.4000;0.1506;-0.2103;
1352.7000;0.1514;-0.2175;
1353.0000;0.1530;-0.2151;
1353.3000;0.1473;-0.2294;
1353.6000;0.1522;-0.2055;
1353.9000;0.1555;-0.1936;
1354.2000;0.1522;-0.2055;
1354.5000;0.1522;-0.2127;
1354.8000;0.1530;-0.2151;
1355.1000;0.1530;-0.2055;
1355.4000;0.1416;-0.2366;
1355.7000;0.1555;-0.2055;
1356.0000;0.1547;-0.2007;
1356.3000;0.1538;-0.2055;
1356.6000;0.1514;-0.2151;
1356.9000;0.1530;-0.2222;
1357.2000;0.1538;-0.2198;
1357.5000;0.1538;-0.2127;
1357.8000;0.1514;-0.2103;
1358.1000;0.1506;-0.2175;
1358.4000;0.1522;-0.2151;
1358.7000;0.1506;-0.2151;
1359.0000;0.1481;-0.2270;
1359.3000;0.1490;-0.2246;
1359.6000;0.1563;-0.2031;
1359.9000;0.1530;-0.2103;
1360.2000;0.1514;-0.2198;
1360.5000;0.1498;-0.2246;
1360.8000;0.1587;-0.1840;
1361.1000;0.1514;-0.2007;
1361.4000;0.1547;-0.1983;
1361.7000;0.1538;-0.1912;
1362.0000;0.1514;-0.1959;
1362.3000;0.1400;-0.2222;
1362.6000;0.1490;-0.1936;
1362.9000;0.1595;-0.1673;
1363.2000;0.1522;-0.1936;
1363.5000;0.1490;-0.2055;
1363.8000;0.1522;-0.1959;
1364.1000;0.1522;-0.1936;
1364.4000;0.1376;-0.2413;
1364.7000;0.1530;-0.2079;
1365.0000;0.1563;-0.2031;
1365.3000;0.1530;-0.2127;
1365.6000;0.1465;-0.2366;
1365.9000;0.1514;-0.2222;
1366.2000;0.1530;-0.2222;
1366.5000;0.1587;-0.1912;
1366.8000;0.1522;-0.1983;
1367.1000;0.1538;-0.1983;
1367.4000;0.1538;-0.1936;
1367.7000;0.1522;-0.1912;
1368.0000;0.1514;-0.2055;
1368.3000;0.1498;-0.2079;
1368.6000;0.1547;-0.1983;
1368.9000;0.1522;-0.2079;
1369.2000;0.1514;-0.2079;
1369.5000;0.1530;-0.2007;
1369.8000;0.1530;-0.1912;
1370.1000;0.1506;-0.1959;
1370.4000;0.1530;-0.1816;
1370.7000;0.1376;-0.2294;
1371.0000;0.1555;-0.1959;
1371.3000;0.1514;-0.2031;
1371.6000;0.1538;-0.2079;
1371.9000;0.1506;-0.2198;
1372.2000;0.1506;-0.2270;
1372.5000;0.1555;-0.2151;
1372.8000;0.1514;-0.2175;
1373.1000;0.1498;-0.2175;
1373.4000;0.1506;-0.2127;
1373.7000;0.1465;-0.2222;
1374.0000;0.1522;-0.2127;
1374.3000;0.1498;-0.2198;
1374.6000;0.1547;-0.2055;
1374.9000;0.1555;-0.2007;
1375.2000;0.1538;-0.1959;
1375.5000;0.1514;-0.2031;
1375.8000;0.1514;-0.2007;
1376.1000;0.1522;-0.2031;
1376.4000;0.1514;-0.1912;
1376.7000;0.1538;-0.1864;
1377.0000;0.1538;-0.1888;
1377.3000;0.1514;-0.1864;
1377.6000;0.1530;-0.1864;
1377.9000;0.1514;-0.1936;
1378.2000;0.1506;-0.1936;
1378.5000;0.1522;-0.1959;
1378.8000;0.1522;-0.2007;
1379.1000;0.1506;-0.2007;
1379.4000;0.1587;-0.1768;
1379.7000;0.1506;-0.1888;
1380.0000;0.1530;-0.1768;
1380.3000;0.1612;-0.1625;
1380.6000;0.1547;-0.1792;
1380.9000;0.1636;-0.1505;
1381.2000;0.1644;-0.1529;
1381.5000;0.1522;-0.1888;
1381.8000;0.1530;-0.1912;
1382.1000;0.1538;-0.1936;
1382.4000;0.1514;-0.1959;
1382.7000;0.1514;-0.1936;
1383.0000;0.1538;-0.1936;
1383.3000;0.1506;-0.1983;
1383.6000;0.1530;-0.2007;
1383.9000;0.1449;-0.2222;
1384.2000;0.1506;-0.2103;
1384.5000;0.1514;-0.2031;
1384.8000;0.1498;-0.2103;
1385.1000;0.1506;-0.2079;
1385.4000;0.1514;-0.2151;
1385.7000;0.1538;-0.1983;
1386.0000;0.1530;-0.2031;
1386.3000;0.1522;-0.2103;
1386.6000;0.1530;-0.2031;
1386.9000;0.1563;-0.1936;
1387.2000;0.1490;-0.2079;
1387.5000;0.1506;-0.2031;
1387.8000;0.1449;-0.2198;
1388.1000;0.1538;-0.2007;
1388.4000;0.1587;-0.1864;
1388.7000;0.1498;-0.2198;
1389.0000;0.1522;-0.2103;
1389.3000;0.1530;-0.1983;
1389.6000;0.1538;-0.2079;
1389.9000;0.1506;-0.2151;
1390.2000;0.1498;-0.2031;
1390.5000;0.1506;-0.1959;
1390.8000;0.1490;-0.1959;
1391.1000;0.1522;-0.1912;
1391.4000;0.1538;-0.1864;
1391.7000;0.1522;-0.1768;
1392.0000;0.1522;-0.1816;
1392.3000;0.1547;-0.1840;
1392.6000;0.1514;-0.1983;
1392.9000;0.1457;-0.2175;
1393.2000;0.1530;-0.1959;
1393.5000;0.1522;-0.1912;
1393.8000;0.1506;-0.2079;
1394.1000;0.1514;-0.2079;
1394.4000;0.1547;-0.2007;
1394.7000;0.1555;-0.1912;
1395.0000;0.1514;-0.1936;
1395.3000;0.1490;-0.2031;
1395.6000;0.1392;-0.2222;
1395.9000;0.1449;-0.2175;
1396.2000;0.1522;-0.2031;
1396.5000;0.1595;-0.1864;
1396.8000;0.1514;-0.2151;
1397.1000;0.1530;-0.2055;
1397.4000;0.1522;-0.2031;
1397.7000;0.1449;-0.2294;
1398.0000;0.1522;-0.2246;
1398.3000;0.1506;-0.2246;
1398.6000;0.1522;-0.2175;
1398.9000;0.1530;-0.2222;
1399.2000;0.1530;-0.2246;
1399.5000;0.1538;-0.2294;
1399.8000;0.1514;-0.2366;
