time/ms;Fluo/V;P700 deltaI/I x10³;
-199.8000;0.1481;-0.1529;
-199.5000;0.1522;-0.1505;
-199.2000;0.1514;-0.1529;
-198.9000;0.1522;-0.1529;
-198.6000;0.1465;-0.1697;
-198.3000;0.1530;-0.1553;
-198.0000;0.1514;-0.1625;
-197.7000;0.1522;-0.1721;
-197.4000;0.1538;-0.1744;
-197.1000;0.1530;-0.1792;
-196.8000;0.1530;-0.1792;
-196.5000;0.1530;-0.1864;
-196.2000;0.1530;-0.1864;
-195.9000;0.1538;-0.1768;
-195.6000;0.1555;-0.1673;
-195.3000;0.1530;-0.1673;
-195.0000;0.1514;-0.1721;
-194.7000;0.1555;-0.1577;
-194.4000;0.1498;-0.1744;
-194.1000;0.1506;-0.1744;
-193.8000;0.1392;-0.1983;
-193.5000;0.1514;-0.1649;
-193.2000;0.1449;-0.1816;
-192.9000;0.1457;-0.1840;
-192.6000;0.1538;-0.1721;
-192.3000;0.1538;-0.1792;
-192.0000;0.1392;-0.2127;
-191.7000;0.1449;-0.2127;
-191.4000;0.1506;-0.1864;
-191.1000;0.1506;-0.1792;
-190.8000;0.1514;-0.1792;
-190.5000;0.1530;-0.1864;
-190.2000;0.1506;-0.1864;
-189.9000;0.1514;-0.1768;
-189.6000;0.1490;-0.1792;
-189.3000;0.1498;-0.1840;
-189.0000;0.1522;-0.1792;
-188.7000;0.1465;-0.1912;
-188.4000;0.1538;-0.1673;
-188.1000;0.1498;-0.1721;
-187.8000;0.1481;-0.1840;
-187.5000;0.1498;-0.1816;
-187.2000;0.1522;-0.1697;
-186.9000;0.1441;-0.1864;
-186.6000;0.1555;-0.1625;
-186.3000;0.1522;-0.1673;
-186.0000;0.1490;-0.1792;
-185.7000;0.1604;-0.1410;
-185.4000;0.1522;-0.1505;
-185.1000;0.1514;-0.1529;
-184.8000;0.1620;-0.1362;
-184.5000;0.1555;-0.1577;
-184.2000;0.1522;-0.1697;
-183.9000;0.1392;-0.2007;
-183.6000;0.1652;-0.1314;
-183.3000;0.1490;-0.1768;
-183.0000;0.1530;-0.1697;
-182.7000;0.1587;-0.1458;
-182.4000;0.1547;-0.1553;
-182.1000;0.1522;-0.1625;
-181.8000;0.1506;-0.1649;
-181.5000;0.1498;-0.1649;
-181.2000;0.1514;-0.1529;
-180.9000;0.1522;-0.1529;
-180.6000;0.1481;-0.1601;
-180.3000;0.1514;-0.1625;
-180.0000;0.1571;-0.1529;
-179.7000;0.1514;-0.1697;
-179.4000;0.1522;-0.1697;
-179.1000;0.1506;-0.1721;
-178.8000;0.1571;-0.1553;
-178.5000;0.1416;-0.2007;
-178.2000;0.1530;-0.1744;
-177.9000;0.1522;-0.1744;
-177.6000;0.1457;-0.1888;
-177.3000;0.1481;-0.1768;
-177.0000;0.1514;-0.1673;
-176.7000;0.1514;-0.1601;
-176.4000;0.1408;-0.1888;
-176.1000;0.1465;-0.1768;
-175.8000;0.1490;-0.1744;
-175.5000;0.1555;-0.1625;
-175.2000;0.1506;-0.1673;
-174.9000;0.1522;-0.1721;
-174.6000;0.1530;-0.1768;
-174.3000;0.1465;-0.1912;
-174.0000;0.1530;-0.1768;
-173.7000;0.1465;-0.1959;
-173.4000;0.1498;-0.1840;
-173.1000;0.1490;-0.1816;
-172.8000;0.1522;-0.1744;
-172.5000;0.1538;-0.1744;
-172.2000;0.1514;-0.1840;
-171.9000;0.1514;-0.1912;
-171.6000;0.1538;-0.1840;
-171.3000;0.1522;-0.1936;
-171.0000;0.1490;-0.1983;
-170.7000;0.1506;-0.1983;
-170.4000;0.1522;-0.1840;
-170.1000;0.1522;-0.1697;
-169.8000;0.1473;-0.1816;
-169.5000;0.1522;-0.1673;
-169.2000;0.1522;-0.1649;
-168.9000;0.1587;-0.1434;
-168.6000;0.1522;-0.1649;
-168.3000;0.1522;-0.1649;
-168.0000;0.1514;-0.1673;
-167.7000;0.1506;-0.1697;
-167.4000;0.1612;-0.1505;
-167.1000;0.1514;-0.1721;
-166.8000;0.1620;-0.1458;
-166.5000;0.1522;-0.1721;
-166.2000;0.1506;-0.1744;
-165.9000;0.1514;-0.1673;
-165.6000;0.1498;-0.1721;
-165.3000;0.1530;-0.1673;
-165.0000;0.1538;-0.1673;
-164.7000;0.1514;-0.1649;
-164.4000;0.1538;-0.1529;
-164.1000;0.1628;-0.1362;
-163.8000;0.1538;-0.1649;
-163.5000;0.1547;-0.1625;
-163.2000;0.1514;-0.1864;
-162.9000;0.1481;-0.1959;
-162.6000;0.1514;-0.1912;
-162.3000;0.1522;-0.1816;
-162.0000;0.1481;-0.1983;
-161.7000;0.1555;-0.1697;
-161.4000;0.1514;-0.1768;
-161.1000;0.1522;-0.1864;
-160.8000;0.1628;-0.1529;
-160.5000;0.1579;-0.1553;
-160.2000;0.1522;-0.1697;
-159.9000;0.1490;-0.1673;
-159.6000;0.1490;-0.1744;
-159.3000;0.1514;-0.1721;
-159.0000;0.1498;-0.1673;
-158.7000;0.1522;-0.1577;
-158.4000;0.1514;-0.1601;
-158.1000;0.1530;-0.1649;
-157.8000;0.1522;-0.1649;
-157.5000;0.1514;-0.1625;
-157.2000;0.1538;-0.1625;
-156.9000;0.1522;-0.1649;
-156.6000;0.1506;-0.1649;
-156.3000;0.1522;-0.1553;
-156.0000;0.1538;-0.1505;
-155.7000;0.1506;-0.1529;
-155.4000;0.1547;-0.1505;
-155.1000;0.1506;-0.1553;
-154.8000;0.1514;-0.1577;
-154.5000;0.1522;-0.1553;
-154.2000;0.1498;-0.1625;
-153.9000;0.1514;-0.1577;
-153.6000;0.1514;-0.1553;
-153.3000;0.1498;-0.1529;
-153.0000;0.1571;-0.1314;
-152.7000;0.1522;-0.1410;
-152.4000;0.1449;-0.1601;
-152.1000;0.1392;-0.1792;
-151.8000;0.1522;-0.1505;
-151.5000;0.1473;-0.1697;
-151.2000;0.1473;-0.1744;
-150.9000;0.1522;-0.1601;
-150.6000;0.1514;-0.1649;
-150.3000;0.1481;-0.1697;
-150.0000;0.1571;-0.1482;
-149.7000;0.1530;-0.1697;
-149.4000;0.1604;-0.1553;
-149.1000;0.1604;-0.1529;
-148.8000;0.1514;-0.1768;
-148.5000;0.1481;-0.1840;
-148.2000;0.1506;-0.1673;
-147.9000;0.1538;-0.1577;
-147.6000;0.1514;-0.1649;
-147.3000;0.1530;-0.1601;
-147.0000;0.1530;-0.1601;
-146.7000;0.1522;-0.1649;
-146.4000;0.1498;-0.1673;
-146.1000;0.1506;-0.1601;
-145.8000;0.1522;-0.1529;
-145.5000;0.1579;-0.1338;
-145.2000;0.1514;-0.1434;
-144.9000;0.1530;-0.1458;
-144.6000;0.1400;-0.1768;
-144.3000;0.1571;-0.1314;
-144.0000;0.1490;-0.1601;
-143.7000;0.1506;-0.1577;
-143.4000;0.1522;-0.1577;
-143.1000;0.1538;-0.1601;
-142.8000;0.1514;-0.1577;
-142.5000;0.1506;-0.1577;
-142.2000;0.1538;-0.1458;
-141.9000;0.1506;-0.1529;
-141.6000;0.1522;-0.1505;
-141.3000;0.1530;-0.1505;
-141.0000;0.1506;-0.1625;
-140.7000;0.1514;-0.1673;
-140.4000;0.1522;-0.1673;
-140.1000;0.1506;-0.1601;
-139.8000;0.1506;-0.1577;
-139.5000;0.1498;-0.1625;
-139.2000;0.1530;-0.1649;
-138.9000;0.1563;-0.1577;
-138.6000;0.1433;-0.1936;
-138.3000;0.1506;-0.1673;
-138.0000;0.1555;-0.1625;
-137.7000;0.1587;-0.1529;
-137.4000;0.1538;-0.1673;
-137.1000;0.1530;-0.1673;
-136.8000;0.1506;-0.1721;
-136.5000;0.1538;-0.1505;
-136.2000;0.1530;-0.1553;
-135.9000;0.1514;-0.1577;
-135.6000;0.1490;-0.1697;
-135.3000;0.1514;-0.1673;
-135.0000;0.1547;-0.1529;
-134.7000;0.1522;-0.1601;
-134.4000;0.1530;-0.1601;
-134.1000;0.1530;-0.1721;
-133.8000;0.1522;-0.1744;
-133.5000;0.1522;-0.1744;
-133.2000;0.1522;-0.1673;
-132.9000;0.1522;-0.1697;
-132.6000;0.1514;-0.1673;
-132.3000;0.1522;-0.1721;
-132.0000;0.1530;-0.1649;
-131.7000;0.1506;-0.1816;
-131.4000;0.1506;-0.1816;
-131.1000;0.1522;-0.1840;
-130.8000;0.1514;-0.1840;
-130.5000;0.1514;-0.1840;
-130.2000;0.1498;-0.1959;
-129.9000;0.1514;-0.1959;
-129.6000;0.1498;-0.1864;
-129.3000;0.1530;-0.1816;
-129.0000;0.1579;-0.1768;
-128.7000;0.1530;-0.1888;
-128.4000;0.1579;-0.1697;
-128.1000;0.1498;-0.1888;
-127.8000;0.1522;-0.1816;
-127.5000;0.1530;-0.1864;
-127.2000;0.1530;-0.1840;
-126.9000;0.1490;-0.1936;
-126.6000;0.1514;-0.1840;
-126.3000;0.1522;-0.1792;
-126.0000;0.1506;-0.1768;
-125.7000;0.1506;-0.1721;
-125.4000;0.1514;-0.1721;
-125.1000;0.1522;-0.1721;
-124.8000;0.1506;-0.1816;
-124.5000;0.1457;-0.1983;
-124.2000;0.1522;-0.1864;
-123.9000;0.1473;-0.1983;
-123.6000;0.1473;-0.1936;
-123.3000;0.1506;-0.1864;
-123.0000;0.1506;-0.1864;
-122.7000;0.1522;-0.1768;
-122.4000;0.1555;-0.1577;
-122.1000;0.1498;-0.1649;
-121.8000;0.1506;-0.1625;
-121.5000;0.1587;-0.1434;
-121.2000;0.1506;-0.1601;
-120.9000;0.1547;-0.1553;
-120.6000;0.1506;-0.1744;
-120.3000;0.1538;-0.1744;
-120.0000;0.1530;-0.1792;
-119.7000;0.1465;-0.1912;
-119.4000;0.1530;-0.1721;
-119.1000;0.1530;-0.1673;
-118.8000;0.1538;-0.1577;
-118.5000;0.1522;-0.1577;
-118.2000;0.1522;-0.1625;
-117.9000;0.1498;-0.1816;
-117.6000;0.1506;-0.1721;
-117.3000;0.1522;-0.1673;
-117.0000;0.1506;-0.1649;
-116.7000;0.1506;-0.1577;
-116.4000;0.1506;-0.1505;
-116.1000;0.1490;-0.1505;
-115.8000;0.1514;-0.1482;
-115.5000;0.1490;-0.1482;
-115.2000;0.1514;-0.1482;
-114.9000;0.1530;-0.1434;
-114.6000;0.1547;-0.1362;
-114.3000;0.1514;-0.1529;
-114.0000;0.1522;-0.1577;
-113.7000;0.1506;-0.1553;
-113.4000;0.1530;-0.1482;
-113.1000;0.1506;-0.1577;
-112.8000;0.1506;-0.1625;
-112.5000;0.1530;-0.1529;
-112.2000;0.1514;-0.1505;
-111.9000;0.1498;-0.1505;
-111.6000;0.1481;-0.1601;
-111.3000;0.1530;-0.1577;
-111.0000;0.1465;-0.1792;
-110.7000;0.1538;-0.1601;
-110.4000;0.1514;-0.1649;
-110.1000;0.1514;-0.1577;
-109.8000;0.1530;-0.1505;
-109.5000;0.1530;-0.1458;
-109.2000;0.1530;-0.1505;
-108.9000;0.1530;-0.1458;
-108.6000;0.1498;-0.1601;
-108.3000;0.1514;-0.1553;
-108.0000;0.1481;-0.1673;
-107.7000;0.1498;-0.1625;
-107.4000;0.1538;-0.1625;
-107.1000;0.1522;-0.1673;
-106.8000;0.1514;-0.1768;
-106.5000;0.1522;-0.1792;
-106.2000;0.1530;-0.1792;
-105.9000;0.1506;-0.1888;
-105.6000;0.1538;-0.1840;
-105.3000;0.1538;-0.1768;
-105.0000;0.1530;-0.1697;
-104.7000;0.1490;-0.1721;
-104.4000;0.1514;-0.1625;
-104.1000;0.1498;-0.1792;
-103.8000;0.1522;-0.1721;
-103.5000;0.1514;-0.1673;
-103.2000;0.1514;-0.1577;
-102.9000;0.1506;-0.1601;
-102.6000;0.1571;-0.1434;
-102.3000;0.1538;-0.1482;
-102.0000;0.1563;-0.1434;
-101.7000;0.1530;-0.1529;
-101.4000;0.1506;-0.1601;
-101.1000;0.1514;-0.1505;
-100.8000;0.1514;-0.1505;
-100.5000;0.1522;-0.1553;
-100.2000;0.1530;-0.1505;
-99.9000;0.1522;-0.1577;
-99.6000;0.1538;-0.1553;
-99.3000;0.1506;-0.1673;
-99.0000;0.1522;-0.1673;
-98.7000;0.1563;-0.1625;
-98.4000;0.1498;-0.1721;
-98.1000;0.1498;-0.1673;
-97.8000;0.1473;-0.1673;
-97.5000;0.1522;-0.1505;
-97.2000;0.1506;-0.1458;
-96.9000;0.1530;-0.1434;
-96.6000;0.1498;-0.1577;
-96.3000;0.1514;-0.1601;
-96.0000;0.1530;-0.1601;
-95.7000;0.1506;-0.1673;
-95.4000;0.1498;-0.1649;
-95.1000;0.1514;-0.1625;
-94.8000;0.1522;-0.1649;
-94.5000;0.1514;-0.1673;
-94.2000;0.1514;-0.1553;
-93.9000;0.1514;-0.1553;
-93.6000;0.1514;-0.1649;
-93.3000;0.1530;-0.1601;
-93.0000;0.1522;-0.1577;
-92.7000;0.1555;-0.1434;
-92.4000;0.1514;-0.1505;
-92.1000;0.1514;-0.1625;
-91.8000;0.1514;-0.1673;
-91.5000;0.1514;-0.1744;
-91.2000;0.1498;-0.1673;
-90.9000;0.1506;-0.1625;
-90.6000;0.1449;-0.1816;
-90.3000;0.1514;-0.1649;
-90.0000;0.1514;-0.1649;
-89.7000;0.1522;-0.1744;
-89.4000;0.1506;-0.1816;
-89.1000;0.1522;-0.1649;
-88.8000;0.1538;-0.1577;
-88.5000;0.1522;-0.1601;
-88.2000;0.1514;-0.1601;
-87.9000;0.1514;-0.1625;
-87.6000;0.1530;-0.1505;
-87.3000;0.1522;-0.1482;
-87.0000;0.1522;-0.1505;
-86.7000;0.1514;-0.1577;
-86.4000;0.1522;-0.1649;
-86.1000;0.1530;-0.1673;
-85.8000;0.1522;-0.1840;
-85.5000;0.1425;-0.2103;
-85.2000;0.1514;-0.1864;
-84.9000;0.1522;-0.1792;
-84.6000;0.1514;-0.1888;
-84.3000;0.1538;-0.1816;
-84.0000;0.1522;-0.1768;
-83.7000;0.1530;-0.1768;
-83.4000;0.1530;-0.1792;
-83.1000;0.1522;-0.1816;
-82.8000;0.1514;-0.1840;
-82.5000;0.1530;-0.1936;
-82.2000;0.1530;-0.1983;
-81.9000;0.1522;-0.2007;
-81.6000;0.1620;-0.1649;
-81.3000;0.1530;-0.1888;
-81.0000;0.1457;-0.2175;
-80.7000;0.1498;-0.1983;
-80.4000;0.1522;-0.1936;
-80.1000;0.1498;-0.1864;
-79.8000;0.1514;-0.1864;
-79.5000;0.1457;-0.1983;
-79.2000;0.1514;-0.1768;
-78.9000;0.1522;-0.1721;
-78.6000;0.1416;-0.1959;
-78.3000;0.1498;-0.1744;
-78.0000;0.1522;-0.1601;
-77.7000;0.1506;-0.1601;
-77.4000;0.1514;-0.1505;
-77.1000;0.1530;-0.1410;
-76.8000;0.1506;-0.1434;
-76.5000;0.1514;-0.1458;
-76.2000;0.1498;-0.1601;
-75.9000;0.1522;-0.1577;
-75.6000;0.1522;-0.1601;
-75.3000;0.1514;-0.1577;
-75.0000;0.1490;-0.1577;
-74.7000;0.1498;-0.1553;
-74.4000;0.1547;-0.1458;
-74.1000;0.1514;-0.1601;
-73.8000;0.1522;-0.1577;
-73.5000;0.1530;-0.1553;
-73.2000;0.1514;-0.1529;
-72.9000;0.1522;-0.1505;
-72.6000;0.1522;-0.1625;
-72.3000;0.1522;-0.1553;
-72.0000;0.1522;-0.1505;
-71.7000;0.1457;-0.1697;
-71.4000;0.1530;-0.1482;
-71.1000;0.1612;-0.1314;
-70.8000;0.1498;-0.1553;
-70.5000;0.1506;-0.1482;
-70.2000;0.1498;-0.1529;
-69.9000;0.1506;-0.1505;
-69.6000;0.1514;-0.1553;
-69.3000;0.1530;-0.1625;
-69.0000;0.1514;-0.1721;
-68.7000;0.1547;-0.1625;
-68.4000;0.1522;-0.1673;
-68.1000;0.1514;-0.1697;
-67.8000;0.1449;-0.1721;
-67.5000;0.1530;-0.1649;
-67.2000;0.1530;-0.1673;
-66.9000;0.1530;-0.1649;
-66.6000;0.1522;-0.1601;
-66.3000;0.1490;-0.1673;
-66.0000;0.1514;-0.1577;
-65.7000;0.1498;-0.1601;
-65.4000;0.1530;-0.1577;
-65.1000;0.1506;-0.1553;
-64.8000;0.1514;-0.1529;
-64.5000;0.1522;-0.1577;
-64.2000;0.1522;-0.1529;
-63.9000;0.1530;-0.1601;
-63.6000;0.1563;-0.1553;
-63.3000;0.1506;-0.1697;
-63.0000;0.1506;-0.1721;
-62.7000;0.1530;-0.1673;
-62.4000;0.1498;-0.1673;
-62.1000;0.1530;-0.1529;
-61.8000;0.1506;-0.1553;
-61.5000;0.1563;-0.1410;
-61.2000;0.1522;-0.1505;
-60.9000;0.1620;-0.1171;
-60.6000;0.1555;-0.1434;
-60.3000;0.1522;-0.1553;
-60.0000;0.1506;-0.1505;
-59.7000;0.1530;-0.1482;
-59.4000;0.1514;-0.1529;
-59.1000;0.1522;-0.1505;
-58.8000;0.1587;-0.1314;
-58.5000;0.1498;-0.1553;
-58.2000;0.1506;-0.1529;
-57.9000;0.1538;-0.1434;
-57.6000;0.1522;-0.1505;
-57.3000;0.1514;-0.1553;
-57.0000;0.1514;-0.1577;
-56.7000;0.1538;-0.1482;
-56.4000;0.1530;-0.1458;
-56.1000;0.1514;-0.1482;
-55.8000;0.1514;-0.1410;
-55.5000;0.1538;-0.1266;
-55.2000;0.1522;-0.1338;
-54.9000;0.1547;-0.1338;
-54.6000;0.1498;-0.1505;
-54.3000;0.1514;-0.1434;
-54.0000;0.1506;-0.1458;
-53.7000;0.1555;-0.1266;
-53.4000;0.1514;-0.1314;
-53.1000;0.1514;-0.1386;
-52.8000;0.1579;-0.1290;
-52.5000;0.1547;-0.1386;
-52.2000;0.1506;-0.1458;
-51.9000;0.1481;-0.1458;
-51.6000;0.1465;-0.1458;
-51.3000;0.1449;-0.1505;
-51.0000;0.1514;-0.1434;
-50.7000;0.1514;-0.1362;
-50.4000;0.1506;-0.1386;
-50.1000;0.1538;-0.1410;
-49.8000;0.1514;-0.1482;
-49.5000;0.1490;-0.1577;
-49.2000;0.1498;-0.1649;
-48.9000;0.1514;-0.1697;
-48.6000;0.1514;-0.1697;
-48.3000;0.1506;-0.1649;
-48.0000;0.1498;-0.1529;
-47.7000;0.1506;-0.1458;
-47.4000;0.1514;-0.1458;
-47.1000;0.1522;-0.1553;
-46.8000;0.1514;-0.1577;
-46.5000;0.1538;-0.1529;
-46.2000;0.1514;-0.1601;
-45.9000;0.1514;-0.1505;
-45.6000;0.1547;-0.1386;
-45.3000;0.1498;-0.1434;
-45.0000;0.1514;-0.1458;
-44.7000;0.1506;-0.1458;
-44.4000;0.1514;-0.1482;
-44.1000;0.1498;-0.1553;
-43.8000;0.1563;-0.1410;
-43.5000;0.1433;-0.1697;
-43.2000;0.1514;-0.1434;
-42.9000;0.1538;-0.1362;
-42.6000;0.1498;-0.1529;
-42.3000;0.1522;-0.1434;
-42.0000;0.1498;-0.1482;
-41.7000;0.1595;-0.1362;
-41.4000;0.1498;-0.1673;
-41.1000;0.1530;-0.1601;
-40.8000;0.1514;-0.1601;
-40.5000;0.1481;-0.1649;
-40.2000;0.1506;-0.1529;
-39.9000;0.1522;-0.1529;
-39.6000;0.1530;-0.1529;
-39.3000;0.1514;-0.1505;
-39.0000;0.1457;-0.1649;
-38.7000;0.1514;-0.1577;
-38.4000;0.1612;-0.1362;
-38.1000;0.1506;-0.1577;
-37.8000;0.1620;-0.1243;
-37.5000;0.1522;-0.1458;
-37.2000;0.1563;-0.1314;
-36.9000;0.1530;-0.1410;
-36.6000;0.1538;-0.1434;
-36.3000;0.1498;-0.1553;
-36.0000;0.1522;-0.1458;
-35.7000;0.1547;-0.1458;
-35.4000;0.1514;-0.1673;
-35.1000;0.1449;-0.1936;
-34.8000;0.1506;-0.1721;
-34.5000;0.1636;-0.1386;
-34.2000;0.1530;-0.1768;
-33.9000;0.1522;-0.1888;
-33.6000;0.1498;-0.1936;
-33.3000;0.1530;-0.1816;
-33.0000;0.1595;-0.1529;
-32.7000;0.1538;-0.1625;
-32.4000;0.1498;-0.1768;
-32.1000;0.1498;-0.1768;
-31.8000;0.1514;-0.1768;
-31.5000;0.1498;-0.1840;
-31.2000;0.1498;-0.1864;
-30.9000;0.1522;-0.1840;
-30.6000;0.1425;-0.2079;
-30.3000;0.1522;-0.1864;
-30.0000;0.1506;-0.1912;
-29.7000;0.1579;-0.1697;
-29.4000;0.1538;-0.1840;
-29.1000;0.1530;-0.1840;
-28.8000;0.1522;-0.1864;
-28.5000;0.1522;-0.1912;
-28.2000;0.1538;-0.1816;
-27.9000;0.1522;-0.1864;
-27.6000;0.1514;-0.1840;
-27.3000;0.1506;-0.1959;
-27.0000;0.1579;-0.1697;
-26.7000;0.1514;-0.1816;
-26.4000;0.1506;-0.1744;
-26.1000;0.1498;-0.1744;
-25.8000;0.1530;-0.1649;
-25.5000;0.1506;-0.1721;
-25.2000;0.1604;-0.1434;
-24.9000;0.1506;-0.1649;
-24.6000;0.1514;-0.1649;
-24.3000;0.1522;-0.1577;
-24.0000;0.1506;-0.1577;
-23.7000;0.1514;-0.1601;
-23.4000;0.1530;-0.1577;
-23.1000;0.1530;-0.1577;
-22.8000;0.1530;-0.1553;
-22.5000;0.1514;-0.1601;
-22.2000;0.1514;-0.1601;
-21.9000;0.1530;-0.1482;
-21.6000;0.1571;-0.1362;
-21.3000;0.1522;-0.1410;
-21.0000;0.1555;-0.1243;
-20.7000;0.1555;-0.1171;
-20.4000;0.1530;-0.1362;
-20.1000;0.1514;-0.1458;
-19.8000;0.1498;-0.1577;
-19.5000;0.1538;-0.1529;
-19.2000;0.1522;-0.1673;
-18.9000;0.1538;-0.1553;
-18.6000;0.1506;-0.1697;
-18.3000;0.1530;-0.1697;
-18.0000;0.1514;-0.1768;
-17.7000;0.1522;-0.1673;
-17.4000;0.1522;-0.1649;
-17.1000;0.1506;-0.1744;
-16.8000;0.1514;-0.1649;
-16.5000;0.1522;-0.1601;
-16.2000;0.1473;-0.1601;
-15.9000;0.1457;-0.1649;
-15.6000;0.1604;-0.1386;
-15.3000;0.1498;-0.1697;
-15.0000;0.1612;-0.1410;
-14.7000;0.1530;-0.1601;
-14.4000;0.1506;-0.1697;
-14.1000;0.1530;-0.1601;
-13.8000;0.1530;-0.1625;
-13.5000;0.1506;-0.1649;
-13.2000;0.1514;-0.1601;
-12.9000;0.1620;-0.1314;
-12.6000;0.1498;-0.1577;
-12.3000;0.1538;-0.1458;
-12.0000;0.1563;-0.1338;
-11.7000;0.1514;-0.1434;
-11.4000;0.1547;-0.1386;
-11.1000;0.1522;-0.1434;
-10.8000;0.1506;-0.1529;
-10.5000;0.1530;-0.1482;
-10.2000;0.1506;-0.1529;
-9.9000;0.1571;-0.1458;
-9.6000;0.1506;-0.1601;
-9.3000;0.1506;-0.1673;
-9.0000;0.1547;-0.1577;
-8.7000;0.1530;-0.1529;
-8.4000;0.1506;-0.1577;
-8.1000;0.1522;-0.1625;
-7.8000;0.1538;-0.1577;
-7.5000;0.1555;-0.1577;
-7.2000;0.1538;-0.1553;
-6.9000;0.1473;-0.1673;
-6.6000;0.1514;-0.1625;
-6.3000;0.1506;-0.1649;
-6.0000;0.1506;-0.1697;
-5.7000;0.1416;-0.1912;
-5.4000;0.1522;-0.1649;
-5.1000;0.1522;-0.1697;
-4.8000;0.1498;-0.1816;
-4.5000;0.1449;-0.1888;
-4.2000;0.1425;-0.1936;
-3.9000;0.1522;-0.1792;
-3.6000;0.1514;-0.1864;
-3.3000;0.1522;-0.1888;
-3.0000;0.1538;-0.1768;
-2.7000;0.1547;-0.1721;
-2.4000;0.1563;-0.1673;
-2.1000;0.1506;-0.1768;
-1.8000;0.1457;-0.1792;
-1.5000;0.1514;-0.1697;
-1.2000;0.1506;-0.1744;
-0.9000;0.1530;-0.1697;
-0.6000;0.1490;-0.1697;
-0.3000;0.1465;-0.1721;
0.0000;0.1465;-0.1721;
0.3000;0.1555;-0.1601;
0.6000;0.1530;-0.1625;
0.9000;0.1530;-0.1601;
1.2000;0.1522;-0.1625;
1.5000;0.1522;-0.1553;
1.8000;0.1514;-0.1482;
2.1000;0.1538;-0.1410;
2.4000;0.1530;-0.1314;
2.7000;0.1547;-0.1243;
3.0000;0.1538;-0.1099;
3.3000;0.1555;-0.0932;
3.6000;0.1498;-0.1099;
3.9000;0.1530;-0.1028;
4.2000;0.1555;-0.0884;
4.5000;0.1506;-0.0956;
4.8000;0.1530;-0.0956;
5.1000;0.1506;-0.0980;
5.4000;0.1538;-0.0884;
5.7000;0.1547;-0.0908;
6.0000;0.1522;-0.0932;
6.3000;0.1530;-0.0836;
6.6000;0.1538;-0.0765;
6.9000;0.1530;-0.0789;
7.2000;0.1538;-0.0789;
7.5000;0.1441;-0.0932;
7.8000;0.1457;-0.0932;
8.1000;0.1571;-0.0645;
8.4000;0.1538;-0.0645;
8.7000;0.1522;-0.0621;
9.0000;0.1538;-0.0717;
9.3000;0.1530;-0.0693;
9.6000;0.1481;-0.0765;
9.9000;0.1547;-0.0478;
10.2000;0.1563;-0.0502;
10.5000;0.1506;-0.0717;
10.8000;0.1506;-0.0765;
11.1000;0.1547;-0.0597;
11.4000;0.1579;-0.0597;
11.7000;0.1416;-0.1051;
12.0000;0.1506;-0.0765;
12.3000;0.1530;-0.0645;
12.6000;0.1465;-0.0741;
12.9000;0.1538;-0.0574;
13.2000;0.1563;-0.0597;
13.5000;0.1538;-0.0669;
13.8000;0.1547;-0.0669;
14.1000;0.1538;-0.0645;
14.4000;0.1522;-0.0645;
14.7000;0.1530;-0.0621;
15.0000;0.1547;-0.0621;
15.3000;0.1530;-0.0693;
15.6000;0.1538;-0.0693;
15.9000;0.1571;-0.0621;
16.2000;0.1547;-0.0693;
16.5000;0.1604;-0.0574;
16.8000;0.1547;-0.0717;
17.1000;0.1587;-0.0645;
17.4000;0.1530;-0.0741;
17.7000;0.1612;-0.0597;
18.0000;0.1636;-0.0550;
18.3000;0.1538;-0.0765;
18.6000;0.1538;-0.0812;
18.9000;0.1547;-0.0789;
19.2000;0.1587;-0.0693;
19.5000;0.1628;-0.0550;
19.8000;0.1522;-0.0741;
20.1000;0.1538;-0.0597;
20.4000;0.1514;-0.0669;
20.7000;0.1530;-0.0621;
21.0000;0.1538;-0.0597;
21.3000;0.1538;-0.0550;
21.6000;0.1538;-0.0645;
21.9000;0.1530;-0.0669;
22.2000;0.1547;-0.0645;
22.5000;0.1522;-0.0741;
22.8000;0.1514;-0.0765;
23.1000;0.1530;-0.0717;
23.4000;0.1538;-0.0645;
23.7000;0.1530;-0.0526;
24.0000;0.1547;-0.0502;
24.3000;0.1547;-0.0502;
24.6000;0.1555;-0.0502;
24.9000;0.1530;-0.0574;
25.2000;0.1530;-0.0645;
25.5000;0.1530;-0.0621;
25.8000;0.1538;-0.0645;
26.1000;0.1563;-0.0502;
26.4000;0.1522;-0.0597;
26.7000;0.1514;-0.0645;
27.0000;0.1514;-0.0669;
27.3000;0.1530;-0.0621;
27.6000;0.1522;-0.0621;
27.9000;0.1498;-0.0741;
28.2000;0.1514;-0.0621;
28.5000;0.1481;-0.0693;
28.8000;0.1449;-0.0789;
29.1000;0.1538;-0.0550;
29.4000;0.1555;-0.0526;
29.7000;0.1547;-0.0574;
30.0000;0.1530;-0.0574;
30.3000;0.1530;-0.0597;
30.6000;0.1490;-0.0741;
30.9000;0.1604;-0.0502;
31.2000;0.1408;-0.0932;
31.5000;0.1514;-0.0597;
31.8000;0.1490;-0.0621;
32.1000;0.1530;-0.0454;
32.4000;0.1538;-0.0454;
32.7000;0.1522;-0.0526;
33.0000;0.1538;-0.0550;
33.3000;0.1571;-0.0454;
33.6000;0.1457;-0.0789;
33.9000;0.1530;-0.0597;
34.2000;0.1522;-0.0597;
34.5000;0.1498;-0.0621;
34.8000;0.1514;-0.0502;
35.1000;0.1522;-0.0502;
35.4000;0.1547;-0.0382;
35.7000;0.1522;-0.0406;
36.0000;0.1522;-0.0430;
36.3000;0.1571;-0.0335;
36.6000;0.1522;-0.0574;
36.9000;0.1514;-0.0645;
37.2000;0.1530;-0.0550;
37.5000;0.1547;-0.0550;
37.8000;0.1530;-0.0574;
38.1000;0.1538;-0.0621;
38.4000;0.1522;-0.0597;
38.7000;0.1530;-0.0526;
39.0000;0.1579;-0.0358;
39.3000;0.1530;-0.0502;
39.6000;0.1522;-0.0550;
39.9000;0.1522;-0.0526;
40.2000;0.1530;-0.0358;
40.5000;0.1538;-0.0430;
40.8000;0.1514;-0.0526;
41.1000;0.1522;-0.0550;
41.4000;0.1530;-0.0502;
41.7000;0.1538;-0.0478;
42.0000;0.1530;-0.0478;
42.3000;0.1538;-0.0430;
42.6000;0.1490;-0.0597;
42.9000;0.1530;-0.0550;
43.2000;0.1538;-0.0550;
43.5000;0.1522;-0.0597;
43.8000;0.1514;-0.0645;
44.1000;0.1538;-0.0621;
44.4000;0.1457;-0.0812;
44.7000;0.1538;-0.0621;
45.0000;0.1522;-0.0669;
45.3000;0.1530;-0.0597;
45.6000;0.1538;-0.0645;
45.9000;0.1514;-0.0669;
46.2000;0.1538;-0.0669;
46.5000;0.1481;-0.0741;
46.8000;0.1538;-0.0550;
47.1000;0.1522;-0.0574;
47.4000;0.1522;-0.0597;
47.7000;0.1522;-0.0550;
48.0000;0.1538;-0.0597;
48.3000;0.1506;-0.0693;
48.6000;0.1538;-0.0693;
48.9000;0.1522;-0.0717;
49.2000;0.1514;-0.0669;
49.5000;0.1490;-0.0717;
49.8000;0.1530;-0.0502;
50.1000;0.1538;-0.0454;
50.4000;0.1636;-0.0167;
50.7000;0.1530;-0.0430;
51.0000;0.1530;-0.0502;
51.3000;0.1514;-0.0502;
51.6000;0.1498;-0.0597;
51.9000;0.1538;-0.0526;
52.2000;0.1522;-0.0502;
52.5000;0.1530;-0.0526;
52.8000;0.1555;-0.0406;
53.1000;0.1530;-0.0454;
53.4000;0.1522;-0.0526;
53.7000;0.1522;-0.0526;
54.0000;0.1530;-0.0597;
54.3000;0.1490;-0.0645;
54.6000;0.1490;-0.0669;
54.9000;0.1514;-0.0621;
55.2000;0.1538;-0.0526;
55.5000;0.1547;-0.0454;
55.8000;0.1547;-0.0526;
56.1000;0.1538;-0.0430;
56.4000;0.1506;-0.0574;
56.7000;0.1571;-0.0406;
57.0000;0.1538;-0.0478;
57.3000;0.1530;-0.0526;
57.6000;0.1612;-0.0287;
57.9000;0.1530;-0.0574;
58.2000;0.1587;-0.0358;
58.5000;0.1522;-0.0550;
58.8000;0.1538;-0.0597;
59.1000;0.1530;-0.0574;
59.4000;0.1538;-0.0550;
59.7000;0.1522;-0.0621;
60.0000;0.1547;-0.0502;
60.3000;0.1547;-0.0430;
60.6000;0.1522;-0.0502;
60.9000;0.1530;-0.0478;
61.2000;0.1547;-0.0454;
61.5000;0.1522;-0.0478;
61.8000;0.1522;-0.0430;
62.1000;0.1538;-0.0335;
62.4000;0.1530;-0.0335;
62.7000;0.1612;-0.0048;
63.0000;0.1595;-0.0048;
63.3000;0.1522;-0.0263;
63.6000;0.1530;-0.0191;
63.9000;0.1465;-0.0406;
64.2000;0.1530;-0.0335;
64.5000;0.1538;-0.0406;
64.8000;0.1579;-0.0358;
65.1000;0.1530;-0.0406;
65.4000;0.1481;-0.0550;
65.7000;0.1473;-0.0454;
66.0000;0.1457;-0.0550;
66.3000;0.1587;-0.0263;
66.6000;0.1498;-0.0574;
66.9000;0.1506;-0.0645;
67.2000;0.1547;-0.0526;
67.5000;0.1547;-0.0526;
67.8000;0.1514;-0.0645;
68.1000;0.1408;-0.0980;
68.4000;0.1530;-0.0741;
68.7000;0.1522;-0.0765;
69.0000;0.1530;-0.0669;
69.3000;0.1514;-0.0669;
69.6000;0.1555;-0.0574;
69.9000;0.1522;-0.0669;
70.2000;0.1530;-0.0597;
70.5000;0.1538;-0.0502;
70.8000;0.1538;-0.0597;
71.1000;0.1514;-0.0645;
71.4000;0.1522;-0.0574;
71.7000;0.1522;-0.0550;
72.0000;0.1498;-0.0574;
72.3000;0.1506;-0.0597;
72.6000;0.1547;-0.0478;
72.9000;0.1547;-0.0478;
73.2000;0.1530;-0.0597;
73.5000;0.1473;-0.0812;
73.8000;0.1612;-0.0454;
74.1000;0.1530;-0.0621;
74.4000;0.1538;-0.0669;
74.7000;0.1441;-0.0860;
75.0000;0.1514;-0.0621;
75.3000;0.1530;-0.0502;
75.6000;0.1514;-0.0478;
75.9000;0.1522;-0.0550;
76.2000;0.1522;-0.0669;
76.5000;0.1522;-0.0812;
76.8000;0.1547;-0.0693;
77.1000;0.1530;-0.0741;
77.4000;0.1530;-0.0717;
77.7000;0.1506;-0.0693;
78.0000;0.1522;-0.0645;
78.3000;0.1579;-0.0382;
78.6000;0.1538;-0.0478;
78.9000;0.1530;-0.0430;
79.2000;0.1555;-0.0382;
79.5000;0.1522;-0.0430;
79.8000;0.1498;-0.0574;
80.1000;0.1538;-0.0454;
80.4000;0.1514;-0.0478;
80.7000;0.1530;-0.0502;
81.0000;0.1538;-0.0526;
81.3000;0.1587;-0.0335;
81.6000;0.1661;-0.0239;
81.9000;0.1506;-0.0621;
82.2000;0.1522;-0.0597;
82.5000;0.1522;-0.0574;
82.8000;0.1490;-0.0645;
83.1000;0.1538;-0.0502;
83.4000;0.1547;-0.0454;
83.7000;0.1522;-0.0502;
84.0000;0.1538;-0.0406;
84.3000;0.1538;-0.0382;
84.6000;0.1547;-0.0430;
84.9000;0.1498;-0.0526;
85.2000;0.1587;-0.0358;
85.5000;0.1571;-0.0430;
85.8000;0.1595;-0.0287;
86.1000;0.1555;-0.0478;
86.4000;0.1481;-0.0645;
86.7000;0.1514;-0.0550;
87.0000;0.1498;-0.0550;
87.3000;0.1498;-0.0550;
87.6000;0.1473;-0.0597;
87.9000;0.1555;-0.0287;
88.2000;0.1506;-0.0358;
88.5000;0.1514;-0.0358;
88.8000;0.1538;-0.0335;
89.1000;0.1571;-0.0287;
89.4000;0.1490;-0.0574;
89.7000;0.1620;-0.0191;
90.0000;0.1514;-0.0454;
90.3000;0.1547;-0.0382;
90.6000;0.1530;-0.0454;
90.9000;0.1522;-0.0502;
91.2000;0.1530;-0.0526;
91.5000;0.1522;-0.0597;
91.8000;0.1530;-0.0574;
92.1000;0.1490;-0.0741;
92.4000;0.1522;-0.0693;
92.7000;0.1449;-0.0884;
93.0000;0.1506;-0.0645;
93.3000;0.1571;-0.0430;
93.6000;0.1506;-0.0550;
93.9000;0.1514;-0.0574;
94.2000;0.1530;-0.0574;
94.5000;0.1522;-0.0765;
94.8000;0.1571;-0.0693;
95.1000;0.1538;-0.0836;
95.4000;0.1571;-0.0645;
95.7000;0.1538;-0.0717;
96.0000;0.1547;-0.0621;
96.3000;0.1530;-0.0597;
96.6000;0.1514;-0.0669;
96.9000;0.1522;-0.0717;
97.2000;0.1555;-0.0621;
97.5000;0.1530;-0.0669;
97.8000;0.1506;-0.0812;
98.1000;0.1530;-0.0765;
98.4000;0.1530;-0.0860;
98.7000;0.1530;-0.0860;
99.0000;0.1514;-0.0812;
99.3000;0.1481;-0.0884;
99.6000;0.1514;-0.0789;
99.9000;0.1530;-0.0645;
100.2000;0.1538;-0.0597;
100.5000;0.1538;-0.0526;
100.8000;0.1555;-0.0550;
101.1000;0.1538;-0.0621;
101.4000;0.1571;-0.0597;
101.7000;0.1538;-0.0574;
102.0000;0.1547;-0.0502;
102.3000;0.1530;-0.0574;
102.6000;0.1506;-0.0597;
102.9000;0.1522;-0.0574;
103.2000;0.1530;-0.0645;
103.5000;0.1522;-0.0621;
103.8000;0.1547;-0.0526;
104.1000;0.1547;-0.0454;
104.4000;0.1538;-0.0478;
104.7000;0.1530;-0.0574;
105.0000;0.1547;-0.0550;
105.3000;0.1506;-0.0550;
105.6000;0.1628;-0.0263;
105.9000;0.1547;-0.0406;
106.2000;0.1555;-0.0358;
106.5000;0.1547;-0.0263;
106.8000;0.1547;-0.0335;
107.1000;0.1547;-0.0287;
107.4000;0.1530;-0.0358;
107.7000;0.1555;-0.0382;
108.0000;0.1530;-0.0454;
108.3000;0.1425;-0.0693;
108.6000;0.1465;-0.0597;
108.9000;0.1522;-0.0478;
109.2000;0.1506;-0.0478;
109.5000;0.1547;-0.0358;
109.8000;0.1522;-0.0382;
110.1000;0.1481;-0.0574;
110.4000;0.1530;-0.0526;
110.7000;0.1547;-0.0526;
111.0000;0.1514;-0.0597;
111.3000;0.1530;-0.0550;
111.6000;0.1498;-0.0597;
111.9000;0.1530;-0.0382;
112.2000;0.1530;-0.0287;
112.5000;0.1530;-0.0311;
112.8000;0.1506;-0.0382;
113.1000;0.1514;-0.0406;
113.4000;0.1522;-0.0406;
113.7000;0.1514;-0.0478;
114.0000;0.1498;-0.0621;
114.3000;0.1490;-0.0526;
114.6000;0.1530;-0.0454;
114.9000;0.1522;-0.0406;
115.2000;0.1530;-0.0406;
115.5000;0.1514;-0.0430;
115.8000;0.1522;-0.0430;
116.1000;0.1538;-0.0382;
116.4000;0.1538;-0.0382;
116.7000;0.1538;-0.0406;
117.0000;0.1538;-0.0478;
117.3000;0.1514;-0.0526;
117.6000;0.1506;-0.0502;
117.9000;0.1538;-0.0454;
118.2000;0.1530;-0.0430;
118.5000;0.1522;-0.0454;
118.8000;0.1522;-0.0550;
119.1000;0.1538;-0.0502;
119.4000;0.1530;-0.0502;
119.7000;0.1522;-0.0550;
120.0000;0.1538;-0.0502;
120.3000;0.1547;-0.0454;
120.6000;0.1555;-0.0454;
120.9000;0.1530;-0.0550;
121.2000;0.1555;-0.0550;
121.5000;0.1514;-0.0669;
121.8000;0.1522;-0.0669;
122.1000;0.1522;-0.0621;
122.4000;0.1522;-0.0621;
122.7000;0.1547;-0.0526;
123.0000;0.1555;-0.0526;
123.3000;0.1498;-0.0574;
123.6000;0.1538;-0.0454;
123.9000;0.1530;-0.0430;
124.2000;0.1538;-0.0358;
124.5000;0.1587;-0.0263;
124.8000;0.1457;-0.0574;
125.1000;0.1530;-0.0335;
125.4000;0.1530;-0.0430;
125.7000;0.1522;-0.0454;
126.0000;0.1514;-0.0502;
126.3000;0.1465;-0.0645;
126.6000;0.1587;-0.0263;
126.9000;0.1506;-0.0526;
127.2000;0.1514;-0.0550;
127.5000;0.1498;-0.0645;
127.8000;0.1555;-0.0597;
128.1000;0.1457;-0.0836;
128.4000;0.1514;-0.0645;
128.7000;0.1538;-0.0621;
129.0000;0.1522;-0.0669;
129.3000;0.1506;-0.0717;
129.6000;0.1530;-0.0645;
129.9000;0.1522;-0.0693;
130.2000;0.1514;-0.0693;
130.5000;0.1547;-0.0597;
130.8000;0.1522;-0.0621;
131.1000;0.1514;-0.0526;
131.4000;0.1498;-0.0502;
131.7000;0.1506;-0.0526;
132.0000;0.1522;-0.0526;
132.3000;0.1547;-0.0526;
132.6000;0.1514;-0.0597;
132.9000;0.1522;-0.0526;
133.2000;0.1538;-0.0478;
133.5000;0.1514;-0.0526;
133.8000;0.1481;-0.0717;
134.1000;0.1530;-0.0502;
134.4000;0.1530;-0.0502;
134.7000;0.1465;-0.0741;
135.0000;0.1514;-0.0597;
135.3000;0.1522;-0.0574;
135.6000;0.1530;-0.0550;
135.9000;0.1530;-0.0502;
136.2000;0.1506;-0.0502;
136.5000;0.1514;-0.0382;
136.8000;0.1547;-0.0358;
137.1000;0.1538;-0.0382;
137.4000;0.1547;-0.0382;
137.7000;0.1506;-0.0430;
138.0000;0.1514;-0.0406;
138.3000;0.1538;-0.0430;
138.6000;0.1514;-0.0526;
138.9000;0.1522;-0.0526;
139.2000;0.1538;-0.0478;
139.5000;0.1522;-0.0430;
139.8000;0.1538;-0.0454;
140.1000;0.1514;-0.0502;
140.4000;0.1506;-0.0550;
140.7000;0.1530;-0.0406;
141.0000;0.1522;-0.0430;
141.3000;0.1547;-0.0502;
141.6000;0.1514;-0.0550;
141.9000;0.1530;-0.0597;
142.2000;0.1530;-0.0550;
142.5000;0.1457;-0.0765;
142.8000;0.1522;-0.0478;
143.1000;0.1522;-0.0454;
143.4000;0.1506;-0.0406;
143.7000;0.1530;-0.0382;
144.0000;0.1522;-0.0406;
144.3000;0.1652;-0.0048;
144.6000;0.1522;-0.0382;
144.9000;0.1538;-0.0406;
145.2000;0.1530;-0.0382;
145.5000;0.1522;-0.0358;
145.8000;0.1514;-0.0382;
146.1000;0.1530;-0.0311;
146.4000;0.1530;-0.0311;
146.7000;0.1490;-0.0454;
147.0000;0.1555;-0.0311;
147.3000;0.1530;-0.0454;
147.6000;0.1490;-0.0502;
147.9000;0.1498;-0.0502;
148.2000;0.1522;-0.0478;
148.5000;0.1506;-0.0550;
148.8000;0.1522;-0.0526;
149.1000;0.1547;-0.0454;
149.4000;0.1530;-0.0526;
149.7000;0.1555;-0.0502;
150.0000;0.1522;-0.0574;
150.3000;0.1522;-0.0550;
150.6000;0.1571;-0.0311;
150.9000;0.1530;-0.0430;
151.2000;0.1555;-0.0358;
151.5000;0.1514;-0.0382;
151.8000;0.1490;-0.0454;
152.1000;0.1506;-0.0335;
152.4000;0.1522;-0.0239;
152.7000;0.1530;-0.0287;
153.0000;0.1514;-0.0311;
153.3000;0.1514;-0.0358;
153.6000;0.1522;-0.0335;
153.9000;0.1530;-0.0263;
154.2000;0.1514;-0.0311;
154.5000;0.1514;-0.0382;
154.8000;0.1530;-0.0287;
155.1000;0.1530;-0.0263;
155.4000;0.1522;-0.0358;
155.7000;0.1530;-0.0454;
156.0000;0.1522;-0.0574;
156.3000;0.1538;-0.0574;
156.6000;0.1522;-0.0621;
156.9000;0.1538;-0.0645;
157.2000;0.1481;-0.0693;
157.5000;0.1530;-0.0574;
157.8000;0.1530;-0.0717;
158.1000;0.1514;-0.0765;
158.4000;0.1506;-0.0812;
158.7000;0.1538;-0.0741;
159.0000;0.1522;-0.0789;
159.3000;0.1473;-0.0932;
159.6000;0.1490;-0.0812;
159.9000;0.1530;-0.0645;
160.2000;0.1481;-0.0621;
160.5000;0.1457;-0.0669;
160.8000;0.1538;-0.0454;
161.1000;0.1530;-0.0550;
161.4000;0.1555;-0.0502;
161.7000;0.1538;-0.0526;
162.0000;0.1530;-0.0550;
162.3000;0.1490;-0.0669;
162.6000;0.1547;-0.0502;
162.9000;0.1530;-0.0526;
163.2000;0.1522;-0.0526;
163.5000;0.1506;-0.0550;
163.8000;0.1506;-0.0621;
164.1000;0.1555;-0.0502;
164.4000;0.1538;-0.0550;
164.7000;0.1538;-0.0478;
165.0000;0.1522;-0.0478;
165.3000;0.1538;-0.0550;
165.6000;0.1514;-0.0621;
165.9000;0.1522;-0.0645;
166.2000;0.1506;-0.0621;
166.5000;0.1579;-0.0526;
166.8000;0.1547;-0.0669;
167.1000;0.1522;-0.0645;
167.4000;0.1595;-0.0454;
167.7000;0.1522;-0.0597;
168.0000;0.1530;-0.0526;
168.3000;0.1465;-0.0621;
168.6000;0.1506;-0.0478;
168.9000;0.1530;-0.0382;
169.2000;0.1530;-0.0478;
169.5000;0.1522;-0.0478;
169.8000;0.1530;-0.0430;
170.1000;0.1563;-0.0335;
170.4000;0.1555;-0.0430;
170.7000;0.1530;-0.0502;
171.0000;0.1538;-0.0550;
171.3000;0.1522;-0.0478;
171.6000;0.1514;-0.0502;
171.9000;0.1530;-0.0478;
172.2000;0.1530;-0.0502;
172.5000;0.1555;-0.0550;
172.8000;0.1530;-0.0693;
173.1000;0.1449;-0.0908;
173.4000;0.1530;-0.0741;
173.7000;0.1652;-0.0287;
174.0000;0.1514;-0.0645;
174.3000;0.1506;-0.0645;
174.6000;0.1547;-0.0502;
174.9000;0.1522;-0.0526;
175.2000;0.1522;-0.0574;
175.5000;0.1514;-0.0574;
175.8000;0.1522;-0.0621;
176.1000;0.1530;-0.0574;
176.4000;0.1538;-0.0597;
176.7000;0.1530;-0.0621;
177.0000;0.1514;-0.0550;
177.3000;0.1530;-0.0406;
177.6000;0.1514;-0.0502;
177.9000;0.1530;-0.0574;
178.2000;0.1538;-0.0597;
178.5000;0.1522;-0.0645;
178.8000;0.1522;-0.0574;
179.1000;0.1498;-0.0693;
179.4000;0.1530;-0.0574;
179.7000;0.1530;-0.0526;
180.0000;0.1522;-0.0621;
180.3000;0.1506;-0.0669;
180.6000;0.1595;-0.0430;
180.9000;0.1530;-0.0597;
181.2000;0.1677;-0.0119;
181.5000;0.1514;-0.0574;
181.8000;0.1449;-0.0765;
182.1000;0.1465;-0.0669;
182.4000;0.1538;-0.0597;
182.7000;0.1392;-0.0932;
183.0000;0.1408;-0.0932;
183.3000;0.1547;-0.0526;
183.6000;0.1669;-0.0239;
183.9000;0.1522;-0.0526;
184.2000;0.1547;-0.0406;
184.5000;0.1522;-0.0502;
184.8000;0.1530;-0.0502;
185.1000;0.1530;-0.0430;
185.4000;0.1530;-0.0406;
185.7000;0.1530;-0.0574;
186.0000;0.1530;-0.0597;
186.3000;0.1506;-0.0741;
186.6000;0.1514;-0.0693;
186.9000;0.1628;-0.0454;
187.2000;0.1530;-0.0693;
187.5000;0.1522;-0.0717;
187.8000;0.1522;-0.0693;
188.1000;0.1555;-0.0621;
188.4000;0.1530;-0.0597;
188.7000;0.1538;-0.0574;
189.0000;0.1538;-0.0550;
189.3000;0.1530;-0.0502;
189.6000;0.1530;-0.0550;
189.9000;0.1547;-0.0502;
190.2000;0.1530;-0.0550;
190.5000;0.1530;-0.0502;
190.8000;0.1522;-0.0478;
191.1000;0.1547;-0.0430;
191.4000;0.1530;-0.0478;
191.7000;0.1514;-0.0597;
192.0000;0.1595;-0.0430;
192.3000;0.1530;-0.0621;
192.6000;0.1473;-0.0908;
192.9000;0.1547;-0.0645;
193.2000;0.1514;-0.0717;
193.5000;0.1506;-0.0741;
193.8000;0.1555;-0.0621;
194.1000;0.1547;-0.0550;
194.4000;0.1522;-0.0550;
194.7000;0.1506;-0.0621;
195.0000;0.1490;-0.0789;
195.3000;0.1587;-0.0478;
195.6000;0.1408;-0.0956;
195.9000;0.1506;-0.0645;
196.2000;0.1547;-0.0526;
196.5000;0.1530;-0.0526;
196.8000;0.1490;-0.0550;
197.1000;0.1612;-0.0167;
197.4000;0.1538;-0.0406;
197.7000;0.1522;-0.0478;
198.0000;0.1490;-0.0526;
198.3000;0.1579;-0.0335;
198.6000;0.1538;-0.0454;
198.9000;0.1538;-0.0454;
199.2000;0.1522;-0.0478;
199.5000;0.1498;-0.0502;
199.8000;0.1522;-0.0526;
200.1000;0.1595;-0.0382;
200.4000;0.1400;-0.0908;
200.7000;0.1522;-0.0502;
201.0000;0.1530;-0.0382;
201.3000;0.1514;-0.0406;
201.6000;0.1522;-0.0478;
201.9000;0.1563;-0.0358;
202.2000;0.1522;-0.0406;
202.5000;0.1490;-0.0454;
202.8000;0.1506;-0.0358;
203.1000;0.1579;-0.0215;
203.4000;0.1498;-0.0478;
203.7000;0.1555;-0.0382;
204.0000;0.1530;-0.0478;
204.3000;0.1538;-0.0454;
204.6000;0.1538;-0.0430;
204.9000;0.1506;-0.0597;
205.2000;0.1433;-0.0741;
205.5000;0.1620;-0.0239;
205.8000;0.1506;-0.0478;
206.1000;0.1490;-0.0574;
206.4000;0.1530;-0.0478;
206.7000;0.1481;-0.0597;
207.0000;0.1465;-0.0645;
207.3000;0.1506;-0.0621;
207.6000;0.1571;-0.0526;
207.9000;0.1538;-0.0550;
208.2000;0.1547;-0.0478;
208.5000;0.1547;-0.0406;
208.8000;0.1571;-0.0263;
209.1000;0.1555;-0.0358;
209.4000;0.1547;-0.0382;
209.7000;0.1538;-0.0406;
210.0000;0.1506;-0.0430;
210.3000;0.1530;-0.0406;
210.6000;0.1522;-0.0478;
210.9000;0.1563;-0.0478;
211.2000;0.1514;-0.0574;
211.5000;0.1522;-0.0574;
211.8000;0.1538;-0.0502;
212.1000;0.1506;-0.0621;
212.4000;0.1522;-0.0574;
212.7000;0.1514;-0.0597;
213.0000;0.1530;-0.0526;
213.3000;0.1465;-0.0741;
213.6000;0.1547;-0.0621;
213.9000;0.1514;-0.0645;
214.2000;0.1530;-0.0621;
214.5000;0.1514;-0.0693;
214.8000;0.1538;-0.0669;
215.1000;0.1514;-0.0693;
215.4000;0.1506;-0.0669;
215.7000;0.1547;-0.0574;
216.0000;0.1579;-0.0621;
216.3000;0.1522;-0.0765;
216.6000;0.1612;-0.0574;
216.9000;0.1555;-0.0669;
217.2000;0.1530;-0.0717;
217.5000;0.1547;-0.0597;
217.8000;0.1522;-0.0717;
218.1000;0.1506;-0.0741;
218.4000;0.1530;-0.0717;
218.7000;0.1514;-0.0765;
219.0000;0.1530;-0.0765;
219.3000;0.1498;-0.0789;
219.6000;0.1547;-0.0574;
219.9000;0.1538;-0.0574;
220.2000;0.1514;-0.0597;
220.5000;0.1587;-0.0406;
220.8000;0.1652;-0.0215;
221.1000;0.1587;-0.0478;
221.4000;0.1530;-0.0669;
221.7000;0.1522;-0.0741;
222.0000;0.1514;-0.0765;
222.3000;0.1530;-0.0717;
222.6000;0.1522;-0.0645;
222.9000;0.1530;-0.0669;
223.2000;0.1530;-0.0741;
223.5000;0.1481;-0.0789;
223.8000;0.1522;-0.0693;
224.1000;0.1530;-0.0669;
224.4000;0.1538;-0.0693;
224.7000;0.1530;-0.0669;
225.0000;0.1498;-0.0908;
225.3000;0.1538;-0.0717;
225.6000;0.1530;-0.0717;
225.9000;0.1514;-0.0717;
226.2000;0.1514;-0.0812;
226.5000;0.1555;-0.0765;
226.8000;0.1514;-0.0836;
227.1000;0.1538;-0.0717;
227.4000;0.1579;-0.0645;
227.7000;0.1506;-0.0789;
228.0000;0.1538;-0.0765;
228.3000;0.1530;-0.0741;
228.6000;0.1538;-0.0645;
228.9000;0.1522;-0.0717;
229.2000;0.1514;-0.0669;
229.5000;0.1530;-0.0669;
229.8000;0.1547;-0.0526;
230.1000;0.1563;-0.0478;
230.4000;0.1530;-0.0597;
230.7000;0.1514;-0.0645;
231.0000;0.1514;-0.0741;
231.3000;0.1555;-0.0574;
231.6000;0.1538;-0.0621;
231.9000;0.1530;-0.0645;
232.2000;0.1538;-0.0621;
232.5000;0.1522;-0.0621;
232.8000;0.1522;-0.0597;
233.1000;0.1547;-0.0478;
233.4000;0.1522;-0.0454;
233.7000;0.1538;-0.0430;
234.0000;0.1538;-0.0406;
234.3000;0.1522;-0.0550;
234.6000;0.1514;-0.0574;
234.9000;0.1522;-0.0574;
235.2000;0.1530;-0.0550;
235.5000;0.1530;-0.0574;
235.8000;0.1538;-0.0526;
236.1000;0.1530;-0.0574;
236.4000;0.1522;-0.0550;
236.7000;0.1547;-0.0526;
237.0000;0.1514;-0.0621;
237.3000;0.1530;-0.0621;
237.6000;0.1547;-0.0478;
237.9000;0.1530;-0.0526;
238.2000;0.1555;-0.0502;
238.5000;0.1490;-0.0669;
238.8000;0.1538;-0.0597;
239.1000;0.1514;-0.0597;
239.4000;0.1490;-0.0621;
239.7000;0.1522;-0.0550;
240.0000;0.1522;-0.0621;
240.3000;0.1636;-0.0382;
240.6000;0.1506;-0.0621;
240.9000;0.1514;-0.0526;
241.2000;0.1538;-0.0382;
241.5000;0.1538;-0.0406;
241.8000;0.1530;-0.0430;
242.1000;0.1441;-0.0693;
242.4000;0.1498;-0.0574;
242.7000;0.1514;-0.0550;
243.0000;0.1506;-0.0502;
243.3000;0.1514;-0.0550;
243.6000;0.1547;-0.0574;
243.9000;0.1506;-0.0693;
244.2000;0.1514;-0.0621;
244.5000;0.1522;-0.0550;
244.8000;0.1514;-0.0597;
245.1000;0.1514;-0.0454;
245.4000;0.1514;-0.0406;
245.7000;0.1514;-0.0430;
246.0000;0.1506;-0.0430;
246.3000;0.1481;-0.0526;
246.6000;0.1604;-0.0263;
246.9000;0.1538;-0.0406;
247.2000;0.1522;-0.0382;
247.5000;0.1522;-0.0430;
247.8000;0.1547;-0.0311;
248.1000;0.1555;-0.0311;
248.4000;0.1514;-0.0358;
248.7000;0.1514;-0.0335;
249.0000;0.1538;-0.0358;
249.3000;0.1571;-0.0287;
249.6000;0.1530;-0.0358;
249.9000;0.1506;-0.0335;
250.2000;0.1441;-0.0526;
250.5000;0.1506;-0.0335;
250.8000;0.1530;-0.0287;
251.1000;0.1538;-0.0239;
251.4000;0.1555;-0.0287;
251.7000;0.1530;-0.0335;
252.0000;0.1514;-0.0406;
252.3000;0.1530;-0.0502;
252.6000;0.1530;-0.0502;
252.9000;0.1530;-0.0526;
253.2000;0.1538;-0.0478;
253.5000;0.1530;-0.0526;
253.8000;0.1522;-0.0502;
254.1000;0.1490;-0.0574;
254.4000;0.1530;-0.0502;
254.7000;0.1530;-0.0597;
255.0000;0.1522;-0.0526;
255.3000;0.1538;-0.0454;
255.6000;0.1522;-0.0502;
255.9000;0.1538;-0.0430;
256.2000;0.1587;-0.0382;
256.5000;0.1473;-0.0621;
256.8000;0.1530;-0.0454;
257.1000;0.1563;-0.0358;
257.4000;0.1498;-0.0574;
257.7000;0.1522;-0.0574;
258.0000;0.1547;-0.0502;
258.3000;0.1538;-0.0430;
258.6000;0.1530;-0.0358;
258.9000;0.1530;-0.0382;
259.2000;0.1514;-0.0478;
259.5000;0.1506;-0.0502;
259.8000;0.1530;-0.0406;
260.1000;0.1530;-0.0358;
260.4000;0.1538;-0.0335;
260.7000;0.1530;-0.0358;
261.0000;0.1514;-0.0335;
261.3000;0.1620;-0.0119;
261.6000;0.1514;-0.0406;
261.9000;0.1522;-0.0358;
262.2000;0.1530;-0.0382;
262.5000;0.1538;-0.0335;
262.8000;0.1514;-0.0335;
263.1000;0.1530;-0.0311;
263.4000;0.1538;-0.0335;
263.7000;0.1530;-0.0287;
264.0000;0.1530;-0.0311;
264.3000;0.1473;-0.0502;
264.6000;0.1530;-0.0382;
264.9000;0.1538;-0.0311;
265.2000;0.1538;-0.0382;
265.5000;0.1506;-0.0382;
265.8000;0.1522;-0.0239;
266.1000;0.1449;-0.0454;
266.4000;0.1538;-0.0191;
266.7000;0.1522;-0.0335;
267.0000;0.1522;-0.0311;
267.3000;0.1522;-0.0382;
267.6000;0.1530;-0.0335;
267.9000;0.1473;-0.0502;
268.2000;0.1522;-0.0430;
268.5000;0.1530;-0.0382;
268.8000;0.1604;-0.0239;
269.1000;0.1571;-0.0478;
269.4000;0.1506;-0.0574;
269.7000;0.1522;-0.0597;
270.0000;0.1506;-0.0574;
270.3000;0.1530;-0.0550;
270.6000;0.1530;-0.0526;
270.9000;0.1547;-0.0406;
271.2000;0.1530;-0.0430;
271.5000;0.1538;-0.0382;
271.8000;0.1522;-0.0502;
272.1000;0.1571;-0.0311;
272.4000;0.1571;-0.0287;
272.7000;0.1530;-0.0430;
273.0000;0.1522;-0.0406;
273.3000;0.1506;-0.0550;
273.6000;0.1506;-0.0574;
273.9000;0.1530;-0.0574;
274.2000;0.1571;-0.0478;
274.5000;0.1514;-0.0621;
274.8000;0.1498;-0.0621;
275.1000;0.1530;-0.0597;
275.4000;0.1465;-0.0717;
275.7000;0.1612;-0.0311;
276.0000;0.1522;-0.0645;
276.3000;0.1547;-0.0550;
276.6000;0.1498;-0.0621;
276.9000;0.1530;-0.0502;
277.2000;0.1571;-0.0430;
277.5000;0.1547;-0.0454;
277.8000;0.1490;-0.0502;
278.1000;0.1522;-0.0358;
278.4000;0.1530;-0.0430;
278.7000;0.1538;-0.0382;
279.0000;0.1547;-0.0311;
279.3000;0.1530;-0.0358;
279.6000;0.1547;-0.0430;
279.9000;0.1538;-0.0406;
280.2000;0.1628;-0.0143;
280.5000;0.1538;-0.0335;
280.8000;0.1522;-0.0263;
281.1000;0.1547;-0.0239;
281.4000;0.1555;-0.0287;
281.7000;0.1530;-0.0358;
282.0000;0.1530;-0.0358;
282.3000;0.1506;-0.0382;
282.6000;0.1473;-0.0454;
282.9000;0.1522;-0.0215;
283.2000;0.1530;-0.0263;
283.5000;0.1538;-0.0263;
283.8000;0.1481;-0.0406;
284.1000;0.1522;-0.0263;
284.4000;0.1425;-0.0526;
284.7000;0.1522;-0.0287;
285.0000;0.1522;-0.0335;
285.3000;0.1522;-0.0311;
285.6000;0.1547;-0.0454;
285.9000;0.1530;-0.0526;
286.2000;0.1538;-0.0502;
286.5000;0.1514;-0.0526;
286.8000;0.1538;-0.0406;
287.1000;0.1522;-0.0382;
287.4000;0.1490;-0.0406;
287.7000;0.1498;-0.0502;
288.0000;0.1506;-0.0454;
288.3000;0.1514;-0.0406;
288.6000;0.1514;-0.0406;
288.9000;0.1530;-0.0335;
289.2000;0.1530;-0.0358;
289.5000;0.1530;-0.0311;
289.8000;0.1547;-0.0335;
290.1000;0.1522;-0.0358;
290.4000;0.1538;-0.0358;
290.7000;0.1530;-0.0382;
291.0000;0.1538;-0.0335;
291.3000;0.1522;-0.0287;
291.6000;0.1530;-0.0263;
291.9000;0.1547;-0.0263;
292.2000;0.1514;-0.0311;
292.5000;0.1530;-0.0263;
292.8000;0.1514;-0.0382;
293.1000;0.1522;-0.0311;
293.4000;0.1530;-0.0335;
293.7000;0.1522;-0.0287;
294.0000;0.1547;-0.0191;
294.3000;0.1563;-0.0215;
294.6000;0.1522;-0.0335;
294.9000;0.1408;-0.0669;
295.2000;0.1514;-0.0335;
295.5000;0.1538;-0.0287;
295.8000;0.1555;-0.0167;
296.1000;0.1514;-0.0335;
296.4000;0.1522;-0.0358;
296.7000;0.1522;-0.0358;
297.0000;0.1302;-0.0956;
297.3000;0.1522;-0.0406;
297.6000;0.1441;-0.0669;
297.9000;0.1473;-0.0597;
298.2000;0.1514;-0.0502;
298.5000;0.1538;-0.0406;
298.8000;0.1481;-0.0502;
299.1000;0.1579;-0.0239;
299.4000;0.1506;-0.0406;
299.7000;0.1522;-0.0358;
300.0000;0.1522;-0.0311;
300.3000;0.1571;-0.0215;
300.6000;0.1538;-0.0263;
300.9000;0.1498;-0.0382;
301.2000;0.1530;-0.0263;
301.5000;0.1547;-0.0191;
301.8000;0.1530;-0.0263;
302.1000;0.1538;-0.0335;
302.4000;0.1547;-0.0311;
302.7000;0.1538;-0.0335;
303.0000;0.1514;-0.0382;
303.3000;0.1522;-0.0311;
303.6000;0.1530;-0.0311;
303.9000;0.1522;-0.0239;
304.2000;0.1514;-0.0215;
304.5000;0.1530;-0.0143;
304.8000;0.1530;-0.0191;
305.1000;0.1522;-0.0215;
305.4000;0.1473;-0.0406;
305.7000;0.1522;-0.0335;
306.0000;0.1530;-0.0335;
306.3000;0.1498;-0.0406;
306.6000;0.1522;-0.0406;
306.9000;0.1547;-0.0287;
307.2000;0.1514;-0.0358;
307.5000;0.1530;-0.0335;
307.8000;0.1595;-0.0096;
308.1000;0.1530;-0.0191;
308.4000;0.1449;-0.0335;
308.7000;0.1538;-0.0191;
309.0000;0.1571;-0.0143;
309.3000;0.1506;-0.0263;
309.6000;0.1522;-0.0191;
309.9000;0.1547;-0.0215;
310.2000;0.1555;-0.0263;
310.5000;0.1538;-0.0335;
310.8000;0.1506;-0.0454;
311.1000;0.1522;-0.0430;
311.4000;0.1506;-0.0406;
311.7000;0.1514;-0.0406;
312.0000;0.1522;-0.0406;
312.3000;0.1530;-0.0335;
312.6000;0.1522;-0.0311;
312.9000;0.1547;-0.0191;
313.2000;0.1563;-0.0167;
313.5000;0.1514;-0.0406;
313.8000;0.1538;-0.0311;
314.1000;0.1530;-0.0382;
314.4000;0.1547;-0.0430;
314.7000;0.1538;-0.0430;
315.0000;0.1514;-0.0526;
315.3000;0.1547;-0.0454;
315.6000;0.1408;-0.0789;
315.9000;0.1530;-0.0406;
316.2000;0.1506;-0.0430;
316.5000;0.1538;-0.0358;
316.8000;0.1555;-0.0382;
317.1000;0.1490;-0.0478;
317.4000;0.1555;-0.0382;
317.7000;0.1547;-0.0502;
318.0000;0.1538;-0.0454;
318.3000;0.1538;-0.0430;
318.6000;0.1514;-0.0502;
318.9000;0.1579;-0.0358;
319.2000;0.1538;-0.0502;
319.5000;0.1538;-0.0526;
319.8000;0.1547;-0.0526;
320.1000;0.1530;-0.0574;
320.4000;0.1538;-0.0597;
320.7000;0.1522;-0.0597;
321.0000;0.1514;-0.0550;
321.3000;0.1490;-0.0478;
321.6000;0.1530;-0.0358;
321.9000;0.1579;-0.0215;
322.2000;0.1555;-0.0311;
322.5000;0.1522;-0.0478;
322.8000;0.1530;-0.0526;
323.1000;0.1514;-0.0621;
323.4000;0.1636;-0.0311;
323.7000;0.1530;-0.0550;
324.0000;0.1530;-0.0526;
324.3000;0.1522;-0.0574;
324.6000;0.1490;-0.0621;
324.9000;0.1481;-0.0693;
325.2000;0.1522;-0.0526;
325.5000;0.1490;-0.0526;
325.8000;0.1514;-0.0454;
326.1000;0.1530;-0.0382;
326.4000;0.1514;-0.0358;
326.7000;0.1538;-0.0287;
327.0000;0.1555;-0.0215;
327.3000;0.1522;-0.0287;
327.6000;0.1538;-0.0382;
327.9000;0.1555;-0.0382;
328.2000;0.1498;-0.0526;
328.5000;0.1514;-0.0454;
328.8000;0.1555;-0.0382;
329.1000;0.1530;-0.0526;
329.4000;0.1514;-0.0550;
329.7000;0.1547;-0.0502;
330.0000;0.1522;-0.0382;
330.3000;0.1522;-0.0358;
330.6000;0.1612;-0.0215;
330.9000;0.1522;-0.0454;
331.2000;0.1514;-0.0478;
331.5000;0.1612;-0.0191;
331.8000;0.1506;-0.0502;
332.1000;0.1522;-0.0478;
332.4000;0.1604;-0.0191;
332.7000;0.1522;-0.0430;
333.0000;0.1506;-0.0430;
333.3000;0.1530;-0.0382;
333.6000;0.1530;-0.0430;
333.9000;0.1571;-0.0406;
334.2000;0.1506;-0.0597;
334.5000;0.1579;-0.0430;
334.8000;0.1514;-0.0502;
335.1000;0.1636;-0.0215;
335.4000;0.1522;-0.0406;
335.7000;0.1530;-0.0358;
336.0000;0.1514;-0.0430;
336.3000;0.1506;-0.0406;
336.6000;0.1514;-0.0358;
336.9000;0.1514;-0.0311;
337.2000;0.1547;-0.0263;
337.5000;0.1506;-0.0358;
337.8000;0.1530;-0.0215;
338.1000;0.1530;-0.0263;
338.4000;0.1490;-0.0311;
338.7000;0.1538;-0.0215;
339.0000;0.1530;-0.0239;
339.3000;0.1514;-0.0263;
339.6000;0.1612;-0.0048;
339.9000;0.1547;-0.0335;
340.2000;0.1530;-0.0430;
340.5000;0.1563;-0.0406;
340.8000;0.1514;-0.0454;
341.1000;0.1522;-0.0406;
341.4000;0.1522;-0.0406;
341.7000;0.1514;-0.0478;
342.0000;0.1522;-0.0406;
342.3000;0.1538;-0.0454;
342.6000;0.1506;-0.0526;
342.9000;0.1506;-0.0502;
343.2000;0.1547;-0.0406;
343.5000;0.1530;-0.0454;
343.8000;0.1522;-0.0502;
344.1000;0.1547;-0.0406;
344.4000;0.1514;-0.0430;
344.7000;0.1538;-0.0311;
345.0000;0.1506;-0.0311;
345.3000;0.1522;-0.0215;
345.6000;0.1538;-0.0215;
345.9000;0.1547;-0.0239;
346.2000;0.1498;-0.0382;
346.5000;0.1522;-0.0287;
346.8000;0.1522;-0.0358;
347.1000;0.1530;-0.0215;
347.4000;0.1555;-0.0167;
347.7000;0.1530;-0.0263;
348.0000;0.1538;-0.0191;
348.3000;0.1538;-0.0143;
348.6000;0.1514;-0.0287;
348.9000;0.1538;-0.0239;
349.2000;0.1530;-0.0239;
349.5000;0.1514;-0.0358;
349.8000;0.1530;-0.0263;
350.1000;0.1538;-0.0287;
350.4000;0.1530;-0.0239;
350.7000;0.1530;-0.0287;
351.0000;0.1490;-0.0454;
351.3000;0.1538;-0.0358;
351.6000;0.1595;-0.0239;
351.9000;0.1538;-0.0382;
352.2000;0.1465;-0.0597;
352.5000;0.1522;-0.0358;
352.8000;0.1538;-0.0430;
353.1000;0.1530;-0.0502;
353.4000;0.1587;-0.0406;
353.7000;0.1425;-0.0836;
354.0000;0.1522;-0.0574;
354.3000;0.1555;-0.0478;
354.6000;0.1612;-0.0335;
354.9000;0.1522;-0.0478;
355.2000;0.1506;-0.0430;
355.5000;0.1522;-0.0430;
355.8000;0.1514;-0.0382;
356.1000;0.1490;-0.0406;
356.4000;0.1522;-0.0287;
356.7000;0.1530;-0.0215;
357.0000;0.1571;-0.0215;
357.3000;0.1514;-0.0502;
357.6000;0.1547;-0.0430;
357.9000;0.1506;-0.0478;
358.2000;0.1506;-0.0478;
358.5000;0.1522;-0.0454;
358.8000;0.1522;-0.0478;
359.1000;0.1595;-0.0191;
359.4000;0.1530;-0.0454;
359.7000;0.1530;-0.0406;
360.0000;0.1530;-0.0454;
360.3000;0.1522;-0.0526;
360.6000;0.1530;-0.0430;
360.9000;0.1498;-0.0430;
361.2000;0.1555;-0.0311;
361.5000;0.1530;-0.0335;
361.8000;0.1620;-0.0167;
362.1000;0.1457;-0.0574;
362.4000;0.1514;-0.0358;
362.7000;0.1457;-0.0526;
363.0000;0.1522;-0.0287;
363.3000;0.1481;-0.0430;
363.6000;0.1506;-0.0454;
363.9000;0.1425;-0.0717;
364.2000;0.1514;-0.0478;
364.5000;0.1465;-0.0574;
364.8000;0.1538;-0.0382;
365.1000;0.1522;-0.0478;
365.4000;0.1522;-0.0430;
365.7000;0.1555;-0.0335;
366.0000;0.1547;-0.0406;
366.3000;0.1522;-0.0478;
366.6000;0.1555;-0.0502;
366.9000;0.1538;-0.0550;
367.2000;0.1522;-0.0478;
367.5000;0.1522;-0.0478;
367.8000;0.1530;-0.0430;
368.1000;0.1547;-0.0335;
368.4000;0.1514;-0.0287;
368.7000;0.1522;-0.0239;
369.0000;0.1522;-0.0239;
369.3000;0.1522;-0.0143;
369.6000;0.1506;-0.0215;
369.9000;0.1538;-0.0191;
370.2000;0.1506;-0.0239;
370.5000;0.1506;-0.0287;
370.8000;0.1522;-0.0215;
371.1000;0.1538;-0.0191;
371.4000;0.1538;-0.0263;
371.7000;0.1547;-0.0239;
372.0000;0.1530;-0.0263;
372.3000;0.1506;-0.0263;
372.6000;0.1514;-0.0287;
372.9000;0.1530;-0.0239;
373.2000;0.1522;-0.0167;
373.5000;0.1530;-0.0215;
373.8000;0.1514;-0.0287;
374.1000;0.1506;-0.0263;
374.4000;0.1522;-0.0239;
374.7000;0.1522;-0.0263;
375.0000;0.1522;-0.0215;
375.3000;0.1547;-0.0048;
375.6000;0.1514;-0.0215;
375.9000;0.1547;-0.0215;
376.2000;0.1530;-0.0287;
376.5000;0.1538;-0.0263;
376.8000;0.1538;-0.0382;
377.1000;0.1457;-0.0502;
377.4000;0.1538;-0.0311;
377.7000;0.1530;-0.0358;
378.0000;0.1538;-0.0335;
378.3000;0.1538;-0.0311;
378.6000;0.1522;-0.0406;
378.9000;0.1514;-0.0406;
379.2000;0.1506;-0.0430;
379.5000;0.1563;-0.0358;
379.8000;0.1563;-0.0239;
380.1000;0.1571;-0.0191;
380.4000;0.1530;-0.0263;
380.7000;0.1538;-0.0335;
381.0000;0.1579;-0.0215;
381.3000;0.1514;-0.0358;
381.6000;0.1498;-0.0382;
381.9000;0.1636;-0.0072;
382.2000;0.1530;-0.0358;
382.5000;0.1612;-0.0048;
382.8000;0.1538;-0.0287;
383.1000;0.1506;-0.0358;
383.4000;0.1547;-0.0382;
383.7000;0.1547;-0.0382;
384.0000;0.1555;-0.0311;
384.3000;0.1514;-0.0382;
384.6000;0.1522;-0.0406;
384.9000;0.1530;-0.0335;
385.2000;0.1522;-0.0382;
385.5000;0.1547;-0.0263;
385.8000;0.1498;-0.0382;
386.1000;0.1595;-0.0096;
386.4000;0.1522;-0.0287;
386.7000;0.1522;-0.0287;
387.0000;0.1416;-0.0550;
387.3000;0.1587;-0.0239;
387.6000;0.1514;-0.0335;
387.9000;0.1530;-0.0335;
388.2000;0.1481;-0.0454;
388.5000;0.1530;-0.0382;
388.8000;0.1522;-0.0358;
389.1000;0.1506;-0.0382;
389.4000;0.1514;-0.0335;
389.7000;0.1530;-0.0311;
390.0000;0.1506;-0.0358;
390.3000;0.1522;-0.0358;
390.6000;0.1522;-0.0406;
390.9000;0.1522;-0.0430;
391.2000;0.1481;-0.0574;
391.5000;0.1547;-0.0358;
391.8000;0.1522;-0.0430;
392.1000;0.1530;-0.0454;
392.4000;0.1538;-0.0406;
392.7000;0.1522;-0.0358;
393.0000;0.1514;-0.0454;
393.3000;0.1530;-0.0478;
393.6000;0.1538;-0.0430;
393.9000;0.1530;-0.0478;
394.2000;0.1514;-0.0645;
394.5000;0.1530;-0.0574;
394.8000;0.1530;-0.0574;
395.1000;0.1506;-0.0669;
395.4000;0.1530;-0.0597;
395.7000;0.1530;-0.0574;
396.0000;0.1538;-0.0574;
396.3000;0.1530;-0.0550;
396.6000;0.1555;-0.0406;
396.9000;0.1530;-0.0454;
397.2000;0.1538;-0.0454;
397.5000;0.1514;-0.0502;
397.8000;0.1522;-0.0502;
398.1000;0.1538;-0.0454;
398.4000;0.1490;-0.0574;
398.7000;0.1538;-0.0430;
399.0000;0.1538;-0.0287;
399.3000;0.1506;-0.0382;
399.6000;0.1538;-0.0263;
399.9000;0.1538;-0.0143;
400.2000;0.1538;-0.0191;
400.5000;0.1530;-0.0263;
400.8000;0.1538;-0.0263;
401.1000;0.1514;-0.0358;
401.4000;0.1514;-0.0358;
401.7000;0.1490;-0.0358;
402.0000;0.1538;-0.0311;
402.3000;0.1514;-0.0406;
402.6000;0.1522;-0.0406;
402.9000;0.1522;-0.0382;
403.2000;0.1538;-0.0311;
403.5000;0.1530;-0.0311;
403.8000;0.1522;-0.0335;
404.1000;0.1522;-0.0358;
404.4000;0.1522;-0.0263;
404.7000;0.1514;-0.0335;
405.0000;0.1538;-0.0263;
405.3000;0.1555;-0.0311;
405.6000;0.1538;-0.0335;
405.9000;0.1530;-0.0382;
406.2000;0.1465;-0.0574;
406.5000;0.1449;-0.0669;
406.8000;0.1514;-0.0502;
407.1000;0.1579;-0.0311;
407.4000;0.1514;-0.0526;
407.7000;0.1522;-0.0621;
408.0000;0.1530;-0.0597;
408.3000;0.1555;-0.0502;
408.6000;0.1481;-0.0789;
408.9000;0.1538;-0.0597;
409.2000;0.1506;-0.0550;
409.5000;0.1498;-0.0550;
409.8000;0.1522;-0.0478;
410.1000;0.1514;-0.0526;
410.4000;0.1514;-0.0502;
410.7000;0.1522;-0.0550;
411.0000;0.1579;-0.0358;
411.3000;0.1514;-0.0550;
411.6000;0.1506;-0.0550;
411.9000;0.1628;-0.0263;
412.2000;0.1416;-0.0765;
412.5000;0.1514;-0.0526;
412.8000;0.1522;-0.0502;
413.1000;0.1465;-0.0717;
413.4000;0.1595;-0.0454;
413.7000;0.1530;-0.0502;
414.0000;0.1530;-0.0526;
414.3000;0.1538;-0.0478;
414.6000;0.1547;-0.0454;
414.9000;0.1547;-0.0478;
415.2000;0.1563;-0.0430;
415.5000;0.1522;-0.0574;
415.8000;0.1538;-0.0621;
416.1000;0.1522;-0.0645;
416.4000;0.1530;-0.0621;
416.7000;0.1522;-0.0526;
417.0000;0.1522;-0.0550;
417.3000;0.1547;-0.0454;
417.6000;0.1530;-0.0478;
417.9000;0.1506;-0.0454;
418.2000;0.1530;-0.0526;
418.5000;0.1538;-0.0335;
418.8000;0.1587;-0.0311;
419.1000;0.1481;-0.0550;
419.4000;0.1514;-0.0430;
419.7000;0.1522;-0.0430;
420.0000;0.1530;-0.0430;
420.3000;0.1514;-0.0430;
420.6000;0.1587;-0.0215;
420.9000;0.1530;-0.0311;
421.2000;0.1522;-0.0263;
421.5000;0.1522;-0.0191;
421.8000;0.1506;-0.0335;
422.1000;0.1538;-0.0263;
422.4000;0.1522;-0.0335;
422.7000;0.1473;-0.0574;
423.0000;0.1498;-0.0502;
423.3000;0.1538;-0.0502;
423.6000;0.1538;-0.0406;
423.9000;0.1522;-0.0406;
424.2000;0.1538;-0.0454;
424.5000;0.1547;-0.0358;
424.8000;0.1506;-0.0502;
425.1000;0.1522;-0.0430;
425.4000;0.1530;-0.0430;
425.7000;0.1555;-0.0454;
426.0000;0.1530;-0.0550;
426.3000;0.1522;-0.0454;
426.6000;0.1498;-0.0574;
426.9000;0.1538;-0.0406;
427.2000;0.1571;-0.0335;
427.5000;0.1547;-0.0287;
427.8000;0.1547;-0.0335;
428.1000;0.1538;-0.0406;
428.4000;0.1522;-0.0502;
428.7000;0.1530;-0.0502;
429.0000;0.1530;-0.0502;
429.3000;0.1547;-0.0478;
429.6000;0.1587;-0.0406;
429.9000;0.1538;-0.0502;
430.2000;0.1530;-0.0597;
430.5000;0.1571;-0.0502;
430.8000;0.1620;-0.0454;
431.1000;0.1555;-0.0621;
431.4000;0.1547;-0.0526;
431.7000;0.1522;-0.0597;
432.0000;0.1530;-0.0550;
432.3000;0.1547;-0.0382;
432.6000;0.1506;-0.0550;
432.9000;0.1530;-0.0526;
433.2000;0.1473;-0.0693;
433.5000;0.1587;-0.0358;
433.8000;0.1514;-0.0502;
434.1000;0.1530;-0.0454;
434.4000;0.1571;-0.0430;
434.7000;0.1530;-0.0502;
435.0000;0.1538;-0.0478;
435.3000;0.1555;-0.0454;
435.6000;0.1506;-0.0526;
435.9000;0.1498;-0.0478;
436.2000;0.1555;-0.0430;
436.5000;0.1538;-0.0454;
436.8000;0.1530;-0.0454;
437.1000;0.1481;-0.0621;
437.4000;0.1522;-0.0574;
437.7000;0.1547;-0.0526;
438.0000;0.1604;-0.0335;
438.3000;0.1481;-0.0645;
438.6000;0.1522;-0.0454;
438.9000;0.1514;-0.0406;
439.2000;0.1530;-0.0382;
439.5000;0.1522;-0.0311;
439.8000;0.1522;-0.0287;
440.1000;0.1538;-0.0263;
440.4000;0.1547;-0.0143;
440.7000;0.1514;-0.0263;
441.0000;0.1530;-0.0311;
441.3000;0.1563;-0.0215;
441.6000;0.1522;-0.0335;
441.9000;0.1530;-0.0406;
442.2000;0.1547;-0.0311;
442.5000;0.1547;-0.0406;
442.8000;0.1530;-0.0382;
443.1000;0.1530;-0.0382;
443.4000;0.1522;-0.0335;
443.7000;0.1522;-0.0382;
444.0000;0.1514;-0.0382;
444.3000;0.1547;-0.0311;
444.6000;0.1571;-0.0263;
444.9000;0.1514;-0.0382;
445.2000;0.1547;-0.0358;
445.5000;0.1547;-0.0335;
445.8000;0.1530;-0.0358;
446.1000;0.1473;-0.0502;
446.4000;0.1498;-0.0335;
446.7000;0.1441;-0.0550;
447.0000;0.1522;-0.0311;
447.3000;0.1547;-0.0263;
447.6000;0.1563;-0.0191;
447.9000;0.1514;-0.0335;
448.2000;0.1555;-0.0215;
448.5000;0.1522;-0.0287;
448.8000;0.1514;-0.0167;
449.1000;0.1538;-0.0215;
449.4000;0.1522;-0.0191;
449.7000;0.1481;-0.0311;
450.0000;0.1514;-0.0335;
450.3000;0.1522;-0.0287;
450.6000;0.1538;-0.0263;
450.9000;0.1514;-0.0311;
451.2000;0.1522;-0.0335;
451.5000;0.1522;-0.0406;
451.8000;0.1522;-0.0454;
452.1000;0.1481;-0.0526;
452.4000;0.1522;-0.0430;
452.7000;0.1506;-0.0454;
453.0000;0.1538;-0.0335;
453.3000;0.1555;-0.0311;
453.6000;0.1563;-0.0287;
453.9000;0.1522;-0.0430;
454.2000;0.1514;-0.0526;
454.5000;0.1522;-0.0406;
454.8000;0.1522;-0.0263;
455.1000;0.1563;-0.0191;
455.4000;0.1522;-0.0239;
455.7000;0.1514;-0.0335;
456.0000;0.1530;-0.0215;
456.3000;0.1506;-0.0358;
456.6000;0.1506;-0.0454;
456.9000;0.1514;-0.0335;
457.2000;0.1522;-0.0215;
457.5000;0.1530;-0.0191;
457.8000;0.1514;-0.0239;
458.1000;0.1506;-0.0287;
458.4000;0.1538;-0.0263;
458.7000;0.1530;-0.0287;
459.0000;0.1522;-0.0358;
459.3000;0.1514;-0.0335;
459.6000;0.1514;-0.0263;
459.9000;0.1522;-0.0358;
460.2000;0.1522;-0.0406;
460.5000;0.1530;-0.0335;
460.8000;0.1522;-0.0335;
461.1000;0.1530;-0.0358;
461.4000;0.1498;-0.0406;
461.7000;0.1538;-0.0263;
462.0000;0.1530;-0.0167;
462.3000;0.1530;-0.0191;
462.6000;0.1530;-0.0287;
462.9000;0.1538;-0.0239;
463.2000;0.1425;-0.0526;
463.5000;0.1555;-0.0335;
463.8000;0.1547;-0.0358;
464.1000;0.1530;-0.0382;
464.4000;0.1514;-0.0406;
464.7000;0.1530;-0.0478;
465.0000;0.1538;-0.0454;
465.3000;0.1522;-0.0526;
465.6000;0.1514;-0.0454;
465.9000;0.1514;-0.0430;
466.2000;0.1514;-0.0454;
466.5000;0.1571;-0.0406;
466.8000;0.1514;-0.0526;
467.1000;0.1530;-0.0502;
467.4000;0.1547;-0.0430;
467.7000;0.1514;-0.0550;
468.0000;0.1530;-0.0430;
468.3000;0.1547;-0.0454;
468.6000;0.1530;-0.0430;
468.9000;0.1506;-0.0502;
469.2000;0.1547;-0.0406;
469.5000;0.1506;-0.0645;
469.8000;0.1538;-0.0502;
470.1000;0.1547;-0.0430;
470.4000;0.1514;-0.0406;
470.7000;0.1612;-0.0143;
471.0000;0.1506;-0.0358;
471.3000;0.1498;-0.0406;
471.6000;0.1498;-0.0430;
471.9000;0.1514;-0.0502;
472.2000;0.1555;-0.0382;
472.5000;0.1522;-0.0478;
472.8000;0.1530;-0.0502;
473.1000;0.1530;-0.0478;
473.4000;0.1506;-0.0526;
473.7000;0.1604;-0.0263;
474.0000;0.1514;-0.0454;
474.3000;0.1563;-0.0358;
474.6000;0.1522;-0.0502;
474.9000;0.1514;-0.0454;
475.2000;0.1441;-0.0645;
475.5000;0.1538;-0.0430;
475.8000;0.1530;-0.0454;
476.1000;0.1530;-0.0430;
476.4000;0.1547;-0.0406;
476.7000;0.1538;-0.0454;
477.0000;0.1547;-0.0406;
477.3000;0.1530;-0.0478;
477.6000;0.1530;-0.0526;
477.9000;0.1530;-0.0574;
478.2000;0.1498;-0.0597;
478.5000;0.1522;-0.0574;
478.8000;0.1530;-0.0502;
479.1000;0.1514;-0.0526;
479.4000;0.1514;-0.0574;
479.7000;0.1514;-0.0574;
480.0000;0.1620;-0.0335;
480.3000;0.1514;-0.0574;
480.6000;0.1522;-0.0550;
480.9000;0.1530;-0.0502;
481.2000;0.1547;-0.0430;
481.5000;0.1506;-0.0478;
481.8000;0.1579;-0.0239;
482.1000;0.1522;-0.0358;
482.4000;0.1522;-0.0526;
482.7000;0.1522;-0.0478;
483.0000;0.1522;-0.0478;
483.3000;0.1530;-0.0502;
483.6000;0.1506;-0.0550;
483.9000;0.1490;-0.0550;
484.2000;0.1465;-0.0550;
484.5000;0.1522;-0.0382;
484.8000;0.1620;-0.0096;
485.1000;0.1547;-0.0287;
485.4000;0.1538;-0.0263;
485.7000;0.1530;-0.0191;
486.0000;0.1538;-0.0143;
486.3000;0.1563;-0.0048;
486.6000;0.1498;-0.0143;
486.9000;0.1538;-0.0119;
487.2000;0.1514;-0.0191;
487.5000;0.1522;-0.0239;
487.8000;0.1530;-0.0311;
488.1000;0.1514;-0.0335;
488.4000;0.1498;-0.0430;
488.7000;0.1530;-0.0335;
489.0000;0.1490;-0.0382;
489.3000;0.1514;-0.0311;
489.6000;0.1473;-0.0430;
489.9000;0.1522;-0.0311;
490.2000;0.1514;-0.0358;
490.5000;0.1571;-0.0239;
490.8000;0.1547;-0.0382;
491.1000;0.1538;-0.0406;
491.4000;0.1514;-0.0526;
491.7000;0.1530;-0.0406;
492.0000;0.1522;-0.0478;
492.3000;0.1587;-0.0287;
492.6000;0.1522;-0.0358;
492.9000;0.1538;-0.0358;
493.2000;0.1547;-0.0382;
493.5000;0.1587;-0.0287;
493.8000;0.1530;-0.0382;
494.1000;0.1530;-0.0430;
494.4000;0.1514;-0.0430;
494.7000;0.1522;-0.0478;
495.0000;0.1522;-0.0454;
495.3000;0.1514;-0.0550;
495.6000;0.1522;-0.0478;
495.9000;0.1522;-0.0478;
496.2000;0.1522;-0.0526;
496.5000;0.1506;-0.0526;
496.8000;0.1514;-0.0574;
497.1000;0.1547;-0.0502;
497.4000;0.1530;-0.0597;
497.7000;0.1522;-0.0597;
498.0000;0.1522;-0.0574;
498.3000;0.1555;-0.0430;
498.6000;0.1538;-0.0382;
498.9000;0.1530;-0.0478;
499.2000;0.1547;-0.0430;
499.5000;0.1538;-0.0358;
499.8000;0.1538;-0.0382;
500.1000;0.1506;-0.0478;
500.4000;0.1547;-0.0478;
500.7000;0.1530;-0.0526;
501.0000;0.1538;-0.0478;
501.3000;0.1530;-0.0502;
501.6000;0.1547;-0.0454;
501.9000;0.1530;-0.0430;
502.2000;0.1530;-0.0502;
502.5000;0.1498;-0.0550;
502.8000;0.1587;-0.0335;
503.1000;0.1604;-0.0239;
503.4000;0.1522;-0.0430;
503.7000;0.1498;-0.0502;
504.0000;0.1481;-0.0645;
504.3000;0.1530;-0.0454;
504.6000;0.1620;-0.0311;
504.9000;0.1457;-0.0669;
505.2000;0.1506;-0.0693;
505.5000;0.1514;-0.0693;
505.8000;0.1522;-0.0645;
506.1000;0.1644;-0.0263;
506.4000;0.1538;-0.0454;
506.7000;0.1514;-0.0430;
507.0000;0.1579;-0.0358;
507.3000;0.1530;-0.0478;
507.6000;0.1530;-0.0502;
507.9000;0.1522;-0.0574;
508.2000;0.1514;-0.0574;
508.5000;0.1563;-0.0430;
508.8000;0.1530;-0.0406;
509.1000;0.1604;-0.0311;
509.4000;0.1498;-0.0621;
509.7000;0.1506;-0.0550;
510.0000;0.1547;-0.0430;
510.3000;0.1473;-0.0621;
510.6000;0.1530;-0.0550;
510.9000;0.1522;-0.0621;
511.2000;0.1465;-0.0741;
511.5000;0.1530;-0.0550;
511.8000;0.1506;-0.0550;
512.1000;0.1522;-0.0478;
512.4000;0.1506;-0.0526;
512.7000;0.1547;-0.0406;
513.0000;0.1530;-0.0406;
513.3000;0.1538;-0.0382;
513.6000;0.1538;-0.0430;
513.9000;0.1514;-0.0502;
514.2000;0.1530;-0.0430;
514.5000;0.1530;-0.0335;
514.8000;0.1473;-0.0574;
515.1000;0.1538;-0.0430;
515.4000;0.1481;-0.0550;
515.7000;0.1522;-0.0430;
516.0000;0.1547;-0.0311;
516.3000;0.1555;-0.0263;
516.6000;0.1530;-0.0287;
516.9000;0.1498;-0.0335;
517.2000;0.1522;-0.0239;
517.5000;0.1538;-0.0143;
517.8000;0.1538;-0.0143;
518.1000;0.1538;-0.0143;
518.4000;0.1538;-0.0143;
518.7000;0.1563;-0.0072;
519.0000;0.1538;-0.0119;
519.3000;0.1547;-0.0215;
519.6000;0.1530;-0.0311;
519.9000;0.1522;-0.0430;
520.2000;0.1481;-0.0574;
520.5000;0.1449;-0.0717;
520.8000;0.1538;-0.0502;
521.1000;0.1530;-0.0526;
521.4000;0.1547;-0.0430;
521.7000;0.1538;-0.0454;
522.0000;0.1522;-0.0550;
522.3000;0.1522;-0.0478;
522.6000;0.1514;-0.0406;
522.9000;0.1522;-0.0406;
523.2000;0.1587;-0.0239;
523.5000;0.1538;-0.0358;
523.8000;0.1547;-0.0406;
524.1000;0.1571;-0.0263;
524.4000;0.1538;-0.0382;
524.7000;0.1530;-0.0311;
525.0000;0.1538;-0.0287;
525.3000;0.1522;-0.0358;
525.6000;0.1522;-0.0406;
525.9000;0.1522;-0.0406;
526.2000;0.1514;-0.0382;
526.5000;0.1563;-0.0239;
526.8000;0.1538;-0.0382;
527.1000;0.1587;-0.0311;
527.4000;0.1644;-0.0143;
527.7000;0.1547;-0.0430;
528.0000;0.1522;-0.0502;
528.3000;0.1522;-0.0526;
528.6000;0.1571;-0.0454;
528.9000;0.1465;-0.0693;
529.2000;0.1530;-0.0526;
529.5000;0.1538;-0.0621;
529.8000;0.1514;-0.0597;
530.1000;0.1465;-0.0717;
530.4000;0.1514;-0.0574;
530.7000;0.1514;-0.0502;
531.0000;0.1457;-0.0574;
531.3000;0.1538;-0.0335;
531.6000;0.1522;-0.0430;
531.9000;0.1522;-0.0406;
532.2000;0.1555;-0.0358;
532.5000;0.1514;-0.0430;
532.8000;0.1547;-0.0478;
533.1000;0.1473;-0.0693;
533.4000;0.1538;-0.0574;
533.7000;0.1530;-0.0478;
534.0000;0.1530;-0.0574;
534.3000;0.1547;-0.0502;
534.6000;0.1563;-0.0430;
534.9000;0.1538;-0.0454;
535.2000;0.1538;-0.0430;
535.5000;0.1514;-0.0430;
535.8000;0.1555;-0.0311;
536.1000;0.1514;-0.0358;
536.4000;0.1563;-0.0239;
536.7000;0.1514;-0.0430;
537.0000;0.1465;-0.0502;
537.3000;0.1514;-0.0430;
537.6000;0.1538;-0.0358;
537.9000;0.1498;-0.0454;
538.2000;0.1522;-0.0478;
538.5000;0.1481;-0.0526;
538.8000;0.1481;-0.0454;
539.1000;0.1506;-0.0430;
539.4000;0.1538;-0.0454;
539.7000;0.1547;-0.0406;
540.0000;0.1506;-0.0454;
540.3000;0.1530;-0.0358;
540.6000;0.1555;-0.0335;
540.9000;0.1522;-0.0406;
541.2000;0.1530;-0.0430;
541.5000;0.1498;-0.0550;
541.8000;0.1522;-0.0550;
542.1000;0.1538;-0.0382;
542.4000;0.1547;-0.0358;
542.7000;0.1530;-0.0478;
543.0000;0.1571;-0.0382;
543.3000;0.1571;-0.0239;
543.6000;0.1563;-0.0358;
543.9000;0.1538;-0.0406;
544.2000;0.1514;-0.0406;
544.5000;0.1579;-0.0239;
544.8000;0.1530;-0.0335;
545.1000;0.1547;-0.0287;
545.4000;0.1506;-0.0382;
545.7000;0.1506;-0.0454;
546.0000;0.1538;-0.0382;
546.3000;0.1538;-0.0478;
546.6000;0.1514;-0.0645;
546.9000;0.1514;-0.0502;
547.2000;0.1530;-0.0478;
547.5000;0.1530;-0.0406;
547.8000;0.1530;-0.0406;
548.1000;0.1522;-0.0335;
548.4000;0.1555;-0.0191;
548.7000;0.1522;-0.0263;
549.0000;0.1506;-0.0311;
549.3000;0.1465;-0.0430;
549.6000;0.1490;-0.0358;
549.9000;0.1538;-0.0191;
550.2000;0.1530;-0.0191;
550.5000;0.1506;-0.0287;
550.8000;0.1522;-0.0287;
551.1000;0.1498;-0.0335;
551.4000;0.1612;-0.0072;
551.7000;0.1498;-0.0382;
552.0000;0.1514;-0.0335;
552.3000;0.1481;-0.0430;
552.6000;0.1530;-0.0263;
552.9000;0.1522;-0.0215;
553.2000;0.1514;-0.0311;
553.5000;0.1514;-0.0287;
553.8000;0.1530;-0.0167;
554.1000;0.1522;-0.0215;
554.4000;0.1522;-0.0167;
554.7000;0.1547;-0.0072;
555.0000;0.1530;-0.0119;
555.3000;0.1530;-0.0119;
555.6000;0.1538;-0.0191;
555.9000;0.1522;-0.0311;
556.2000;0.1555;-0.0263;
556.5000;0.1563;-0.0191;
556.8000;0.1530;-0.0335;
557.1000;0.1522;-0.0382;
557.4000;0.1514;-0.0406;
557.7000;0.1522;-0.0382;
558.0000;0.1514;-0.0454;
558.3000;0.1425;-0.0741;
558.6000;0.1538;-0.0502;
558.9000;0.1538;-0.0502;
559.2000;0.1563;-0.0406;
559.5000;0.1514;-0.0358;
559.8000;0.1530;-0.0382;
560.1000;0.1530;-0.0430;
560.4000;0.1587;-0.0239;
560.7000;0.1555;-0.0335;
561.0000;0.1595;-0.0191;
561.3000;0.1538;-0.0311;
561.6000;0.1547;-0.0287;
561.9000;0.1571;-0.0072;
562.2000;0.1538;-0.0215;
562.5000;0.1473;-0.0335;
562.8000;0.1587;-0.0096;
563.1000;0.1522;-0.0239;
563.4000;0.1661;0.0143;
563.7000;0.1538;-0.0287;
564.0000;0.1522;-0.0311;
564.3000;0.1522;-0.0335;
564.6000;0.1595;-0.0119;
564.9000;0.1506;-0.0382;
565.2000;0.1506;-0.0406;
565.5000;0.1587;-0.0263;
565.8000;0.1498;-0.0502;
566.1000;0.1555;-0.0358;
566.4000;0.1481;-0.0574;
566.7000;0.1514;-0.0478;
567.0000;0.1522;-0.0382;
567.3000;0.1530;-0.0382;
567.6000;0.1514;-0.0335;
567.9000;0.1547;-0.0287;
568.2000;0.1449;-0.0597;
568.5000;0.1416;-0.0789;
568.8000;0.1522;-0.0502;
569.1000;0.1490;-0.0574;
569.4000;0.1514;-0.0478;
569.7000;0.1457;-0.0597;
570.0000;0.1530;-0.0454;
570.3000;0.1473;-0.0550;
570.6000;0.1522;-0.0430;
570.9000;0.1522;-0.0454;
571.2000;0.1571;-0.0311;
571.5000;0.1522;-0.0358;
571.8000;0.1530;-0.0335;
572.1000;0.1514;-0.0358;
572.4000;0.1530;-0.0358;
572.7000;0.1530;-0.0311;
573.0000;0.1555;-0.0239;
573.3000;0.1612;-0.0072;
573.6000;0.1522;-0.0382;
573.9000;0.1522;-0.0454;
574.2000;0.1522;-0.0502;
574.5000;0.1522;-0.0526;
574.8000;0.1506;-0.0502;
575.1000;0.1514;-0.0502;
575.4000;0.1538;-0.0502;
575.7000;0.1506;-0.0526;
576.0000;0.1498;-0.0574;
576.3000;0.1563;-0.0406;
576.6000;0.1538;-0.0502;
576.9000;0.1514;-0.0550;
577.2000;0.1579;-0.0382;
577.5000;0.1530;-0.0454;
577.8000;0.1457;-0.0693;
578.1000;0.1530;-0.0478;
578.4000;0.1530;-0.0478;
578.7000;0.1522;-0.0478;
579.0000;0.1514;-0.0502;
579.3000;0.1579;-0.0382;
579.6000;0.1522;-0.0502;
579.9000;0.1514;-0.0478;
580.2000;0.1530;-0.0406;
580.5000;0.1547;-0.0335;
580.8000;0.1547;-0.0382;
581.1000;0.1538;-0.0287;
581.4000;0.1400;-0.0645;
581.7000;0.1530;-0.0335;
582.0000;0.1538;-0.0358;
582.3000;0.1522;-0.0430;
582.6000;0.1547;-0.0358;
582.9000;0.1514;-0.0406;
583.2000;0.1538;-0.0335;
583.5000;0.1555;-0.0287;
583.8000;0.1506;-0.0478;
584.1000;0.1530;-0.0358;
584.4000;0.1400;-0.0693;
584.7000;0.1473;-0.0502;
585.0000;0.1522;-0.0454;
585.3000;0.1538;-0.0454;
585.6000;0.1449;-0.0645;
585.9000;0.1522;-0.0454;
586.2000;0.1530;-0.0382;
586.5000;0.1636;-0.0048;
586.8000;0.1530;-0.0478;
587.1000;0.1530;-0.0502;
587.4000;0.1498;-0.0574;
587.7000;0.1433;-0.0693;
588.0000;0.1514;-0.0454;
588.3000;0.1538;-0.0406;
588.6000;0.1530;-0.0382;
588.9000;0.1538;-0.0358;
589.2000;0.1579;-0.0239;
589.5000;0.1677;-0.0072;
589.8000;0.1530;-0.0430;
590.1000;0.1522;-0.0382;
590.4000;0.1490;-0.0621;
590.7000;0.1457;-0.0789;
591.0000;0.1571;-0.0478;
591.3000;0.1530;-0.0621;
591.6000;0.1514;-0.0693;
591.9000;0.1530;-0.0621;
592.2000;0.1514;-0.0574;
592.5000;0.1530;-0.0526;
592.8000;0.1530;-0.0550;
593.1000;0.1522;-0.0526;
593.4000;0.1522;-0.0526;
593.7000;0.1530;-0.0550;
594.0000;0.1481;-0.0717;
594.3000;0.1465;-0.0836;
594.6000;0.1522;-0.0669;
594.9000;0.1514;-0.0717;
595.2000;0.1465;-0.0884;
595.5000;0.1538;-0.0741;
595.8000;0.1514;-0.0693;
596.1000;0.1522;-0.0717;
596.4000;0.1530;-0.0621;
596.7000;0.1457;-0.0693;
597.0000;0.1555;-0.0478;
597.3000;0.1490;-0.0597;
597.6000;0.1538;-0.0550;
597.9000;0.1538;-0.0454;
598.2000;0.1408;-0.0717;
598.5000;0.1530;-0.0406;
598.8000;0.1530;-0.0406;
599.1000;0.1506;-0.0406;
599.4000;0.1547;-0.0430;
599.7000;0.1538;-0.0430;
600.0000;0.1522;-0.0430;
600.3000;0.1628;-0.0096;
600.6000;0.1530;-0.0430;
600.9000;0.1514;-0.0597;
601.2000;0.1530;-0.0669;
601.5000;0.1514;-0.0884;
601.8000;0.1530;-0.0980;
602.1000;0.1514;-0.0980;
602.4000;0.1538;-0.0932;
602.7000;0.1530;-0.1028;
603.0000;0.1555;-0.1123;
603.3000;0.1522;-0.1290;
603.6000;0.1538;-0.1362;
603.9000;0.1563;-0.1290;
604.2000;0.1498;-0.1458;
604.5000;0.1514;-0.1362;
604.8000;0.1506;-0.1410;
605.1000;0.1490;-0.1482;
605.4000;0.1522;-0.1434;
605.7000;0.1514;-0.1553;
606.0000;0.1506;-0.1553;
606.3000;0.1506;-0.1625;
606.6000;0.1498;-0.1673;
606.9000;0.1514;-0.1673;
607.2000;0.1465;-0.1792;
607.5000;0.1506;-0.1649;
607.8000;0.1506;-0.1673;
608.1000;0.1498;-0.1697;
608.4000;0.1506;-0.1697;
608.7000;0.1522;-0.1673;
609.0000;0.1514;-0.1744;
609.3000;0.1514;-0.1673;
609.6000;0.1514;-0.1673;
609.9000;0.1514;-0.1649;
610.2000;0.1522;-0.1649;
610.5000;0.1506;-0.1673;
610.8000;0.1506;-0.1649;
611.1000;0.1514;-0.1649;
611.4000;0.1490;-0.1625;
611.7000;0.1563;-0.1458;
612.0000;0.1465;-0.1744;
612.3000;0.1473;-0.1649;
612.6000;0.1441;-0.1673;
612.9000;0.1506;-0.1529;
613.2000;0.1506;-0.1601;
613.5000;0.1555;-0.1553;
613.8000;0.1506;-0.1673;
614.1000;0.1669;-0.1243;
614.4000;0.1498;-0.1673;
614.7000;0.1498;-0.1816;
615.0000;0.1400;-0.2222;
615.3000;0.1490;-0.1936;
615.6000;0.1514;-0.1840;
615.9000;0.1595;-0.1697;
616.2000;0.1563;-0.1768;
616.5000;0.1498;-0.1983;
616.8000;0.1490;-0.2079;
617.1000;0.1490;-0.2055;
617.4000;0.1522;-0.2031;
617.7000;0.1490;-0.2031;
618.0000;0.1571;-0.1864;
618.3000;0.1652;-0.1577;
618.6000;0.1498;-0.1888;
618.9000;0.1498;-0.1936;
619.2000;0.1481;-0.1959;
619.5000;0.1498;-0.2007;
619.8000;0.1490;-0.1936;
620.1000;0.1457;-0.1912;
620.4000;0.1481;-0.1816;
620.7000;0.1465;-0.1864;
621.0000;0.1514;-0.1721;
621.3000;0.1514;-0.1721;
621.6000;0.1506;-0.1744;
621.9000;0.1506;-0.1673;
622.2000;0.1514;-0.1673;
622.5000;0.1490;-0.1816;
622.8000;0.1514;-0.1816;
623.1000;0.1481;-0.1840;
623.4000;0.1514;-0.1792;
623.7000;0.1498;-0.1840;
624.0000;0.1490;-0.1840;
624.3000;0.1481;-0.1816;
624.6000;0.1416;-0.1912;
624.9000;0.1490;-0.1673;
625.2000;0.1449;-0.1768;
625.5000;0.1481;-0.1744;
625.8000;0.1498;-0.1768;
626.1000;0.1514;-0.1721;
626.4000;0.1343;-0.2175;
626.7000;0.1433;-0.1936;
627.0000;0.1498;-0.1721;
627.3000;0.1506;-0.1673;
627.6000;0.1498;-0.1721;
627.9000;0.1522;-0.1673;
628.2000;0.1514;-0.1649;
628.5000;0.1490;-0.1697;
628.8000;0.1498;-0.1649;
629.1000;0.1490;-0.1792;
629.4000;0.1506;-0.1816;
629.7000;0.1465;-0.1864;
630.0000;0.1506;-0.1816;
630.3000;0.1522;-0.1840;
630.6000;0.1481;-0.1888;
630.9000;0.1498;-0.1816;
631.2000;0.1481;-0.1888;
631.5000;0.1481;-0.1936;
631.8000;0.1498;-0.1888;
632.1000;0.1490;-0.1816;
632.4000;0.1506;-0.1768;
632.7000;0.1498;-0.1792;
633.0000;0.1490;-0.1888;
633.3000;0.1481;-0.1840;
633.6000;0.1481;-0.1888;
633.9000;0.1498;-0.1959;
634.2000;0.1498;-0.1983;
634.5000;0.1530;-0.1936;
634.8000;0.1514;-0.1888;
635.1000;0.1481;-0.1936;
635.4000;0.1514;-0.1912;
635.7000;0.1490;-0.1936;
636.0000;0.1555;-0.1721;
636.3000;0.1514;-0.1864;
636.6000;0.1506;-0.1936;
636.9000;0.1392;-0.2198;
637.2000;0.1408;-0.2151;
637.5000;0.1490;-0.1864;
637.8000;0.1506;-0.1840;
638.1000;0.1514;-0.1840;
638.4000;0.1481;-0.1912;
638.7000;0.1441;-0.2007;
639.0000;0.1506;-0.1912;
639.3000;0.1522;-0.1840;
639.6000;0.1563;-0.1744;
639.9000;0.1335;-0.2246;
640.2000;0.1473;-0.1816;
640.5000;0.1490;-0.1744;
640.8000;0.1498;-0.1768;
641.1000;0.1490;-0.1697;
641.4000;0.1506;-0.1744;
641.7000;0.1506;-0.1744;
642.0000;0.1547;-0.1697;
642.3000;0.1441;-0.1936;
642.6000;0.1547;-0.1673;
642.9000;0.1481;-0.1912;
643.2000;0.1506;-0.1888;
643.5000;0.1506;-0.1959;
643.8000;0.1490;-0.1888;
644.1000;0.1400;-0.2007;
644.4000;0.1490;-0.1697;
644.7000;0.1400;-0.1959;
645.0000;0.1481;-0.1744;
645.3000;0.1481;-0.1744;
645.6000;0.1506;-0.1768;
645.9000;0.1506;-0.1816;
646.2000;0.1498;-0.1864;
646.5000;0.1498;-0.1840;
646.8000;0.1490;-0.1936;
647.1000;0.1563;-0.1721;
647.4000;0.1498;-0.1888;
647.7000;0.1498;-0.1840;
648.0000;0.1441;-0.1983;
648.3000;0.1490;-0.1840;
648.6000;0.1514;-0.1721;
648.9000;0.1498;-0.1744;
649.2000;0.1604;-0.1553;
649.5000;0.1514;-0.1792;
649.8000;0.1522;-0.1840;
650.1000;0.1490;-0.1840;
650.4000;0.1441;-0.1983;
650.7000;0.1498;-0.1888;
651.0000;0.1490;-0.1912;
651.3000;0.1457;-0.1936;
651.6000;0.1514;-0.1768;
651.9000;0.1473;-0.1792;
652.2000;0.1514;-0.1601;
652.5000;0.1490;-0.1601;
652.8000;0.1506;-0.1601;
653.1000;0.1481;-0.1673;
653.4000;0.1514;-0.1577;
653.7000;0.1465;-0.1601;
654.0000;0.1498;-0.1434;
654.3000;0.1506;-0.1386;
654.6000;0.1481;-0.1434;
654.9000;0.1571;-0.1314;
655.2000;0.1473;-0.1577;
655.5000;0.1473;-0.1649;
655.8000;0.1506;-0.1553;
656.1000;0.1457;-0.1649;
656.4000;0.1368;-0.1983;
656.7000;0.1506;-0.1697;
657.0000;0.1538;-0.1577;
657.3000;0.1522;-0.1673;
657.6000;0.1514;-0.1792;
657.9000;0.1506;-0.1792;
658.2000;0.1490;-0.1840;
658.5000;0.1547;-0.1721;
658.8000;0.1498;-0.1840;
659.1000;0.1498;-0.1864;
659.4000;0.1506;-0.1840;
659.7000;0.1652;-0.1362;
660.0000;0.1522;-0.1721;
660.3000;0.1433;-0.2031;
660.6000;0.1538;-0.1792;
660.9000;0.1498;-0.1936;
661.2000;0.1506;-0.1936;
661.5000;0.1506;-0.1864;
661.8000;0.1498;-0.1888;
662.1000;0.1425;-0.2031;
662.4000;0.1506;-0.1792;
662.7000;0.1473;-0.1792;
663.0000;0.1498;-0.1792;
663.3000;0.1506;-0.1792;
663.6000;0.1490;-0.1816;
663.9000;0.1473;-0.1768;
664.2000;0.1498;-0.1697;
664.5000;0.1506;-0.1744;
664.8000;0.1498;-0.1697;
665.1000;0.1506;-0.1792;
665.4000;0.1514;-0.1721;
665.7000;0.1506;-0.1673;
666.0000;0.1449;-0.1768;
666.3000;0.1498;-0.1625;
666.6000;0.1490;-0.1697;
666.9000;0.1490;-0.1649;
667.2000;0.1498;-0.1673;
667.5000;0.1506;-0.1697;
667.8000;0.1490;-0.1673;
668.1000;0.1490;-0.1744;
668.4000;0.1506;-0.1649;
668.7000;0.1506;-0.1601;
669.0000;0.1506;-0.1529;
669.3000;0.1490;-0.1482;
669.6000;0.1490;-0.1577;
669.9000;0.1514;-0.1529;
670.2000;0.1490;-0.1601;
670.5000;0.1498;-0.1577;
670.8000;0.1481;-0.1649;
671.1000;0.1457;-0.1649;
671.4000;0.1457;-0.1697;
671.7000;0.1490;-0.1721;
672.0000;0.1473;-0.1649;
672.3000;0.1563;-0.1458;
672.6000;0.1481;-0.1721;
672.9000;0.1498;-0.1721;
673.2000;0.1490;-0.1816;
673.5000;0.1498;-0.1721;
673.8000;0.1498;-0.1625;
674.1000;0.1498;-0.1721;
674.4000;0.1457;-0.1864;
674.7000;0.1514;-0.1816;
675.0000;0.1481;-0.1768;
675.3000;0.1506;-0.1768;
675.6000;0.1400;-0.2127;
675.9000;0.1473;-0.1840;
676.2000;0.1457;-0.1840;
676.5000;0.1473;-0.1721;
676.8000;0.1481;-0.1721;
677.1000;0.1465;-0.1792;
677.4000;0.1490;-0.1673;
677.7000;0.1498;-0.1744;
678.0000;0.1481;-0.1912;
678.3000;0.1498;-0.1912;
678.6000;0.1490;-0.1888;
678.9000;0.1490;-0.1840;
679.2000;0.1514;-0.1673;
679.5000;0.1522;-0.1721;
679.8000;0.1498;-0.1768;
680.1000;0.1514;-0.1601;
680.4000;0.1498;-0.1721;
680.7000;0.1481;-0.1768;
681.0000;0.1547;-0.1577;
681.3000;0.1490;-0.1649;
681.6000;0.1514;-0.1697;
681.9000;0.1473;-0.1792;
682.2000;0.1473;-0.1744;
682.5000;0.1425;-0.1768;
682.8000;0.1473;-0.1625;
683.1000;0.1522;-0.1505;
683.4000;0.1465;-0.1721;
683.7000;0.1481;-0.1673;
684.0000;0.1490;-0.1673;
684.3000;0.1514;-0.1625;
684.6000;0.1522;-0.1625;
684.9000;0.1449;-0.1840;
685.2000;0.1490;-0.1816;
685.5000;0.1481;-0.1912;
685.8000;0.1481;-0.1744;
686.1000;0.1530;-0.1673;
686.4000;0.1506;-0.1744;
686.7000;0.1506;-0.1792;
687.0000;0.1490;-0.1816;
687.3000;0.1449;-0.2007;
687.6000;0.1481;-0.1864;
687.9000;0.1506;-0.1768;
688.2000;0.1514;-0.1816;
688.5000;0.1481;-0.1864;
688.8000;0.1490;-0.1840;
689.1000;0.1490;-0.1744;
689.4000;0.1481;-0.1768;
689.7000;0.1490;-0.1792;
690.0000;0.1506;-0.1816;
690.3000;0.1506;-0.1816;
690.6000;0.1498;-0.1912;
690.9000;0.1490;-0.1864;
691.2000;0.1563;-0.1744;
691.5000;0.1506;-0.1840;
691.8000;0.1530;-0.1721;
692.1000;0.1490;-0.1840;
692.4000;0.1490;-0.1912;
692.7000;0.1506;-0.1864;
693.0000;0.1490;-0.1888;
693.3000;0.1473;-0.1936;
693.6000;0.1473;-0.1936;
693.9000;0.1473;-0.1888;
694.2000;0.1490;-0.1912;
694.5000;0.1498;-0.1840;
694.8000;0.1498;-0.1864;
695.1000;0.1465;-0.1864;
695.4000;0.1416;-0.2007;
695.7000;0.1481;-0.1888;
696.0000;0.1490;-0.1792;
696.3000;0.1490;-0.1721;
696.6000;0.1490;-0.1744;
696.9000;0.1563;-0.1577;
697.2000;0.1547;-0.1721;
697.5000;0.1392;-0.2055;
697.8000;0.1498;-0.1816;
698.1000;0.1522;-0.1721;
698.4000;0.1359;-0.2055;
698.7000;0.1490;-0.1649;
699.0000;0.1457;-0.1697;
699.3000;0.1457;-0.1673;
699.6000;0.1473;-0.1649;
699.9000;0.1457;-0.1697;
700.2000;0.1433;-0.1816;
700.5000;0.1481;-0.1625;
700.8000;0.1498;-0.1577;
701.1000;0.1490;-0.1625;
701.4000;0.1514;-0.1601;
701.7000;0.1498;-0.1673;
702.0000;0.1506;-0.1601;
702.3000;0.1506;-0.1649;
702.6000;0.1498;-0.1744;
702.9000;0.1514;-0.1697;
703.2000;0.1498;-0.1697;
703.5000;0.1498;-0.1744;
703.8000;0.1506;-0.1768;
704.1000;0.1490;-0.1816;
704.4000;0.1514;-0.1864;
704.7000;0.1514;-0.1768;
705.0000;0.1498;-0.1744;
705.3000;0.1522;-0.1721;
705.6000;0.1538;-0.1721;
705.9000;0.1490;-0.1816;
706.2000;0.1473;-0.1816;
706.5000;0.1473;-0.1816;
706.8000;0.1392;-0.2007;
707.1000;0.1473;-0.1816;
707.4000;0.1449;-0.1768;
707.7000;0.1473;-0.1673;
708.0000;0.1506;-0.1673;
708.3000;0.1481;-0.1697;
708.6000;0.1506;-0.1697;
708.9000;0.1490;-0.1649;
709.2000;0.1441;-0.1912;
709.5000;0.1530;-0.1697;
709.8000;0.1498;-0.1768;
710.1000;0.1522;-0.1792;
710.4000;0.1490;-0.1959;
710.7000;0.1490;-0.1936;
711.0000;0.1522;-0.1864;
711.3000;0.1384;-0.2175;
711.6000;0.1490;-0.1864;
711.9000;0.1498;-0.1792;
712.2000;0.1514;-0.1697;
712.5000;0.1506;-0.1792;
712.8000;0.1490;-0.1744;
713.1000;0.1490;-0.1744;
713.4000;0.1514;-0.1744;
713.7000;0.1481;-0.1840;
714.0000;0.1498;-0.1792;
714.3000;0.1514;-0.1697;
714.6000;0.1498;-0.1768;
714.9000;0.1514;-0.1697;
715.2000;0.1481;-0.1768;
715.5000;0.1465;-0.1816;
715.8000;0.1384;-0.2031;
716.1000;0.1498;-0.1721;
716.4000;0.1506;-0.1673;
716.7000;0.1498;-0.1744;
717.0000;0.1514;-0.1697;
717.3000;0.1498;-0.1768;
717.6000;0.1506;-0.1816;
717.9000;0.1514;-0.1792;
718.2000;0.1473;-0.1936;
718.5000;0.1490;-0.1936;
718.8000;0.1425;-0.2031;
719.1000;0.1490;-0.1792;
719.4000;0.1514;-0.1744;
719.7000;0.1408;-0.2007;
720.0000;0.1481;-0.1816;
720.3000;0.1498;-0.1816;
720.6000;0.1481;-0.1888;
720.9000;0.1473;-0.1888;
721.2000;0.1473;-0.2007;
721.5000;0.1506;-0.1959;
721.8000;0.1506;-0.2031;
722.1000;0.1490;-0.2055;
722.4000;0.1547;-0.1912;
722.7000;0.1514;-0.1959;
723.0000;0.1547;-0.1792;
723.3000;0.1473;-0.1768;
723.6000;0.1441;-0.1912;
723.9000;0.1555;-0.1649;
724.2000;0.1514;-0.1721;
724.5000;0.1563;-0.1601;
724.8000;0.1514;-0.1697;
725.1000;0.1473;-0.1816;
725.4000;0.1498;-0.1792;
725.7000;0.1514;-0.1768;
726.0000;0.1506;-0.1864;
726.3000;0.1481;-0.1888;
726.6000;0.1490;-0.1768;
726.9000;0.1522;-0.1649;
727.2000;0.1490;-0.1673;
727.5000;0.1481;-0.1721;
727.8000;0.1481;-0.1768;
728.1000;0.1490;-0.1840;
728.4000;0.1538;-0.1721;
728.7000;0.1506;-0.1864;
729.0000;0.1490;-0.1888;
729.3000;0.1514;-0.1912;
729.6000;0.1433;-0.2031;
729.9000;0.1506;-0.1792;
730.2000;0.1530;-0.1768;
730.5000;0.1481;-0.1864;
730.8000;0.1498;-0.1840;
731.1000;0.1555;-0.1768;
731.4000;0.1481;-0.1959;
731.7000;0.1384;-0.2222;
732.0000;0.1514;-0.1721;
732.3000;0.1465;-0.1792;
732.6000;0.1522;-0.1697;
732.9000;0.1498;-0.1792;
733.2000;0.1620;-0.1458;
733.5000;0.1481;-0.1840;
733.8000;0.1506;-0.1816;
734.1000;0.1514;-0.1840;
734.4000;0.1498;-0.1840;
734.7000;0.1498;-0.1816;
735.0000;0.1498;-0.1792;
735.3000;0.1392;-0.2055;
735.6000;0.1506;-0.1816;
735.9000;0.1490;-0.1792;
736.2000;0.1490;-0.1840;
736.5000;0.1498;-0.1792;
736.8000;0.1490;-0.1912;
737.1000;0.1506;-0.1936;
737.4000;0.1473;-0.1983;
737.7000;0.1481;-0.2007;
738.0000;0.1498;-0.2031;
738.3000;0.1498;-0.2031;
738.6000;0.1498;-0.1983;
738.9000;0.1498;-0.1983;
739.2000;0.1481;-0.2055;
739.5000;0.1490;-0.2031;
739.8000;0.1473;-0.2031;
740.1000;0.1506;-0.1959;
740.4000;0.1522;-0.1840;
740.7000;0.1506;-0.1912;
741.0000;0.1522;-0.1912;
741.3000;0.1473;-0.1936;
741.6000;0.1595;-0.1625;
741.9000;0.1498;-0.1816;
742.2000;0.1498;-0.1888;
742.5000;0.1490;-0.1936;
742.8000;0.1465;-0.1983;
743.1000;0.1473;-0.2007;
743.4000;0.1490;-0.1936;
743.7000;0.1498;-0.1912;
744.0000;0.1481;-0.1912;
744.3000;0.1490;-0.1792;
744.6000;0.1530;-0.1673;
744.9000;0.1490;-0.1744;
745.2000;0.1506;-0.1697;
745.5000;0.1465;-0.1864;
745.8000;0.1473;-0.1864;
746.1000;0.1506;-0.1721;
746.4000;0.1490;-0.1816;
746.7000;0.1481;-0.1840;
747.0000;0.1547;-0.1673;
747.3000;0.1506;-0.1792;
747.6000;0.1481;-0.1840;
747.9000;0.1514;-0.1864;
748.2000;0.1481;-0.1888;
748.5000;0.1473;-0.1912;
748.8000;0.1490;-0.1936;
749.1000;0.1473;-0.1959;
749.4000;0.1481;-0.2007;
749.7000;0.1384;-0.2198;
750.0000;0.1490;-0.2079;
750.3000;0.1498;-0.2055;
750.6000;0.1522;-0.1959;
750.9000;0.1490;-0.2031;
751.2000;0.1498;-0.2031;
751.5000;0.1604;-0.1673;
751.8000;0.1490;-0.2103;
752.1000;0.1449;-0.2175;
752.4000;0.1481;-0.2079;
752.7000;0.1498;-0.1959;
753.0000;0.1490;-0.2007;
753.3000;0.1595;-0.1792;
753.6000;0.1416;-0.2270;
753.9000;0.1481;-0.2007;
754.2000;0.1514;-0.1864;
754.5000;0.1506;-0.1816;
754.8000;0.1490;-0.1888;
755.1000;0.1416;-0.2103;
755.4000;0.1506;-0.1888;
755.7000;0.1490;-0.1912;
756.0000;0.1547;-0.1697;
756.3000;0.1498;-0.1816;
756.6000;0.1506;-0.1792;
756.9000;0.1514;-0.1792;
757.2000;0.1457;-0.1840;
757.5000;0.1506;-0.1649;
757.8000;0.1498;-0.1768;
758.1000;0.1522;-0.1577;
758.4000;0.1498;-0.1721;
758.7000;0.1498;-0.1721;
759.0000;0.1498;-0.1768;
759.3000;0.1498;-0.1744;
759.6000;0.1416;-0.1983;
759.9000;0.1514;-0.1744;
760.2000;0.1481;-0.1816;
760.5000;0.1506;-0.1673;
760.8000;0.1514;-0.1721;
761.1000;0.1473;-0.1888;
761.4000;0.1490;-0.1840;
761.7000;0.1481;-0.1912;
762.0000;0.1490;-0.1983;
762.3000;0.1490;-0.2055;
762.6000;0.1498;-0.2007;
762.9000;0.1514;-0.2007;
763.2000;0.1498;-0.1936;
763.5000;0.1514;-0.1792;
763.8000;0.1481;-0.1888;
764.1000;0.1465;-0.1936;
764.4000;0.1481;-0.1912;
764.7000;0.1465;-0.1936;
765.0000;0.1490;-0.1864;
765.3000;0.1481;-0.1912;
765.6000;0.1498;-0.1864;
765.9000;0.1481;-0.1936;
766.2000;0.1465;-0.1936;
766.5000;0.1449;-0.2055;
766.8000;0.1514;-0.1864;
767.1000;0.1498;-0.1936;
767.4000;0.1506;-0.1840;
767.7000;0.1506;-0.1864;
768.0000;0.1506;-0.1840;
768.3000;0.1506;-0.1936;
768.6000;0.1498;-0.1983;
768.9000;0.1481;-0.2031;
769.2000;0.1465;-0.2079;
769.5000;0.1368;-0.2318;
769.8000;0.1473;-0.1959;
770.1000;0.1473;-0.1888;
770.4000;0.1490;-0.1840;
770.7000;0.1514;-0.1792;
771.0000;0.1457;-0.1983;
771.3000;0.1490;-0.1983;
771.6000;0.1506;-0.2007;
771.9000;0.1571;-0.1792;
772.2000;0.1620;-0.1601;
772.5000;0.1481;-0.1936;
772.8000;0.1579;-0.1721;
773.1000;0.1490;-0.1936;
773.4000;0.1465;-0.2055;
773.7000;0.1498;-0.1959;
774.0000;0.1441;-0.2055;
774.3000;0.1449;-0.1959;
774.6000;0.1498;-0.1864;
774.9000;0.1408;-0.2127;
775.2000;0.1473;-0.2031;
775.5000;0.1425;-0.2175;
775.8000;0.1490;-0.2031;
776.1000;0.1481;-0.2031;
776.4000;0.1490;-0.2007;
776.7000;0.1498;-0.1959;
777.0000;0.1481;-0.2031;
777.3000;0.1473;-0.2007;
777.6000;0.1522;-0.1816;
777.9000;0.1490;-0.1888;
778.2000;0.1498;-0.1816;
778.5000;0.1498;-0.1721;
778.8000;0.1490;-0.1721;
779.1000;0.1490;-0.1744;
779.4000;0.1457;-0.1721;
779.7000;0.1481;-0.1697;
780.0000;0.1490;-0.1697;
780.3000;0.1465;-0.1697;
780.6000;0.1481;-0.1649;
780.9000;0.1490;-0.1673;
781.2000;0.1392;-0.1959;
781.5000;0.1481;-0.1673;
781.8000;0.1481;-0.1744;
782.1000;0.1465;-0.1816;
782.4000;0.1498;-0.1768;
782.7000;0.1522;-0.1816;
783.0000;0.1465;-0.1936;
783.3000;0.1351;-0.2342;
783.6000;0.1490;-0.2079;
783.9000;0.1522;-0.1983;
784.2000;0.1490;-0.2007;
784.5000;0.1490;-0.2031;
784.8000;0.1490;-0.2007;
785.1000;0.1522;-0.1888;
785.4000;0.1506;-0.1864;
785.7000;0.1490;-0.1816;
786.0000;0.1498;-0.1816;
786.3000;0.1465;-0.1959;
786.6000;0.1465;-0.1936;
786.9000;0.1473;-0.1912;
787.2000;0.1490;-0.1912;
787.5000;0.1514;-0.1912;
787.8000;0.1498;-0.1816;
788.1000;0.1449;-0.1888;
788.4000;0.1490;-0.1744;
788.7000;0.1514;-0.1697;
789.0000;0.1490;-0.1721;
789.3000;0.1400;-0.2055;
789.6000;0.1498;-0.1888;
789.9000;0.1473;-0.2031;
790.2000;0.1514;-0.1936;
790.5000;0.1555;-0.1912;
790.8000;0.1473;-0.2127;
791.1000;0.1506;-0.2103;
791.4000;0.1514;-0.2055;
791.7000;0.1506;-0.2055;
792.0000;0.1490;-0.2127;
792.3000;0.1555;-0.1816;
792.6000;0.1481;-0.2055;
792.9000;0.1449;-0.2175;
793.2000;0.1522;-0.1936;
793.5000;0.1498;-0.2031;
793.8000;0.1481;-0.2031;
794.1000;0.1481;-0.2031;
794.4000;0.1481;-0.2031;
794.7000;0.1514;-0.1983;
795.0000;0.1498;-0.2007;
795.3000;0.1473;-0.1983;
795.6000;0.1514;-0.1959;
795.9000;0.1449;-0.2079;
796.2000;0.1506;-0.1888;
796.5000;0.1498;-0.1959;
796.8000;0.1481;-0.2007;
797.1000;0.1506;-0.2007;
797.4000;0.1490;-0.2055;
797.7000;0.1490;-0.2007;
798.0000;0.1547;-0.1744;
798.3000;0.1473;-0.1912;
798.6000;0.1530;-0.1768;
798.9000;0.1538;-0.1697;
799.2000;0.1522;-0.1792;
799.5000;0.1441;-0.1936;
799.8000;0.1506;-0.1744;
800.1000;0.1490;-0.1768;
800.4000;0.1514;-0.1721;
800.7000;0.1481;-0.1792;
801.0000;0.1490;-0.1768;
801.3000;0.1481;-0.1864;
801.6000;0.1465;-0.1936;
801.9000;0.1490;-0.1792;
802.2000;0.1473;-0.1983;
802.5000;0.1481;-0.1864;
802.8000;0.1498;-0.1840;
803.1000;0.1490;-0.1816;
803.4000;0.1506;-0.1744;
803.7000;0.1522;-0.1649;
804.0000;0.1498;-0.1744;
804.3000;0.1490;-0.1840;
804.6000;0.1481;-0.1816;
804.9000;0.1522;-0.1697;
805.2000;0.1522;-0.1840;
805.5000;0.1490;-0.1888;
805.8000;0.1498;-0.1816;
806.1000;0.1425;-0.2031;
806.4000;0.1498;-0.1864;
806.7000;0.1498;-0.1864;
807.0000;0.1490;-0.1864;
807.3000;0.1490;-0.1840;
807.6000;0.1498;-0.1864;
807.9000;0.1498;-0.1816;
808.2000;0.1506;-0.1649;
808.5000;0.1490;-0.1768;
808.8000;0.1498;-0.1721;
809.1000;0.1498;-0.1816;
809.4000;0.1481;-0.1840;
809.7000;0.1490;-0.1864;
810.0000;0.1506;-0.1792;
810.3000;0.1514;-0.1768;
810.6000;0.1457;-0.1864;
810.9000;0.1498;-0.1744;
811.2000;0.1498;-0.1744;
811.5000;0.1498;-0.1792;
811.8000;0.1514;-0.1768;
812.1000;0.1514;-0.1864;
812.4000;0.1514;-0.1816;
812.7000;0.1481;-0.1912;
813.0000;0.1514;-0.1888;
813.3000;0.1490;-0.2031;
813.6000;0.1481;-0.2007;
813.9000;0.1473;-0.1936;
814.2000;0.1416;-0.2103;
814.5000;0.1506;-0.1768;
814.8000;0.1506;-0.1721;
815.1000;0.1490;-0.1744;
815.4000;0.1514;-0.1649;
815.7000;0.1506;-0.1721;
816.0000;0.1498;-0.1625;
816.3000;0.1506;-0.1649;
816.6000;0.1506;-0.1577;
816.9000;0.1514;-0.1601;
817.2000;0.1514;-0.1649;
817.5000;0.1433;-0.1792;
817.8000;0.1465;-0.1649;
818.1000;0.1498;-0.1649;
818.4000;0.1498;-0.1553;
818.7000;0.1490;-0.1601;
819.0000;0.1457;-0.1721;
819.3000;0.1490;-0.1721;
819.6000;0.1498;-0.1649;
819.9000;0.1481;-0.1792;
820.2000;0.1498;-0.1768;
820.5000;0.1514;-0.1697;
820.8000;0.1498;-0.1721;
821.1000;0.1530;-0.1673;
821.4000;0.1506;-0.1768;
821.7000;0.1473;-0.1792;
822.0000;0.1522;-0.1721;
822.3000;0.1514;-0.1744;
822.6000;0.1490;-0.1792;
822.9000;0.1481;-0.1792;
823.2000;0.1481;-0.1816;
823.5000;0.1506;-0.1792;
823.8000;0.1506;-0.1816;
824.1000;0.1416;-0.2031;
824.4000;0.1473;-0.1959;
824.7000;0.1490;-0.1959;
825.0000;0.1473;-0.2007;
825.3000;0.1481;-0.1936;
825.6000;0.1506;-0.1840;
825.9000;0.1473;-0.1888;
826.2000;0.1490;-0.1792;
826.5000;0.1481;-0.1768;
826.8000;0.1555;-0.1673;
827.1000;0.1481;-0.1792;
827.4000;0.1498;-0.1768;
827.7000;0.1376;-0.2079;
828.0000;0.1473;-0.1792;
828.3000;0.1514;-0.1649;
828.6000;0.1498;-0.1697;
828.9000;0.1490;-0.1697;
829.2000;0.1726;-0.1147;
829.5000;0.1408;-0.2127;
829.8000;0.1514;-0.1840;
830.1000;0.1490;-0.1912;
830.4000;0.1465;-0.1864;
830.7000;0.1498;-0.1888;
831.0000;0.1498;-0.1864;
831.3000;0.1506;-0.1816;
831.6000;0.1538;-0.1721;
831.9000;0.1465;-0.1959;
832.2000;0.1506;-0.1888;
832.5000;0.1506;-0.1912;
832.8000;0.1457;-0.2055;
833.1000;0.1481;-0.1959;
833.4000;0.1457;-0.2031;
833.7000;0.1481;-0.1888;
834.0000;0.1441;-0.1936;
834.3000;0.1490;-0.1888;
834.6000;0.1547;-0.1697;
834.9000;0.1506;-0.1792;
835.2000;0.1490;-0.1840;
835.5000;0.1571;-0.1649;
835.8000;0.1473;-0.2079;
836.1000;0.1498;-0.1983;
836.4000;0.1514;-0.1912;
836.7000;0.1473;-0.1983;
837.0000;0.1441;-0.2175;
837.3000;0.1514;-0.1936;
837.6000;0.1490;-0.1936;
837.9000;0.1449;-0.2031;
838.2000;0.1481;-0.1840;
838.5000;0.1530;-0.1721;
838.8000;0.1701;-0.1219;
839.1000;0.1473;-0.1816;
839.4000;0.1506;-0.1744;
839.7000;0.1514;-0.1744;
840.0000;0.1514;-0.1816;
840.3000;0.1514;-0.1744;
840.6000;0.1506;-0.1840;
840.9000;0.1498;-0.1936;
841.2000;0.1481;-0.1840;
841.5000;0.1522;-0.1721;
841.8000;0.1498;-0.1816;
842.1000;0.1498;-0.1864;
842.4000;0.1506;-0.1792;
842.7000;0.1563;-0.1625;
843.0000;0.1490;-0.1649;
843.3000;0.1481;-0.1697;
843.6000;0.1481;-0.1721;
843.9000;0.1530;-0.1697;
844.2000;0.1481;-0.1744;
844.5000;0.1490;-0.1768;
844.8000;0.1490;-0.1744;
845.1000;0.1498;-0.1744;
845.4000;0.1506;-0.1768;
845.7000;0.1490;-0.1792;
846.0000;0.1490;-0.1768;
846.3000;0.1498;-0.1721;
846.6000;0.1530;-0.1625;
846.9000;0.1506;-0.1673;
847.2000;0.1473;-0.1721;
847.5000;0.1498;-0.1721;
847.8000;0.1490;-0.1744;
848.1000;0.1473;-0.1816;
848.4000;0.1514;-0.1744;
848.7000;0.1498;-0.1697;
849.0000;0.1506;-0.1697;
849.3000;0.1514;-0.1721;
849.6000;0.1473;-0.1744;
849.9000;0.1490;-0.1697;
850.2000;0.1514;-0.1673;
850.5000;0.1481;-0.1816;
850.8000;0.1514;-0.1792;
851.1000;0.1555;-0.1673;
851.4000;0.1490;-0.1912;
851.7000;0.1490;-0.1864;
852.0000;0.1498;-0.1816;
852.3000;0.1335;-0.2270;
852.6000;0.1514;-0.1864;
852.9000;0.1481;-0.1936;
853.2000;0.1514;-0.1792;
853.5000;0.1506;-0.1864;
853.8000;0.1481;-0.1959;
854.1000;0.1498;-0.1936;
854.4000;0.1506;-0.1936;
854.7000;0.1522;-0.1936;
855.0000;0.1498;-0.2031;
855.3000;0.1490;-0.2079;
855.6000;0.1465;-0.2055;
855.9000;0.1481;-0.1983;
856.2000;0.1506;-0.1959;
856.5000;0.1457;-0.2055;
856.8000;0.1490;-0.1983;
857.1000;0.1481;-0.1864;
857.4000;0.1473;-0.1983;
857.7000;0.1473;-0.1959;
858.0000;0.1481;-0.1912;
858.3000;0.1498;-0.1936;
858.6000;0.1441;-0.2079;
858.9000;0.1481;-0.2103;
859.2000;0.1481;-0.2127;
859.5000;0.1547;-0.2007;
859.8000;0.1490;-0.2079;
860.1000;0.1490;-0.2103;
860.4000;0.1473;-0.2222;
860.7000;0.1449;-0.2222;
861.0000;0.1490;-0.2103;
861.3000;0.1481;-0.2055;
861.6000;0.1465;-0.2127;
861.9000;0.1473;-0.1983;
862.2000;0.1384;-0.2198;
862.5000;0.1481;-0.1959;
862.8000;0.1441;-0.2055;
863.1000;0.1498;-0.1792;
863.4000;0.1522;-0.1792;
863.7000;0.1473;-0.1936;
864.0000;0.1433;-0.2007;
864.3000;0.1416;-0.2222;
864.6000;0.1498;-0.2055;
864.9000;0.1498;-0.1983;
865.2000;0.1514;-0.1959;
865.5000;0.1490;-0.2055;
865.8000;0.1473;-0.2103;
866.1000;0.1498;-0.2055;
866.4000;0.1473;-0.2127;
866.7000;0.1441;-0.2222;
867.0000;0.1498;-0.2007;
867.3000;0.1457;-0.2151;
867.6000;0.1490;-0.2079;
867.9000;0.1408;-0.2222;
868.2000;0.1506;-0.1983;
868.5000;0.1490;-0.1959;
868.8000;0.1514;-0.1936;
869.1000;0.1506;-0.1983;
869.4000;0.1587;-0.1721;
869.7000;0.1514;-0.1983;
870.0000;0.1571;-0.1912;
870.3000;0.1579;-0.1840;
870.6000;0.1473;-0.2079;
870.9000;0.1433;-0.2246;
871.2000;0.1449;-0.2222;
871.5000;0.1490;-0.2127;
871.8000;0.1490;-0.2175;
872.1000;0.1498;-0.2198;
872.4000;0.1506;-0.2079;
872.7000;0.1457;-0.2127;
873.0000;0.1514;-0.1936;
873.3000;0.1506;-0.1912;
873.6000;0.1547;-0.1888;
873.9000;0.1579;-0.1792;
874.2000;0.1481;-0.2031;
874.5000;0.1490;-0.2079;
874.8000;0.1514;-0.2031;
875.1000;0.1555;-0.1864;
875.4000;0.1457;-0.2031;
875.7000;0.1530;-0.1697;
876.0000;0.1530;-0.1697;
876.3000;0.1490;-0.1816;
876.6000;0.1376;-0.2246;
876.9000;0.1522;-0.1768;
877.2000;0.1498;-0.1840;
877.5000;0.1490;-0.1768;
877.8000;0.1506;-0.1768;
878.1000;0.1473;-0.1888;
878.4000;0.1490;-0.1768;
878.7000;0.1498;-0.1816;
879.0000;0.1490;-0.1864;
879.3000;0.1555;-0.1792;
879.6000;0.1506;-0.1959;
879.9000;0.1498;-0.2055;
880.2000;0.1514;-0.1959;
880.5000;0.1506;-0.1959;
880.8000;0.1506;-0.2031;
881.1000;0.1506;-0.2055;
881.4000;0.1506;-0.2007;
881.7000;0.1498;-0.2055;
882.0000;0.1530;-0.1983;
882.3000;0.1498;-0.2007;
882.6000;0.1465;-0.2031;
882.9000;0.1481;-0.2007;
883.2000;0.1490;-0.2031;
883.5000;0.1514;-0.1888;
883.8000;0.1490;-0.1888;
884.1000;0.1498;-0.1840;
884.4000;0.1490;-0.1816;
884.7000;0.1498;-0.1840;
885.0000;0.1514;-0.1816;
885.3000;0.1506;-0.1816;
885.6000;0.1514;-0.1792;
885.9000;0.1490;-0.1816;
886.2000;0.1547;-0.1649;
886.5000;0.1457;-0.1936;
886.8000;0.1457;-0.1959;
887.1000;0.1359;-0.2246;
887.4000;0.1481;-0.1983;
887.7000;0.1481;-0.1936;
888.0000;0.1498;-0.1888;
888.3000;0.1530;-0.1840;
888.6000;0.1481;-0.2055;
888.9000;0.1522;-0.2007;
889.2000;0.1514;-0.2007;
889.5000;0.1473;-0.2103;
889.8000;0.1473;-0.2079;
890.1000;0.1490;-0.2079;
890.4000;0.1465;-0.2198;
890.7000;0.1473;-0.2222;
891.0000;0.1481;-0.2246;
891.3000;0.1473;-0.2270;
891.6000;0.1465;-0.2366;
891.9000;0.1522;-0.2294;
892.2000;0.1530;-0.2198;
892.5000;0.1490;-0.2270;
892.8000;0.1498;-0.2175;
893.1000;0.1490;-0.2222;
893.4000;0.1473;-0.2222;
893.7000;0.1498;-0.2151;
894.0000;0.1522;-0.2055;
894.3000;0.1425;-0.2461;
894.6000;0.1481;-0.2318;
894.9000;0.1481;-0.2318;
895.2000;0.1490;-0.2318;
895.5000;0.1457;-0.2413;
895.8000;0.1465;-0.2318;
896.1000;0.1506;-0.2175;
896.4000;0.1457;-0.2198;
896.7000;0.1416;-0.2366;
897.0000;0.1522;-0.2127;
897.3000;0.1481;-0.2342;
897.6000;0.1481;-0.2270;
897.9000;0.1490;-0.2246;
898.2000;0.1433;-0.2437;
898.5000;0.1522;-0.2151;
898.8000;0.1506;-0.2127;
899.1000;0.1498;-0.2127;
899.4000;0.1498;-0.2151;
899.7000;0.1490;-0.2103;
900.0000;0.1506;-0.2079;
900.3000;0.1490;-0.2007;
900.6000;0.1490;-0.1959;
900.9000;0.1481;-0.2007;
901.2000;0.1612;-0.1649;
901.5000;0.1514;-0.1864;
901.8000;0.1498;-0.1912;
902.1000;0.1457;-0.2031;
902.4000;0.1514;-0.1959;
902.7000;0.1506;-0.1959;
903.0000;0.1522;-0.1936;
903.3000;0.1506;-0.1959;
903.6000;0.1498;-0.2031;
903.9000;0.1498;-0.2031;
904.2000;0.1368;-0.2294;
904.5000;0.1449;-0.2127;
904.8000;0.1481;-0.2031;
905.1000;0.1457;-0.2151;
905.4000;0.1473;-0.2103;
905.7000;0.1498;-0.2007;
906.0000;0.1514;-0.2007;
906.3000;0.1555;-0.1888;
906.6000;0.1449;-0.2103;
906.9000;0.1457;-0.2055;
907.2000;0.1490;-0.1983;
907.5000;0.1587;-0.1768;
907.8000;0.1481;-0.2127;
908.1000;0.1514;-0.2055;
908.4000;0.1490;-0.2031;
908.7000;0.1490;-0.2151;
909.0000;0.1514;-0.2127;
909.3000;0.1465;-0.2270;
909.6000;0.1490;-0.2222;
909.9000;0.1514;-0.2198;
910.2000;0.1449;-0.2294;
910.5000;0.1490;-0.2151;
910.8000;0.1490;-0.2175;
911.1000;0.1490;-0.2175;
911.4000;0.1490;-0.2079;
911.7000;0.1473;-0.2079;
912.0000;0.1490;-0.2007;
912.3000;0.1506;-0.1983;
912.6000;0.1506;-0.1936;
912.9000;0.1506;-0.1959;
913.2000;0.1490;-0.2127;
913.5000;0.1498;-0.2103;
913.8000;0.1506;-0.2055;
914.1000;0.1506;-0.2007;
914.4000;0.1506;-0.2055;
914.7000;0.1490;-0.2031;
915.0000;0.1514;-0.1912;
915.3000;0.1498;-0.2031;
915.6000;0.1514;-0.2031;
915.9000;0.1490;-0.2031;
916.2000;0.1506;-0.2007;
916.5000;0.1506;-0.1959;
916.8000;0.1490;-0.2031;
917.1000;0.1498;-0.1983;
917.4000;0.1530;-0.1936;
917.7000;0.1514;-0.2079;
918.0000;0.1408;-0.2342;
918.3000;0.1506;-0.2055;
918.6000;0.1481;-0.2103;
918.9000;0.1498;-0.2031;
919.2000;0.1490;-0.2079;
919.5000;0.1473;-0.2198;
919.8000;0.1490;-0.2198;
920.1000;0.1514;-0.1983;
920.4000;0.1514;-0.2079;
920.7000;0.1490;-0.2103;
921.0000;0.1400;-0.2294;
921.3000;0.1506;-0.2007;
921.6000;0.1514;-0.1983;
921.9000;0.1481;-0.2007;
922.2000;0.1408;-0.2151;
922.5000;0.1473;-0.1936;
922.8000;0.1490;-0.1864;
923.1000;0.1498;-0.1936;
923.4000;0.1538;-0.1912;
923.7000;0.1498;-0.1936;
924.0000;0.1490;-0.1912;
924.3000;0.1481;-0.1959;
924.6000;0.1506;-0.1888;
924.9000;0.1490;-0.1936;
925.2000;0.1538;-0.1912;
925.5000;0.1514;-0.1864;
925.8000;0.1490;-0.1840;
926.1000;0.1506;-0.1840;
926.4000;0.1506;-0.1840;
926.7000;0.1498;-0.1912;
927.0000;0.1481;-0.2007;
927.3000;0.1514;-0.2007;
927.6000;0.1506;-0.2007;
927.9000;0.1498;-0.2007;
928.2000;0.1490;-0.1983;
928.5000;0.1490;-0.1912;
928.8000;0.1506;-0.1959;
929.1000;0.1514;-0.1888;
929.4000;0.1498;-0.1792;
929.7000;0.1498;-0.1816;
930.0000;0.1538;-0.1744;
930.3000;0.1579;-0.1673;
930.6000;0.1506;-0.1840;
930.9000;0.1473;-0.1864;
931.2000;0.1498;-0.1864;
931.5000;0.1530;-0.1768;
931.8000;0.1547;-0.1673;
932.1000;0.1498;-0.1744;
932.4000;0.1481;-0.1792;
932.7000;0.1465;-0.1912;
933.0000;0.1327;-0.2318;
933.3000;0.1498;-0.1816;
933.6000;0.1481;-0.1840;
933.9000;0.1579;-0.1649;
934.2000;0.1490;-0.1864;
934.5000;0.1498;-0.1816;
934.8000;0.1498;-0.1864;
935.1000;0.1498;-0.1816;
935.4000;0.1498;-0.1768;
935.7000;0.1506;-0.1721;
936.0000;0.1506;-0.1744;
936.3000;0.1555;-0.1577;
936.6000;0.1506;-0.1697;
936.9000;0.1522;-0.1625;
937.2000;0.1498;-0.1673;
937.5000;0.1538;-0.1529;
937.8000;0.1498;-0.1601;
938.1000;0.1473;-0.1649;
938.4000;0.1498;-0.1577;
938.7000;0.1514;-0.1601;
939.0000;0.1473;-0.1601;
939.3000;0.1506;-0.1601;
939.6000;0.1530;-0.1529;
939.9000;0.1498;-0.1577;
940.2000;0.1490;-0.1529;
940.5000;0.1490;-0.1553;
940.8000;0.1506;-0.1553;
941.1000;0.1481;-0.1673;
941.4000;0.1481;-0.1744;
941.7000;0.1498;-0.1792;
942.0000;0.1441;-0.1912;
942.3000;0.1481;-0.1673;
942.6000;0.1481;-0.1673;
942.9000;0.1473;-0.1744;
943.2000;0.1530;-0.1649;
943.5000;0.1514;-0.1649;
943.8000;0.1481;-0.1697;
944.1000;0.1514;-0.1721;
944.4000;0.1473;-0.1864;
944.7000;0.1498;-0.1864;
945.0000;0.1465;-0.1936;
945.3000;0.1416;-0.2055;
945.6000;0.1490;-0.1936;
945.9000;0.1490;-0.1912;
946.2000;0.1481;-0.1888;
946.5000;0.1481;-0.1888;
946.8000;0.1555;-0.1625;
947.1000;0.1498;-0.1697;
947.4000;0.1506;-0.1697;
947.7000;0.1571;-0.1577;
948.0000;0.1506;-0.1721;
948.3000;0.1498;-0.1816;
948.6000;0.1498;-0.1768;
948.9000;0.1490;-0.1768;
949.2000;0.1571;-0.1601;
949.5000;0.1498;-0.1792;
949.8000;0.1538;-0.1744;
950.1000;0.1498;-0.1768;
950.4000;0.1506;-0.1768;
950.7000;0.1490;-0.1649;
951.0000;0.1473;-0.1721;
951.3000;0.1490;-0.1744;
951.6000;0.1530;-0.1697;
951.9000;0.1473;-0.1840;
952.2000;0.1457;-0.1959;
952.5000;0.1506;-0.1936;
952.8000;0.1490;-0.1864;
953.1000;0.1400;-0.2151;
953.4000;0.1587;-0.1601;
953.7000;0.1498;-0.1721;
954.0000;0.1498;-0.1721;
954.3000;0.1490;-0.1792;
954.6000;0.1473;-0.1768;
954.9000;0.1400;-0.1959;
955.2000;0.1490;-0.1768;
955.5000;0.1481;-0.1816;
955.8000;0.1457;-0.1912;
956.1000;0.1530;-0.1816;
956.4000;0.1506;-0.1912;
956.7000;0.1506;-0.1888;
957.0000;0.1473;-0.1912;
957.3000;0.1522;-0.1840;
957.6000;0.1498;-0.1912;
957.9000;0.1538;-0.1840;
958.2000;0.1498;-0.1983;
958.5000;0.1506;-0.1816;
958.8000;0.1425;-0.2031;
959.1000;0.1506;-0.1888;
959.4000;0.1498;-0.1959;
959.7000;0.1490;-0.1816;
960.0000;0.1522;-0.1721;
960.3000;0.1498;-0.1864;
960.6000;0.1506;-0.1816;
960.9000;0.1498;-0.1864;
961.2000;0.1506;-0.1744;
961.5000;0.1506;-0.1697;
961.8000;0.1498;-0.1744;
962.1000;0.1490;-0.1649;
962.4000;0.1473;-0.1601;
962.7000;0.1522;-0.1553;
963.0000;0.1522;-0.1553;
963.3000;0.1498;-0.1673;
963.6000;0.1490;-0.1744;
963.9000;0.1465;-0.1768;
964.2000;0.1506;-0.1744;
964.5000;0.1481;-0.1840;
964.8000;0.1481;-0.2007;
965.1000;0.1530;-0.1912;
965.4000;0.1481;-0.2103;
965.7000;0.1514;-0.2079;
966.0000;0.1555;-0.1864;
966.3000;0.1514;-0.2007;
966.6000;0.1522;-0.1959;
966.9000;0.1522;-0.1936;
967.2000;0.1490;-0.2079;
967.5000;0.1481;-0.2079;
967.8000;0.1481;-0.2055;
968.1000;0.1514;-0.2007;
968.4000;0.1481;-0.1959;
968.7000;0.1538;-0.1816;
969.0000;0.1636;-0.1505;
969.3000;0.1514;-0.1864;
969.6000;0.1538;-0.1721;
969.9000;0.1514;-0.1744;
970.2000;0.1498;-0.1792;
970.5000;0.1506;-0.1864;
970.8000;0.1490;-0.1816;
971.1000;0.1498;-0.1864;
971.4000;0.1490;-0.1888;
971.7000;0.1506;-0.1840;
972.0000;0.1481;-0.1888;
972.3000;0.1457;-0.1888;
972.6000;0.1498;-0.1912;
972.9000;0.1498;-0.1959;
973.2000;0.1506;-0.1983;
973.5000;0.1514;-0.1864;
973.8000;0.1490;-0.1983;
974.1000;0.1506;-0.2007;
974.4000;0.1506;-0.2079;
974.7000;0.1481;-0.2079;
975.0000;0.1481;-0.2031;
975.3000;0.1506;-0.2031;
975.6000;0.1481;-0.2079;
975.9000;0.1498;-0.2079;
976.2000;0.1498;-0.2031;
976.5000;0.1490;-0.2031;
976.8000;0.1514;-0.1983;
977.1000;0.1490;-0.2079;
977.4000;0.1498;-0.2079;
977.7000;0.1538;-0.1912;
978.0000;0.1498;-0.1912;
978.3000;0.1498;-0.1840;
978.6000;0.1473;-0.1959;
978.9000;0.1441;-0.2151;
979.2000;0.1506;-0.2055;
979.5000;0.1351;-0.2366;
979.8000;0.1473;-0.2031;
980.1000;0.1506;-0.1983;
980.4000;0.1457;-0.2103;
980.7000;0.1490;-0.1983;
981.0000;0.1490;-0.1959;
981.3000;0.1481;-0.1959;
981.6000;0.1530;-0.1768;
981.9000;0.1473;-0.1792;
982.2000;0.1514;-0.1721;
982.5000;0.1522;-0.1721;
982.8000;0.1498;-0.1792;
983.1000;0.1506;-0.1792;
983.4000;0.1522;-0.1840;
983.7000;0.1506;-0.1888;
984.0000;0.1433;-0.2031;
984.3000;0.1514;-0.1744;
984.6000;0.1506;-0.1721;
984.9000;0.1506;-0.1792;
985.2000;0.1498;-0.1888;
985.5000;0.1514;-0.1816;
985.8000;0.1514;-0.1816;
986.1000;0.1490;-0.1816;
986.4000;0.1498;-0.1744;
986.7000;0.1433;-0.1959;
987.0000;0.1506;-0.1744;
987.3000;0.1498;-0.1768;
987.6000;0.1465;-0.1840;
987.9000;0.1522;-0.1721;
988.2000;0.1522;-0.1697;
988.5000;0.1441;-0.1936;
988.8000;0.1490;-0.1792;
989.1000;0.1538;-0.1601;
989.4000;0.1481;-0.1721;
989.7000;0.1506;-0.1601;
990.0000;0.1587;-0.1338;
990.3000;0.1490;-0.1577;
990.6000;0.1473;-0.1625;
990.9000;0.1506;-0.1649;
991.2000;0.1538;-0.1601;
991.5000;0.1449;-0.1912;
991.8000;0.1506;-0.1744;
992.1000;0.1473;-0.1840;
992.4000;0.1449;-0.1912;
992.7000;0.1490;-0.1792;
993.0000;0.1498;-0.1697;
993.3000;0.1506;-0.1601;
993.6000;0.1490;-0.1697;
993.9000;0.1481;-0.1721;
994.2000;0.1498;-0.1721;
994.5000;0.1522;-0.1721;
994.8000;0.1498;-0.1768;
995.1000;0.1490;-0.1816;
995.4000;0.1514;-0.1768;
995.7000;0.1506;-0.1816;
996.0000;0.1473;-0.1912;
996.3000;0.1457;-0.1936;
996.6000;0.1481;-0.1912;
996.9000;0.1506;-0.1864;
997.2000;0.1506;-0.1864;
997.5000;0.1514;-0.1912;
997.8000;0.1498;-0.1912;
998.1000;0.1481;-0.1983;
998.4000;0.1498;-0.1936;
998.7000;0.1522;-0.1816;
999.0000;0.1498;-0.1888;
999.3000;0.1506;-0.1912;
999.6000;0.1465;-0.1936;
999.9000;0.1490;-0.1912;
1000.2000;0.1514;-0.1864;
1000.5000;0.1490;-0.1959;
1000.8000;0.1498;-0.1912;
1001.1000;0.1481;-0.1936;
1001.4000;0.1425;-0.2127;
1001.7000;0.1506;-0.1912;
1002.0000;0.1530;-0.1840;
1002.3000;0.1433;-0.2079;
1002.6000;0.1465;-0.2079;
1002.9000;0.1498;-0.1888;
1003.2000;0.1522;-0.1840;
1003.5000;0.1555;-0.1744;
1003.8000;0.1490;-0.1936;
1004.1000;0.1506;-0.1840;
1004.4000;0.1481;-0.1864;
1004.7000;0.1522;-0.1721;
1005.0000;0.1490;-0.1673;
1005.3000;0.1514;-0.1649;
1005.6000;0.1514;-0.1649;
1005.9000;0.1514;-0.1673;
1006.2000;0.1514;-0.1625;
1006.5000;0.1514;-0.1601;
1006.8000;0.1506;-0.1625;
1007.1000;0.1465;-0.1816;
1007.4000;0.1514;-0.1697;
1007.7000;0.1506;-0.1673;
1008.0000;0.1522;-0.1721;
1008.3000;0.1522;-0.1649;
1008.6000;0.1473;-0.1697;
1008.9000;0.1465;-0.1673;
1009.2000;0.1514;-0.1673;
1009.5000;0.1498;-0.1816;
1009.8000;0.1457;-0.1959;
1010.1000;0.1514;-0.1888;
1010.4000;0.1481;-0.1983;
1010.7000;0.1612;-0.1673;
1011.0000;0.1506;-0.2031;
1011.3000;0.1498;-0.2007;
1011.6000;0.1498;-0.1912;
1011.9000;0.1514;-0.1912;
1012.2000;0.1490;-0.1864;
1012.5000;0.1514;-0.1721;
1012.8000;0.1498;-0.1768;
1013.1000;0.1514;-0.1864;
1013.4000;0.1522;-0.1816;
1013.7000;0.1481;-0.1912;
1014.0000;0.1514;-0.1768;
1014.3000;0.1490;-0.1744;
1014.6000;0.1514;-0.1697;
1014.9000;0.1498;-0.1721;
1015.2000;0.1506;-0.1744;
1015.5000;0.1400;-0.2103;
1015.8000;0.1481;-0.1936;
1016.1000;0.1514;-0.1864;
1016.4000;0.1506;-0.1888;
1016.7000;0.1522;-0.1816;
1017.0000;0.1490;-0.1912;
1017.3000;0.1481;-0.1912;
1017.6000;0.1498;-0.1816;
1017.9000;0.1498;-0.1697;
1018.2000;0.1506;-0.1744;
1018.5000;0.1506;-0.1744;
1018.8000;0.1498;-0.1721;
1019.1000;0.1506;-0.1721;
1019.4000;0.1457;-0.1840;
1019.7000;0.1473;-0.1840;
1020.0000;0.1498;-0.1888;
1020.3000;0.1498;-0.1864;
1020.6000;0.1490;-0.1792;
1020.9000;0.1530;-0.1697;
1021.2000;0.1498;-0.1792;
1021.5000;0.1498;-0.1816;
1021.8000;0.1490;-0.1864;
1022.1000;0.1514;-0.1864;
1022.4000;0.1481;-0.2007;
1022.7000;0.1473;-0.1959;
1023.0000;0.1490;-0.1912;
1023.3000;0.1506;-0.1840;
1023.6000;0.1563;-0.1697;
1023.9000;0.1555;-0.1721;
1024.2000;0.1481;-0.1959;
1024.5000;0.1514;-0.1864;
1024.8000;0.1481;-0.1936;
1025.1000;0.1522;-0.1888;
1025.4000;0.1506;-0.1936;
1025.7000;0.1457;-0.2007;
1026.0000;0.1490;-0.1959;
1026.3000;0.1522;-0.1888;
1026.6000;0.1514;-0.1912;
1026.9000;0.1563;-0.1792;
1027.2000;0.1498;-0.1959;
1027.5000;0.1514;-0.1912;
1027.8000;0.1522;-0.1888;
1028.1000;0.1481;-0.1912;
1028.4000;0.1473;-0.1983;
1028.7000;0.1514;-0.1936;
1029.0000;0.1490;-0.2007;
1029.3000;0.1498;-0.1959;
1029.6000;0.1490;-0.1959;
1029.9000;0.1481;-0.1912;
1030.2000;0.1490;-0.1840;
1030.5000;0.1473;-0.1888;
1030.8000;0.1506;-0.1816;
1031.1000;0.1490;-0.1936;
1031.4000;0.1473;-0.2079;
1031.7000;0.1506;-0.1983;
1032.0000;0.1490;-0.2079;
1032.3000;0.1530;-0.2055;
1032.6000;0.1530;-0.2079;
1032.9000;0.1490;-0.2198;
1033.2000;0.1530;-0.2151;
1033.5000;0.1498;-0.2198;
1033.8000;0.1473;-0.2270;
1034.1000;0.1465;-0.2270;
1034.4000;0.1425;-0.2461;
1034.7000;0.1490;-0.2222;
1035.0000;0.1498;-0.2055;
1035.3000;0.1481;-0.2103;
1035.6000;0.1368;-0.2390;
1035.9000;0.1514;-0.1936;
1036.2000;0.1384;-0.2270;
1036.5000;0.1473;-0.2007;
1036.8000;0.1506;-0.1864;
1037.1000;0.1433;-0.2151;
1037.4000;0.1481;-0.2007;
1037.7000;0.1506;-0.1959;
1038.0000;0.1506;-0.1936;
1038.3000;0.1587;-0.1721;
1038.6000;0.1498;-0.1840;
1038.9000;0.1481;-0.1864;
1039.2000;0.1416;-0.2103;
1039.5000;0.1457;-0.2031;
1039.8000;0.1481;-0.1912;
1040.1000;0.1498;-0.1864;
1040.4000;0.1522;-0.1792;
1040.7000;0.1490;-0.1816;
1041.0000;0.1490;-0.1768;
1041.3000;0.1538;-0.1721;
1041.6000;0.1498;-0.1840;
1041.9000;0.1498;-0.1816;
1042.2000;0.1408;-0.2103;
1042.5000;0.1571;-0.1744;
1042.8000;0.1514;-0.1792;
1043.1000;0.1498;-0.1888;
1043.4000;0.1498;-0.1840;
1043.7000;0.1514;-0.1840;
1044.0000;0.1514;-0.1816;
1044.3000;0.1514;-0.1768;
1044.6000;0.1522;-0.1721;
1044.9000;0.1490;-0.1792;
1045.2000;0.1473;-0.1792;
1045.5000;0.1498;-0.1721;
1045.8000;0.1506;-0.1768;
1046.1000;0.1490;-0.1840;
1046.4000;0.1481;-0.1888;
1046.7000;0.1473;-0.1983;
1047.0000;0.1506;-0.1864;
1047.3000;0.1490;-0.1959;
1047.6000;0.1376;-0.2175;
1047.9000;0.1506;-0.1864;
1048.2000;0.1514;-0.1864;
1048.5000;0.1506;-0.1864;
1048.8000;0.1506;-0.1792;
1049.1000;0.1441;-0.2007;
1049.4000;0.1498;-0.1768;
1049.7000;0.1433;-0.1959;
1050.0000;0.1595;-0.1601;
1050.3000;0.1473;-0.1888;
1050.6000;0.1506;-0.1816;
1050.9000;0.1490;-0.1840;
1051.2000;0.1514;-0.1721;
1051.5000;0.1498;-0.1792;
1051.8000;0.1506;-0.1792;
1052.1000;0.1579;-0.1625;
1052.4000;0.1514;-0.1840;
1052.7000;0.1498;-0.1864;
1053.0000;0.1514;-0.1816;
1053.3000;0.1490;-0.1840;
1053.6000;0.1481;-0.1792;
1053.9000;0.1514;-0.1721;
1054.2000;0.1481;-0.1744;
1054.5000;0.1506;-0.1792;
1054.8000;0.1514;-0.1721;
1055.1000;0.1490;-0.1768;
1055.4000;0.1522;-0.1673;
1055.7000;0.1498;-0.1816;
1056.0000;0.1506;-0.1792;
1056.3000;0.1506;-0.1744;
1056.6000;0.1522;-0.1697;
1056.9000;0.1506;-0.1721;
1057.2000;0.1481;-0.1721;
1057.5000;0.1498;-0.1649;
1057.8000;0.1498;-0.1673;
1058.1000;0.1473;-0.1744;
1058.4000;0.1465;-0.1768;
1058.7000;0.1506;-0.1697;
1059.0000;0.1465;-0.1888;
1059.3000;0.1506;-0.1840;
1059.6000;0.1498;-0.1840;
1059.9000;0.1514;-0.1864;
1060.2000;0.1506;-0.1936;
1060.5000;0.1498;-0.1959;
1060.8000;0.1514;-0.1912;
1061.1000;0.1481;-0.1912;
1061.4000;0.1473;-0.1936;
1061.7000;0.1481;-0.1888;
1062.0000;0.1506;-0.1744;
1062.3000;0.1433;-0.1936;
1062.6000;0.1498;-0.1744;
1062.9000;0.1481;-0.1792;
1063.2000;0.1416;-0.2007;
1063.5000;0.1457;-0.1959;
1063.8000;0.1498;-0.1912;
1064.1000;0.1506;-0.1936;
1064.4000;0.1490;-0.1888;
1064.7000;0.1481;-0.1888;
1065.0000;0.1498;-0.1721;
1065.3000;0.1498;-0.1721;
1065.6000;0.1506;-0.1697;
1065.9000;0.1498;-0.1792;
1066.2000;0.1498;-0.1792;
1066.5000;0.1506;-0.1673;
1066.8000;0.1490;-0.1768;
1067.1000;0.1490;-0.1840;
1067.4000;0.1506;-0.1744;
1067.7000;0.1490;-0.1840;
1068.0000;0.1498;-0.1792;
1068.3000;0.1376;-0.2151;
1068.6000;0.1498;-0.1864;
1068.9000;0.1498;-0.1888;
1069.2000;0.1481;-0.1888;
1069.5000;0.1506;-0.1840;
1069.8000;0.1481;-0.1912;
1070.1000;0.1514;-0.1816;
1070.4000;0.1506;-0.1792;
1070.7000;0.1498;-0.1697;
1071.0000;0.1506;-0.1697;
1071.3000;0.1514;-0.1649;
1071.6000;0.1490;-0.1792;
1071.9000;0.1498;-0.1697;
1072.2000;0.1506;-0.1768;
1072.5000;0.1498;-0.1840;
1072.8000;0.1481;-0.1912;
1073.1000;0.1481;-0.1816;
1073.4000;0.1506;-0.1744;
1073.7000;0.1514;-0.1697;
1074.0000;0.1563;-0.1649;
1074.3000;0.1506;-0.1840;
1074.6000;0.1457;-0.2007;
1074.9000;0.1490;-0.1983;
1075.2000;0.1506;-0.1936;
1075.5000;0.1473;-0.2055;
1075.8000;0.1498;-0.1959;
1076.1000;0.1538;-0.1888;
1076.4000;0.1498;-0.2031;
1076.7000;0.1490;-0.1959;
1077.0000;0.1465;-0.2079;
1077.3000;0.1490;-0.2031;
1077.6000;0.1498;-0.2007;
1077.9000;0.1498;-0.1936;
1078.2000;0.1490;-0.1936;
1078.5000;0.1498;-0.1888;
1078.8000;0.1506;-0.1864;
1079.1000;0.1514;-0.1768;
1079.4000;0.1490;-0.1792;
1079.7000;0.1498;-0.1816;
1080.0000;0.1425;-0.1936;
1080.3000;0.1538;-0.1697;
1080.6000;0.1538;-0.1649;
1080.9000;0.1473;-0.1744;
1081.2000;0.1514;-0.1577;
1081.5000;0.1522;-0.1482;
1081.8000;0.1498;-0.1553;
1082.1000;0.1538;-0.1482;
1082.4000;0.1490;-0.1649;
1082.7000;0.1514;-0.1577;
1083.0000;0.1506;-0.1673;
1083.3000;0.1473;-0.1792;
1083.6000;0.1506;-0.1744;
1083.9000;0.1481;-0.1792;
1084.2000;0.1498;-0.1792;
1084.5000;0.1490;-0.1840;
1084.8000;0.1612;-0.1505;
1085.1000;0.1498;-0.1673;
1085.4000;0.1514;-0.1625;
1085.7000;0.1490;-0.1744;
1086.0000;0.1506;-0.1792;
1086.3000;0.1522;-0.1721;
1086.6000;0.1522;-0.1649;
1086.9000;0.1498;-0.1697;
1087.2000;0.1498;-0.1697;
1087.5000;0.1563;-0.1458;
1087.8000;0.1498;-0.1697;
1088.1000;0.1506;-0.1673;
1088.4000;0.1490;-0.1721;
1088.7000;0.1473;-0.1744;
1089.0000;0.1481;-0.1768;
1089.3000;0.1514;-0.1792;
1089.6000;0.1514;-0.1721;
1089.9000;0.1514;-0.1721;
1090.2000;0.1506;-0.1792;
1090.5000;0.1522;-0.1768;
1090.8000;0.1514;-0.1840;
1091.1000;0.1498;-0.1816;
1091.4000;0.1514;-0.1721;
1091.7000;0.1490;-0.1768;
1092.0000;0.1506;-0.1744;
1092.3000;0.1514;-0.1744;
1092.6000;0.1449;-0.1912;
1092.9000;0.1498;-0.1721;
1093.2000;0.1441;-0.1936;
1093.5000;0.1490;-0.1840;
1093.8000;0.1506;-0.1888;
1094.1000;0.1490;-0.1888;
1094.4000;0.1400;-0.2175;
1094.7000;0.1465;-0.1888;
1095.0000;0.1481;-0.1888;
1095.3000;0.1498;-0.1936;
1095.6000;0.1498;-0.1888;
1095.9000;0.1506;-0.1744;
1096.2000;0.1522;-0.1744;
1096.5000;0.1506;-0.1744;
1096.8000;0.1490;-0.1697;
1097.1000;0.1481;-0.1673;
1097.4000;0.1449;-0.1816;
1097.7000;0.1481;-0.1816;
1098.0000;0.1481;-0.1816;
1098.3000;0.1514;-0.1768;
1098.6000;0.1490;-0.1840;
1098.9000;0.1481;-0.1840;
1099.2000;0.1425;-0.1959;
1099.5000;0.1498;-0.1816;
1099.8000;0.1498;-0.1864;
1100.1000;0.1522;-0.1792;
1100.4000;0.1514;-0.1840;
1100.7000;0.1400;-0.2103;
1101.0000;0.1514;-0.1816;
1101.3000;0.1490;-0.1936;
1101.6000;0.1481;-0.1912;
1101.9000;0.1498;-0.2031;
1102.2000;0.1481;-0.2031;
1102.5000;0.1506;-0.1936;
1102.8000;0.1490;-0.2007;
1103.1000;0.1490;-0.2007;
1103.4000;0.1522;-0.1959;
1103.7000;0.1506;-0.1983;
1104.0000;0.1530;-0.1816;
1104.3000;0.1506;-0.1768;
1104.6000;0.1498;-0.1792;
1104.9000;0.1579;-0.1601;
1105.2000;0.1490;-0.1888;
1105.5000;0.1498;-0.1912;
1105.8000;0.1441;-0.2055;
1106.1000;0.1522;-0.1864;
1106.4000;0.1490;-0.1912;
1106.7000;0.1449;-0.2031;
1107.0000;0.1506;-0.1864;
1107.3000;0.1514;-0.1912;
1107.6000;0.1473;-0.2055;
1107.9000;0.1506;-0.1959;
1108.2000;0.1506;-0.2031;
1108.5000;0.1506;-0.1959;
1108.8000;0.1506;-0.1959;
1109.1000;0.1449;-0.2079;
1109.4000;0.1457;-0.2079;
1109.7000;0.1563;-0.1792;
1110.0000;0.1457;-0.2031;
1110.3000;0.1498;-0.1864;
1110.6000;0.1522;-0.1816;
1110.9000;0.1506;-0.1888;
1111.2000;0.1498;-0.1888;
1111.5000;0.1514;-0.1816;
1111.8000;0.1506;-0.1816;
1112.1000;0.1522;-0.1768;
1112.4000;0.1506;-0.1888;
1112.7000;0.1498;-0.1888;
1113.0000;0.1498;-0.1888;
1113.3000;0.1490;-0.1912;
1113.6000;0.1498;-0.1864;
1113.9000;0.1522;-0.1792;
1114.2000;0.1490;-0.1888;
1114.5000;0.1490;-0.1864;
1114.8000;0.1449;-0.2007;
1115.1000;0.1490;-0.1840;
1115.4000;0.1498;-0.1864;
1115.7000;0.1425;-0.2127;
1116.0000;0.1465;-0.1912;
1116.3000;0.1506;-0.1864;
1116.6000;0.1481;-0.1983;
1116.9000;0.1465;-0.1959;
1117.2000;0.1425;-0.2151;
1117.5000;0.1376;-0.2246;
1117.8000;0.1506;-0.1888;
1118.1000;0.1490;-0.2007;
1118.4000;0.1433;-0.2103;
1118.7000;0.1490;-0.1936;
1119.0000;0.1433;-0.2031;
1119.3000;0.1522;-0.1744;
1119.6000;0.1498;-0.1888;
1119.9000;0.1498;-0.1816;
1120.2000;0.1514;-0.1864;
1120.5000;0.1530;-0.1816;
1120.8000;0.1514;-0.1816;
1121.1000;0.1481;-0.1792;
1121.4000;0.1490;-0.1816;
1121.7000;0.1473;-0.1840;
1122.0000;0.1498;-0.1816;
1122.3000;0.1490;-0.1816;
1122.6000;0.1514;-0.1816;
1122.9000;0.1481;-0.1959;
1123.2000;0.1490;-0.1936;
1123.5000;0.1506;-0.1912;
1123.8000;0.1514;-0.1936;
1124.1000;0.1514;-0.1888;
1124.4000;0.1498;-0.1888;
1124.7000;0.1490;-0.1840;
1125.0000;0.1506;-0.1816;
1125.3000;0.1490;-0.1888;
1125.6000;0.1514;-0.1816;
1125.9000;0.1514;-0.1888;
1126.2000;0.1490;-0.1840;
1126.5000;0.1490;-0.1888;
1126.8000;0.1498;-0.1912;
1127.1000;0.1522;-0.1936;
1127.4000;0.1473;-0.2055;
1127.7000;0.1498;-0.2055;
1128.0000;0.1490;-0.2103;
1128.3000;0.1490;-0.2103;
1128.6000;0.1498;-0.2079;
1128.9000;0.1563;-0.1888;
1129.2000;0.1522;-0.1983;
1129.5000;0.1530;-0.1983;
1129.8000;0.1514;-0.2031;
1130.1000;0.1490;-0.2103;
1130.4000;0.1498;-0.2103;
1130.7000;0.1555;-0.2031;
1131.0000;0.1473;-0.2270;
1131.3000;0.1490;-0.2198;
1131.6000;0.1498;-0.2151;
1131.9000;0.1490;-0.2198;
1132.2000;0.1498;-0.2270;
1132.5000;0.1481;-0.2342;
1132.8000;0.1506;-0.2318;
1133.1000;0.1408;-0.2581;
1133.4000;0.1506;-0.2318;
1133.7000;0.1506;-0.2246;
1134.0000;0.1473;-0.2294;
1134.3000;0.1661;-0.1744;
1134.6000;0.1490;-0.2222;
1134.9000;0.1506;-0.2055;
1135.2000;0.1457;-0.2175;
1135.5000;0.1498;-0.2127;
1135.8000;0.1530;-0.2007;
1136.1000;0.1449;-0.2175;
1136.4000;0.1530;-0.2007;
1136.7000;0.1481;-0.2127;
1137.0000;0.1498;-0.2151;
1137.3000;0.1506;-0.2198;
1137.6000;0.1506;-0.2127;
1137.9000;0.1522;-0.2079;
1138.2000;0.1481;-0.2198;
1138.5000;0.1506;-0.2127;
1138.8000;0.1506;-0.2198;
1139.1000;0.1514;-0.2198;
1139.4000;0.1498;-0.2318;
1139.7000;0.1457;-0.2390;
1140.0000;0.1490;-0.2270;
1140.3000;0.1490;-0.2294;
1140.6000;0.1563;-0.2079;
1140.9000;0.1547;-0.2175;
1141.2000;0.1506;-0.2342;
1141.5000;0.1506;-0.2366;
1141.8000;0.1514;-0.2270;
1142.1000;0.1498;-0.2270;
1142.4000;0.1506;-0.2270;
1142.7000;0.1498;-0.2151;
1143.0000;0.1522;-0.2175;
1143.3000;0.1514;-0.2175;
1143.6000;0.1473;-0.2294;
1143.9000;0.1473;-0.2246;
1144.2000;0.1563;-0.2079;
1144.5000;0.1514;-0.2198;
1144.8000;0.1514;-0.2198;
1145.1000;0.1506;-0.2175;
1145.4000;0.1490;-0.2175;
1145.7000;0.1514;-0.2079;
1146.0000;0.1490;-0.2007;
1146.3000;0.1481;-0.2007;
1146.6000;0.1481;-0.1983;
1146.9000;0.1473;-0.1936;
1147.2000;0.1481;-0.1912;
1147.5000;0.1530;-0.1816;
1147.8000;0.1498;-0.1959;
1148.1000;0.1481;-0.1959;
1148.4000;0.1490;-0.1912;
1148.7000;0.1506;-0.1936;
1149.0000;0.1506;-0.1888;
1149.3000;0.1498;-0.1888;
1149.6000;0.1498;-0.1816;
1149.9000;0.1506;-0.1840;
1150.2000;0.1481;-0.1912;
1150.5000;0.1498;-0.2007;
1150.8000;0.1506;-0.1983;
1151.1000;0.1498;-0.1936;
1151.4000;0.1481;-0.1936;
1151.7000;0.1506;-0.1768;
1152.0000;0.1555;-0.1697;
1152.3000;0.1490;-0.1864;
1152.6000;0.1506;-0.1936;
1152.9000;0.1522;-0.1888;
1153.2000;0.1481;-0.1959;
1153.5000;0.1473;-0.1959;
1153.8000;0.1506;-0.2031;
1154.1000;0.1465;-0.2151;
1154.4000;0.1506;-0.2031;
1154.7000;0.1514;-0.2055;
1155.0000;0.1563;-0.1888;
1155.3000;0.1563;-0.1864;
1155.6000;0.1490;-0.2031;
1155.9000;0.1514;-0.1983;
1156.2000;0.1498;-0.1936;
1156.5000;0.1530;-0.1959;
1156.8000;0.1514;-0.1959;
1157.1000;0.1530;-0.1912;
1157.4000;0.1490;-0.2031;
1157.7000;0.1506;-0.2031;
1158.0000;0.1490;-0.2079;
1158.3000;0.1595;-0.1792;
1158.6000;0.1490;-0.2007;
1158.9000;0.1498;-0.2079;
1159.2000;0.1490;-0.2031;
1159.5000;0.1481;-0.2127;
1159.8000;0.1498;-0.2127;
1160.1000;0.1547;-0.1936;
1160.4000;0.1514;-0.1983;
1160.7000;0.1498;-0.1936;
1161.0000;0.1490;-0.1864;
1161.3000;0.1522;-0.1864;
1161.6000;0.1490;-0.1936;
1161.9000;0.1522;-0.1888;
1162.2000;0.1506;-0.1864;
1162.5000;0.1514;-0.1768;
1162.8000;0.1522;-0.1840;
1163.1000;0.1506;-0.1959;
1163.4000;0.1490;-0.2031;
1163.7000;0.1457;-0.2079;
1164.0000;0.1490;-0.2007;
1164.3000;0.1498;-0.1959;
1164.6000;0.1498;-0.1959;
1164.9000;0.1473;-0.1983;
1165.2000;0.1498;-0.1816;
1165.5000;0.1490;-0.1768;
1165.8000;0.1473;-0.1840;
1166.1000;0.1490;-0.1864;
1166.4000;0.1473;-0.1912;
1166.7000;0.1457;-0.1959;
1167.0000;0.1481;-0.1936;
1167.3000;0.1498;-0.1888;
1167.6000;0.1498;-0.1816;
1167.9000;0.1506;-0.1768;
1168.2000;0.1506;-0.1816;
1168.5000;0.1498;-0.1840;
1168.8000;0.1498;-0.1840;
1169.1000;0.1481;-0.1816;
1169.4000;0.1490;-0.1840;
1169.7000;0.1498;-0.1864;
1170.0000;0.1490;-0.1888;
1170.3000;0.1490;-0.1840;
1170.6000;0.1538;-0.1721;
1170.9000;0.1481;-0.1888;
1171.2000;0.1481;-0.1840;
1171.5000;0.1473;-0.1936;
1171.8000;0.1490;-0.1912;
1172.1000;0.1506;-0.1936;
1172.4000;0.1498;-0.1936;
1172.7000;0.1490;-0.2055;
1173.0000;0.1490;-0.2055;
1173.3000;0.1514;-0.1912;
1173.6000;0.1506;-0.1936;
1173.9000;0.1490;-0.1959;
1174.2000;0.1490;-0.2007;
1174.5000;0.1490;-0.2031;
1174.8000;0.1481;-0.1959;
1175.1000;0.1465;-0.2007;
1175.4000;0.1498;-0.1840;
1175.7000;0.1563;-0.1649;
1176.0000;0.1490;-0.1816;
1176.3000;0.1498;-0.1840;
1176.6000;0.1490;-0.1792;
1176.9000;0.1490;-0.1840;
1177.2000;0.1498;-0.1912;
1177.5000;0.1506;-0.1912;
1177.8000;0.1506;-0.2007;
1178.1000;0.1522;-0.2031;
1178.4000;0.1408;-0.2318;
1178.7000;0.1506;-0.2031;
1179.0000;0.1490;-0.2055;
1179.3000;0.1457;-0.2198;
1179.6000;0.1433;-0.2270;
1179.9000;0.1498;-0.2055;
1180.2000;0.1481;-0.2055;
1180.5000;0.1506;-0.1888;
1180.8000;0.1457;-0.2031;
1181.1000;0.1498;-0.2031;
1181.4000;0.1490;-0.2055;
1181.7000;0.1498;-0.2055;
1182.0000;0.1506;-0.2031;
1182.3000;0.1522;-0.1936;
1182.6000;0.1514;-0.2007;
1182.9000;0.1506;-0.2079;
1183.2000;0.1498;-0.2103;
1183.5000;0.1530;-0.2055;
1183.8000;0.1490;-0.2103;
1184.1000;0.1514;-0.2079;
1184.4000;0.1481;-0.2151;
1184.7000;0.1498;-0.2127;
1185.0000;0.1498;-0.2151;
1185.3000;0.1498;-0.2103;
1185.6000;0.1490;-0.2055;
1185.9000;0.1490;-0.1912;
1186.2000;0.1498;-0.1912;
1186.5000;0.1490;-0.1936;
1186.8000;0.1555;-0.1673;
1187.1000;0.1490;-0.1888;
1187.4000;0.1498;-0.1864;
1187.7000;0.1368;-0.2103;
1188.0000;0.1498;-0.1768;
1188.3000;0.1506;-0.1697;
1188.6000;0.1514;-0.1768;
1188.9000;0.1441;-0.2007;
1189.2000;0.1465;-0.1840;
1189.5000;0.1498;-0.1840;
1189.8000;0.1506;-0.1673;
1190.1000;0.1595;-0.1362;
1190.4000;0.1506;-0.1673;
1190.7000;0.1514;-0.1673;
1191.0000;0.1408;-0.1936;
1191.3000;0.1481;-0.1912;
1191.6000;0.1473;-0.1864;
1191.9000;0.1490;-0.1912;
1192.2000;0.1416;-0.2151;
1192.5000;0.1473;-0.1983;
1192.8000;0.1498;-0.1912;
1193.1000;0.1449;-0.2031;
1193.4000;0.1506;-0.1936;
1193.7000;0.1514;-0.1816;
1194.0000;0.1490;-0.1816;
1194.3000;0.1498;-0.1721;
1194.6000;0.1465;-0.1721;
1194.9000;0.1530;-0.1673;
1195.2000;0.1522;-0.1721;
1195.5000;0.1522;-0.1744;
1195.8000;0.1368;-0.2198;
1196.1000;0.1530;-0.1792;
1196.4000;0.1498;-0.1697;
1196.7000;0.1490;-0.1792;
1197.0000;0.1490;-0.1816;
1197.3000;0.1481;-0.1888;
1197.6000;0.1473;-0.1959;
1197.9000;0.1563;-0.1768;
1198.2000;0.1498;-0.1959;
1198.5000;0.1449;-0.2079;
1198.8000;0.1465;-0.2151;
1199.1000;0.1498;-0.1936;
1199.4000;0.1498;-0.1864;
1199.7000;0.1522;-0.1816;
1200.0000;0.1473;-0.1936;
1200.3000;0.1449;-0.2055;
1200.6000;0.1481;-0.1912;
1200.9000;0.1490;-0.1744;
1201.2000;0.1514;-0.1744;
1201.5000;0.1481;-0.1888;
1201.8000;0.1473;-0.1912;
1202.1000;0.1441;-0.2079;
1202.4000;0.1473;-0.1959;
1202.7000;0.1506;-0.1864;
1203.0000;0.1506;-0.1888;
1203.3000;0.1579;-0.1697;
1203.6000;0.1490;-0.1912;
1203.9000;0.1498;-0.1864;
1204.2000;0.1506;-0.1721;
1204.5000;0.1498;-0.1744;
1204.8000;0.1481;-0.1864;
1205.1000;0.1490;-0.1936;
1205.4000;0.1571;-0.1721;
1205.7000;0.1498;-0.1816;
1206.0000;0.1481;-0.1816;
1206.3000;0.1481;-0.1816;
1206.6000;0.1506;-0.1697;
1206.9000;0.1514;-0.1625;
1207.2000;0.1481;-0.1721;
1207.5000;0.1465;-0.1792;
1207.8000;0.1506;-0.1721;
1208.1000;0.1490;-0.1816;
1208.4000;0.1490;-0.1744;
1208.7000;0.1441;-0.1816;
1209.0000;0.1498;-0.1721;
1209.3000;0.1490;-0.1840;
1209.6000;0.1473;-0.1864;
1209.9000;0.1498;-0.1816;
1210.2000;0.1555;-0.1697;
1210.5000;0.1498;-0.1888;
1210.8000;0.1490;-0.1912;
1211.1000;0.1449;-0.1983;
1211.4000;0.1514;-0.1721;
1211.7000;0.1506;-0.1744;
1212.0000;0.1522;-0.1721;
1212.3000;0.1490;-0.1792;
1212.6000;0.1506;-0.1792;
1212.9000;0.1490;-0.1912;
1213.2000;0.1400;-0.2127;
1213.5000;0.1473;-0.2031;
1213.8000;0.1498;-0.1936;
1214.1000;0.1457;-0.2103;
1214.4000;0.1547;-0.1864;
1214.7000;0.1441;-0.2127;
1215.0000;0.1490;-0.1840;
1215.3000;0.1481;-0.1840;
1215.6000;0.1522;-0.1816;
1215.9000;0.1498;-0.1864;
1216.2000;0.1530;-0.1721;
1216.5000;0.1530;-0.1673;
1216.8000;0.1498;-0.1673;
1217.1000;0.1522;-0.1601;
1217.4000;0.1498;-0.1697;
1217.7000;0.1538;-0.1601;
1218.0000;0.1490;-0.1864;
1218.3000;0.1530;-0.1744;
1218.6000;0.1498;-0.1864;
1218.9000;0.1506;-0.1840;
1219.2000;0.1538;-0.1697;
1219.5000;0.1498;-0.1912;
1219.8000;0.1490;-0.2103;
1220.1000;0.1498;-0.2055;
1220.4000;0.1514;-0.1959;
1220.7000;0.1490;-0.2031;
1221.0000;0.1498;-0.1983;
1221.3000;0.1506;-0.1888;
1221.6000;0.1481;-0.1888;
1221.9000;0.1530;-0.1768;
1222.2000;0.1506;-0.1816;
1222.5000;0.1579;-0.1649;
1222.8000;0.1612;-0.1505;
1223.1000;0.1481;-0.1864;
1223.4000;0.1473;-0.1864;
1223.7000;0.1490;-0.1912;
1224.0000;0.1368;-0.2294;
1224.3000;0.1498;-0.1959;
1224.6000;0.1514;-0.1936;
1224.9000;0.1498;-0.1959;
1225.2000;0.1490;-0.2007;
1225.5000;0.1538;-0.1936;
1225.8000;0.1498;-0.2007;
1226.1000;0.1530;-0.1983;
1226.4000;0.1490;-0.1983;
1226.7000;0.1498;-0.1959;
1227.0000;0.1506;-0.2007;
1227.3000;0.1481;-0.2151;
1227.6000;0.1490;-0.1983;
1227.9000;0.1490;-0.2007;
1228.2000;0.1498;-0.1959;
1228.5000;0.1481;-0.1983;
1228.8000;0.1498;-0.1888;
1229.1000;0.1506;-0.1912;
1229.4000;0.1368;-0.2318;
1229.7000;0.1506;-0.1888;
1230.0000;0.1506;-0.1840;
1230.3000;0.1441;-0.2079;
1230.6000;0.1506;-0.1816;
1230.9000;0.1498;-0.1888;
1231.2000;0.1514;-0.1864;
1231.5000;0.1473;-0.1936;
1231.8000;0.1473;-0.1936;
1232.1000;0.1441;-0.1983;
1232.4000;0.1498;-0.1816;
1232.7000;0.1522;-0.1744;
1233.0000;0.1498;-0.1768;
1233.3000;0.1490;-0.1792;
1233.6000;0.1481;-0.1721;
1233.9000;0.1490;-0.1768;
1234.2000;0.1538;-0.1721;
1234.5000;0.1490;-0.1840;
1234.8000;0.1490;-0.1888;
1235.1000;0.1563;-0.1625;
1235.4000;0.1490;-0.1864;
1235.7000;0.1473;-0.1936;
1236.0000;0.1498;-0.1816;
1236.3000;0.1506;-0.1840;
1236.6000;0.1514;-0.1888;
1236.9000;0.1481;-0.1888;
1237.2000;0.1506;-0.1864;
1237.5000;0.1490;-0.1888;
1237.8000;0.1506;-0.1936;
1238.1000;0.1481;-0.2031;
1238.4000;0.1547;-0.1816;
1238.7000;0.1481;-0.2031;
1239.0000;0.1498;-0.1959;
1239.3000;0.1481;-0.1912;
1239.6000;0.1490;-0.1864;
1239.9000;0.1457;-0.1959;
1240.2000;0.1490;-0.1792;
1240.5000;0.1473;-0.1792;
1240.8000;0.1498;-0.1721;
1241.1000;0.1490;-0.1721;
1241.4000;0.1498;-0.1744;
1241.7000;0.1514;-0.1721;
1242.0000;0.1498;-0.1697;
1242.3000;0.1506;-0.1673;
1242.6000;0.1506;-0.1673;
1242.9000;0.1514;-0.1721;
1243.2000;0.1481;-0.1840;
1243.5000;0.1498;-0.1816;
1243.8000;0.1498;-0.1744;
1244.1000;0.1506;-0.1721;
1244.4000;0.1498;-0.1768;
1244.7000;0.1481;-0.1840;
1245.0000;0.1506;-0.1912;
1245.3000;0.1506;-0.1888;
1245.6000;0.1506;-0.1912;
1245.9000;0.1481;-0.1936;
1246.2000;0.1481;-0.1912;
1246.5000;0.1506;-0.1816;
1246.8000;0.1506;-0.1792;
1247.1000;0.1449;-0.1983;
1247.4000;0.1481;-0.1888;
1247.7000;0.1490;-0.1864;
1248.0000;0.1514;-0.1768;
1248.3000;0.1514;-0.1816;
1248.6000;0.1498;-0.1864;
1248.9000;0.1506;-0.1697;
1249.2000;0.1498;-0.1601;
1249.5000;0.1490;-0.1697;
1249.8000;0.1538;-0.1625;
1250.1000;0.1563;-0.1697;
1250.4000;0.1514;-0.1840;
1250.7000;0.1465;-0.1888;
1251.0000;0.1481;-0.1816;
1251.3000;0.1587;-0.1577;
1251.6000;0.1522;-0.1721;
1251.9000;0.1522;-0.1768;
1252.2000;0.1514;-0.1721;
1252.5000;0.1481;-0.1792;
1252.8000;0.1514;-0.1721;
1253.1000;0.1473;-0.1768;
1253.4000;0.1506;-0.1721;
1253.7000;0.1514;-0.1744;
1254.0000;0.1498;-0.1792;
1254.3000;0.1506;-0.1744;
1254.6000;0.1506;-0.1721;
1254.9000;0.1473;-0.1697;
1255.2000;0.1498;-0.1673;
1255.5000;0.1498;-0.1721;
1255.8000;0.1506;-0.1744;
1256.1000;0.1490;-0.1816;
1256.4000;0.1473;-0.1816;
1256.7000;0.1481;-0.1697;
1257.0000;0.1490;-0.1649;
1257.3000;0.1498;-0.1673;
1257.6000;0.1490;-0.1768;
1257.9000;0.1481;-0.1888;
1258.2000;0.1498;-0.1816;
1258.5000;0.1522;-0.1768;
1258.8000;0.1498;-0.1840;
1259.1000;0.1441;-0.1936;
1259.4000;0.1498;-0.1792;
1259.7000;0.1522;-0.1744;
1260.0000;0.1506;-0.1744;
1260.3000;0.1490;-0.1816;
1260.6000;0.1514;-0.1721;
1260.9000;0.1481;-0.1792;
1261.2000;0.1522;-0.1673;
1261.5000;0.1473;-0.1768;
1261.8000;0.1465;-0.1816;
1262.1000;0.1498;-0.1721;
1262.4000;0.1514;-0.1721;
1262.7000;0.1490;-0.1816;
1263.0000;0.1481;-0.1936;
1263.3000;0.1522;-0.1792;
1263.6000;0.1514;-0.1840;
1263.9000;0.1490;-0.1912;
1264.2000;0.1506;-0.1959;
1264.5000;0.1514;-0.1959;
1264.8000;0.1498;-0.2031;
1265.1000;0.1522;-0.1936;
1265.4000;0.1506;-0.1840;
1265.7000;0.1490;-0.1792;
1266.0000;0.1514;-0.1840;
1266.3000;0.1498;-0.1864;
1266.6000;0.1506;-0.1888;
1266.9000;0.1498;-0.1888;
1267.2000;0.1498;-0.1840;
1267.5000;0.1490;-0.1816;
1267.8000;0.1498;-0.1768;
1268.1000;0.1481;-0.1864;
1268.4000;0.1506;-0.1792;
1268.7000;0.1514;-0.1721;
1269.0000;0.1473;-0.1673;
1269.3000;0.1498;-0.1625;
1269.6000;0.1481;-0.1721;
1269.9000;0.1498;-0.1697;
1270.2000;0.1506;-0.1721;
1270.5000;0.1473;-0.1768;
1270.8000;0.1506;-0.1673;
1271.1000;0.1481;-0.1768;
1271.4000;0.1457;-0.1912;
1271.7000;0.1498;-0.1864;
1272.0000;0.1433;-0.2079;
1272.3000;0.1506;-0.1912;
1272.6000;0.1465;-0.2007;
1272.9000;0.1490;-0.1864;
1273.2000;0.1416;-0.2103;
1273.5000;0.1449;-0.2007;
1273.8000;0.1506;-0.1792;
1274.1000;0.1473;-0.1888;
1274.4000;0.1392;-0.2127;
1274.7000;0.1481;-0.1936;
1275.0000;0.1457;-0.1983;
1275.3000;0.1563;-0.1816;
1275.6000;0.1376;-0.2270;
1275.9000;0.1490;-0.1959;
1276.2000;0.1481;-0.1959;
1276.5000;0.1555;-0.1864;
1276.8000;0.1498;-0.2031;
1277.1000;0.1498;-0.1983;
1277.4000;0.1506;-0.1983;
1277.7000;0.1506;-0.1959;
1278.0000;0.1490;-0.2007;
1278.3000;0.1481;-0.2079;
1278.6000;0.1490;-0.2007;
1278.9000;0.1490;-0.1959;
1279.2000;0.1506;-0.1912;
1279.5000;0.1384;-0.2294;
1279.8000;0.1490;-0.1983;
1280.1000;0.1490;-0.1959;
1280.4000;0.1620;-0.1697;
1280.7000;0.1481;-0.1959;
1281.0000;0.1490;-0.2031;
1281.3000;0.1498;-0.2007;
1281.6000;0.1498;-0.1983;
1281.9000;0.1490;-0.1936;
1282.2000;0.1481;-0.1864;
1282.5000;0.1481;-0.1864;
1282.8000;0.1498;-0.1649;
1283.1000;0.1628;-0.1314;
1283.4000;0.1457;-0.1792;
1283.7000;0.1465;-0.1768;
1284.0000;0.1538;-0.1625;
1284.3000;0.1498;-0.1768;
1284.6000;0.1498;-0.1744;
1284.9000;0.1481;-0.1721;
1285.2000;0.1498;-0.1673;
1285.5000;0.1490;-0.1744;
1285.8000;0.1473;-0.1792;
1286.1000;0.1481;-0.1744;
1286.4000;0.1490;-0.1649;
1286.7000;0.1522;-0.1553;
1287.0000;0.1481;-0.1697;
1287.3000;0.1506;-0.1697;
1287.6000;0.1498;-0.1625;
1287.9000;0.1506;-0.1673;
1288.2000;0.1522;-0.1721;
1288.5000;0.1490;-0.1744;
1288.8000;0.1498;-0.1744;
1289.1000;0.1473;-0.1768;
1289.4000;0.1490;-0.1744;
1289.7000;0.1490;-0.1816;
1290.0000;0.1498;-0.1864;
1290.3000;0.1498;-0.1912;
1290.6000;0.1514;-0.1816;
1290.9000;0.1514;-0.1792;
1291.2000;0.1490;-0.1864;
1291.5000;0.1506;-0.1864;
1291.8000;0.1514;-0.1768;
1292.1000;0.1506;-0.1864;
1292.4000;0.1498;-0.1840;
1292.7000;0.1506;-0.1792;
1293.0000;0.1465;-0.1840;
1293.3000;0.1506;-0.1744;
1293.6000;0.1506;-0.1864;
1293.9000;0.1506;-0.1864;
1294.2000;0.1490;-0.1864;
1294.5000;0.1498;-0.1792;
1294.8000;0.1481;-0.1840;
1295.1000;0.1490;-0.1864;
1295.4000;0.1490;-0.1864;
1295.7000;0.1506;-0.1816;
1296.0000;0.1481;-0.1864;
1296.3000;0.1490;-0.1792;
1296.6000;0.1481;-0.1864;
1296.9000;0.1506;-0.1816;
1297.2000;0.1522;-0.1864;
1297.5000;0.1522;-0.1912;
1297.8000;0.1555;-0.1744;
1298.1000;0.1522;-0.1888;
1298.4000;0.1538;-0.1816;
1298.7000;0.1506;-0.1983;
1299.0000;0.1490;-0.2151;
1299.3000;0.1457;-0.2151;
1299.6000;0.1481;-0.2103;
1299.9000;0.1506;-0.2079;
1300.2000;0.1498;-0.2127;
1300.5000;0.1498;-0.2127;
1300.8000;0.1506;-0.2079;
1301.1000;0.1522;-0.2055;
1301.4000;0.1506;-0.2055;
1301.7000;0.1514;-0.2031;
1302.0000;0.1498;-0.2055;
1302.3000;0.1506;-0.2127;
1302.6000;0.1571;-0.1983;
1302.9000;0.1514;-0.2103;
1303.2000;0.1522;-0.1983;
1303.5000;0.1449;-0.2175;
1303.8000;0.1481;-0.2007;
1304.1000;0.1490;-0.2031;
1304.4000;0.1563;-0.1840;
1304.7000;0.1514;-0.1983;
1305.0000;0.1498;-0.2055;
1305.3000;0.1490;-0.2079;
1305.6000;0.1522;-0.2007;
1305.9000;0.1498;-0.2079;
1306.2000;0.1481;-0.2103;
1306.5000;0.1441;-0.2198;
1306.8000;0.1506;-0.2031;
1307.1000;0.1473;-0.1983;
1307.4000;0.1425;-0.2055;
1307.7000;0.1490;-0.1840;
1308.0000;0.1587;-0.1625;
1308.3000;0.1490;-0.1864;
1308.6000;0.1506;-0.1816;
1308.9000;0.1498;-0.1864;
1309.2000;0.1522;-0.1721;
1309.5000;0.1498;-0.1673;
1309.8000;0.1514;-0.1577;
1310.1000;0.1490;-0.1649;
1310.4000;0.1481;-0.1697;
1310.7000;0.1481;-0.1721;
1311.0000;0.1498;-0.1816;
1311.3000;0.1498;-0.1864;
1311.6000;0.1490;-0.1912;
1311.9000;0.1473;-0.1983;
1312.2000;0.1481;-0.1983;
1312.5000;0.1481;-0.2007;
1312.8000;0.1506;-0.1936;
1313.1000;0.1490;-0.1983;
1313.4000;0.1490;-0.1959;
1313.7000;0.1498;-0.1912;
1314.0000;0.1506;-0.1888;
1314.3000;0.1514;-0.1888;
1314.6000;0.1481;-0.1936;
1314.9000;0.1506;-0.1888;
1315.2000;0.1506;-0.1888;
1315.5000;0.1506;-0.1816;
1315.8000;0.1498;-0.1888;
1316.1000;0.1416;-0.2079;
1316.4000;0.1530;-0.1697;
1316.7000;0.1400;-0.2175;
1317.0000;0.1481;-0.1959;
1317.3000;0.1481;-0.1888;
1317.6000;0.1441;-0.1959;
1317.9000;0.1506;-0.1721;
1318.2000;0.1490;-0.1816;
1318.5000;0.1506;-0.1721;
1318.8000;0.1538;-0.1744;
1319.1000;0.1530;-0.1744;
1319.4000;0.1473;-0.1840;
1319.7000;0.1506;-0.1744;
1320.0000;0.1506;-0.1721;
1320.3000;0.1490;-0.1744;
1320.6000;0.1506;-0.1721;
1320.9000;0.1490;-0.1864;
1321.2000;0.1490;-0.1936;
1321.5000;0.1473;-0.1912;
1321.8000;0.1498;-0.1936;
1322.1000;0.1579;-0.1721;
1322.4000;0.1514;-0.1936;
1322.7000;0.1506;-0.1936;
1323.0000;0.1506;-0.1888;
1323.3000;0.1490;-0.1936;
1323.6000;0.1506;-0.1840;
1323.9000;0.1506;-0.1864;
1324.2000;0.1522;-0.1840;
1324.5000;0.1481;-0.1888;
1324.8000;0.1506;-0.1912;
1325.1000;0.1522;-0.1840;
1325.4000;0.1612;-0.1601;
1325.7000;0.1522;-0.1864;
1326.0000;0.1498;-0.1983;
1326.3000;0.1498;-0.1959;
1326.6000;0.1506;-0.1912;
1326.9000;0.1498;-0.1912;
1327.2000;0.1506;-0.1816;
1327.5000;0.1473;-0.1936;
1327.8000;0.1490;-0.1912;
1328.1000;0.1473;-0.1959;
1328.4000;0.1498;-0.1864;
1328.7000;0.1481;-0.1840;
1329.0000;0.1449;-0.1888;
1329.3000;0.1522;-0.1721;
1329.6000;0.1506;-0.1864;
1329.9000;0.1506;-0.1912;
1330.2000;0.1506;-0.1936;
1330.5000;0.1441;-0.2007;
1330.8000;0.1498;-0.1864;
1331.1000;0.1416;-0.2127;
1331.4000;0.1514;-0.1936;
1331.7000;0.1498;-0.1888;
1332.0000;0.1563;-0.1768;
1332.3000;0.1506;-0.1959;
1332.6000;0.1530;-0.1912;
1332.9000;0.1498;-0.1959;
1333.2000;0.1481;-0.2031;
1333.5000;0.1506;-0.1983;
1333.8000;0.1498;-0.1983;
1334.1000;0.1506;-0.1936;
1334.4000;0.1465;-0.2007;
1334.7000;0.1498;-0.1959;
1335.0000;0.1498;-0.1983;
1335.3000;0.1490;-0.2127;
1335.6000;0.1522;-0.2031;
1335.9000;0.1555;-0.1959;
1336.2000;0.1498;-0.2127;
1336.5000;0.1498;-0.2151;
1336.8000;0.1506;-0.2079;
1337.1000;0.1498;-0.2151;
1337.4000;0.1514;-0.2127;
1337.7000;0.1530;-0.1983;
1338.0000;0.1506;-0.2103;
1338.3000;0.1498;-0.2031;
1338.6000;0.1481;-0.2031;
1338.9000;0.1465;-0.2055;
1339.2000;0.1506;-0.2031;
1339.5000;0.1490;-0.2103;
1339.8000;0.1514;-0.2079;
1340.1000;0.1490;-0.2103;
1340.4000;0.1384;-0.2461;
1340.7000;0.1498;-0.2103;
1341.0000;0.1498;-0.2007;
1341.3000;0.1465;-0.2055;
1341.6000;0.1473;-0.2055;
1341.9000;0.1498;-0.1959;
1342.2000;0.1481;-0.2007;
1342.5000;0.1490;-0.2007;
1342.8000;0.1538;-0.1983;
1343.1000;0.1392;-0.2366;
1343.4000;0.1490;-0.2175;
1343.7000;0.1473;-0.2222;
1344.0000;0.1498;-0.2198;
1344.3000;0.1490;-0.2294;
1344.6000;0.1490;-0.2151;
1344.9000;0.1490;-0.2198;
1345.2000;0.1514;-0.2198;
1345.5000;0.1490;-0.2222;
1345.8000;0.1498;-0.2222;
1346.1000;0.1506;-0.2270;
1346.4000;0.1514;-0.2246;
1346.7000;0.1604;-0.2031;
1347.0000;0.1506;-0.2270;
1347.3000;0.1530;-0.2222;
1347.6000;0.1473;-0.2342;
1347.9000;0.1514;-0.2270;
1348.2000;0.1433;-0.2461;
1348.5000;0.1514;-0.2222;
1348.8000;0.1514;-0.2127;
1349.1000;0.1490;-0.2294;
1349.4000;0.1400;-0.2509;
1349.7000;0.1490;-0.2222;
1350.0000;0.1498;-0.2127;
1350.3000;0.1473;-0.2198;
1350.6000;0.1473;-0.2246;
1350.9000;0.1490;-0.2246;
1351.2000;0.1498;-0.2175;
1351.5000;0.1514;-0.2175;
1351.8000;0.1514;-0.2198;
1352.1000;0.1506;-0.2175;
1352.4000;0.1571;-0.1936;
1352.7000;0.1514;-0.2103;
1353.0000;0.1514;-0.1983;
1353.3000;0.1538;-0.1864;
1353.6000;0.1506;-0.1936;
1353.9000;0.1481;-0.1912;
1354.2000;0.1498;-0.2007;
1354.5000;0.1506;-0.2031;
1354.8000;0.1498;-0.2007;
1355.1000;0.1506;-0.1983;
1355.4000;0.1522;-0.1912;
1355.7000;0.1490;-0.1959;
1356.0000;0.1506;-0.1912;
1356.3000;0.1563;-0.1744;
1356.6000;0.1514;-0.1959;
1356.9000;0.1514;-0.1983;
1357.2000;0.1514;-0.1983;
1357.5000;0.1514;-0.2031;
1357.8000;0.1555;-0.1959;
1358.1000;0.1490;-0.2175;
1358.4000;0.1555;-0.1936;
1358.7000;0.1514;-0.2055;
1359.0000;0.1506;-0.2103;
1359.3000;0.1490;-0.2222;
1359.6000;0.1506;-0.2175;
1359.9000;0.1555;-0.2007;
1360.2000;0.1514;-0.2127;
1360.5000;0.1506;-0.2198;
1360.8000;0.1465;-0.2318;
1361.1000;0.1490;-0.2270;
1361.4000;0.1530;-0.2127;
1361.7000;0.1522;-0.2175;
1362.0000;0.1465;-0.2270;
1362.3000;0.1490;-0.2246;
1362.6000;0.1490;-0.2246;
1362.9000;0.1490;-0.2270;
1363.2000;0.1506;-0.2270;
1363.5000;0.1449;-0.2390;
1363.8000;0.1490;-0.2342;
1364.1000;0.1547;-0.2151;
1364.4000;0.1481;-0.2342;
1364.7000;0.1433;-0.2533;
1365.0000;0.1506;-0.2294;
1365.3000;0.1490;-0.2246;
1365.6000;0.1481;-0.2151;
1365.9000;0.1473;-0.2151;
1366.2000;0.1538;-0.2079;
1366.5000;0.1481;-0.2103;
1366.8000;0.1490;-0.2079;
1367.1000;0.1693;-0.1505;
1367.4000;0.1490;-0.2031;
1367.7000;0.1604;-0.1673;
1368.0000;0.1530;-0.1936;
1368.3000;0.1490;-0.2031;
1368.6000;0.1416;-0.2342;
1368.9000;0.1490;-0.2127;
1369.2000;0.1514;-0.2007;
1369.5000;0.1522;-0.1983;
1369.8000;0.1465;-0.2246;
1370.1000;0.1465;-0.2198;
1370.4000;0.1498;-0.2055;
1370.7000;0.1490;-0.2175;
1371.0000;0.1490;-0.2103;
1371.3000;0.1506;-0.2031;
1371.6000;0.1498;-0.2079;
1371.9000;0.1514;-0.2007;
1372.2000;0.1473;-0.2175;
1372.5000;0.1490;-0.2127;
1372.8000;0.1498;-0.2151;
1373.1000;0.1514;-0.2031;
1373.4000;0.1506;-0.2055;
1373.7000;0.1498;-0.2079;
1374.0000;0.1498;-0.2222;
1374.3000;0.1498;-0.2198;
1374.6000;0.1506;-0.2175;
1374.9000;0.1481;-0.2318;
1375.2000;0.1506;-0.2270;
1375.5000;0.1620;-0.1864;
1375.8000;0.1416;-0.2413;
1376.1000;0.1473;-0.2270;
1376.4000;0.1490;-0.2151;
1376.7000;0.1530;-0.2055;
1377.0000;0.1522;-0.2079;
1377.3000;0.1506;-0.2151;
1377.6000;0.1490;-0.2246;
1377.9000;0.1498;-0.2222;
1378.2000;0.1506;-0.2079;
1378.5000;0.1498;-0.2127;
1378.8000;0.1498;-0.2079;
1379.1000;0.1506;-0.2007;
1379.4000;0.1473;-0.2151;
1379.7000;0.1498;-0.2103;
1380.0000;0.1579;-0.1840;
1380.3000;0.1490;-0.1983;
1380.6000;0.1506;-0.1983;
1380.9000;0.1498;-0.2055;
1381.2000;0.1498;-0.2127;
1381.5000;0.1498;-0.2103;
1381.8000;0.1400;-0.2342;
1382.1000;0.1514;-0.2055;
1382.4000;0.1514;-0.2055;
1382.7000;0.1506;-0.2079;
1383.0000;0.1490;-0.2222;
1383.3000;0.1449;-0.2390;
1383.6000;0.1490;-0.2270;
1383.9000;0.1506;-0.2246;
1384.2000;0.1498;-0.2246;
1384.5000;0.1506;-0.2222;
1384.8000;0.1498;-0.2151;
1385.1000;0.1490;-0.2079;
1385.4000;0.1490;-0.2079;
1385.7000;0.1498;-0.2103;
1386.0000;0.1506;-0.1959;
1386.3000;0.1498;-0.1959;
1386.6000;0.1490;-0.2079;
1386.9000;0.1555;-0.1959;
1387.2000;0.1506;-0.2079;
1387.5000;0.1506;-0.1959;
1387.8000;0.1514;-0.2031;
1388.1000;0.1522;-0.1959;
1388.4000;0.1514;-0.2031;
1388.7000;0.1506;-0.2055;
1389.0000;0.1506;-0.2055;
1389.3000;0.1490;-0.2103;
1389.6000;0.1498;-0.2079;
1389.9000;0.1514;-0.2031;
1390.2000;0.1514;-0.2031;
1390.5000;0.1498;-0.2175;
1390.8000;0.1506;-0.2222;
1391.1000;0.1514;-0.2222;
1391.4000;0.1604;-0.1959;
1391.7000;0.1514;-0.2055;
1392.0000;0.1522;-0.2127;
1392.3000;0.1547;-0.2079;
1392.6000;0.1473;-0.2222;
1392.9000;0.1490;-0.2198;
1393.2000;0.1571;-0.2007;
1393.5000;0.1522;-0.2079;
1393.8000;0.1595;-0.1840;
1394.1000;0.1498;-0.2055;
1394.4000;0.1481;-0.2175;
1394.7000;0.1481;-0.2127;
1395.0000;0.1506;-0.2055;
1395.3000;0.1514;-0.2055;
1395.6000;0.1498;-0.2055;
1395.9000;0.1530;-0.1959;
1396.2000;0.1506;-0.2007;
1396.5000;0.1384;-0.2390;
1396.8000;0.1506;-0.1983;
1397.1000;0.1506;-0.2079;
1397.4000;0.1441;-0.2294;
1397.7000;0.1514;-0.2151;
1398.0000;0.1490;-0.2270;
1398.3000;0.1498;-0.2222;
1398.6000;0.1490;-0.2246;
1398.9000;0.1498;-0.2318;
1399.2000;0.1506;-0.2294;
1399.5000;0.1506;-0.2270;
1399.8000;0.1514;-0.2151;
