time/ms;Fluo/V;P700 deltaI/I x10³;
-199.8000;0.4534;0.0669;
-199.5000;0.4550;0.0669;
-199.2000;0.4567;0.0669;
-198.9000;0.4558;0.0718;
-198.6000;0.4542;0.0669;
-198.3000;0.4558;0.0693;
-198.0000;0.4518;0.0570;
-197.7000;0.4558;0.0669;
-197.4000;0.4526;0.0545;
-197.1000;0.4558;0.0693;
-196.8000;0.4567;0.0693;
-196.5000;0.4558;0.0644;
-196.2000;0.4550;0.0594;
-195.9000;0.4575;0.0644;
-195.6000;0.4567;0.0619;
-195.3000;0.4567;0.0619;
-195.0000;0.4558;0.0619;
-194.7000;0.4558;0.0545;
-194.4000;0.4558;0.0570;
-194.1000;0.4542;0.0545;
-193.8000;0.4542;0.0644;
-193.5000;0.4567;0.0619;
-193.2000;0.4567;0.0619;
-192.9000;0.4567;0.0693;
-192.6000;0.4575;0.0693;
-192.3000;0.4567;0.0644;
-192.0000;0.4558;0.0594;
-191.7000;0.4567;0.0594;
-191.4000;0.4558;0.0594;
-191.1000;0.4575;0.0619;
-190.8000;0.4550;0.0545;
-190.5000;0.4558;0.0619;
-190.2000;0.4558;0.0545;
-189.9000;0.4550;0.0520;
-189.6000;0.4624;0.0693;
-189.3000;0.4550;0.0520;
-189.0000;0.4550;0.0619;
-188.7000;0.4550;0.0594;
-188.4000;0.4542;0.0545;
-188.1000;0.4542;0.0594;
-187.8000;0.4558;0.0619;
-187.5000;0.4558;0.0570;
-187.2000;0.4558;0.0470;
-186.9000;0.4542;0.0446;
-186.6000;0.4558;0.0470;
-186.3000;0.4567;0.0520;
-186.0000;0.4558;0.0570;
-185.7000;0.4550;0.0545;
-185.4000;0.4558;0.0570;
-185.1000;0.4567;0.0669;
-184.8000;0.4550;0.0693;
-184.5000;0.4477;0.0520;
-184.2000;0.4558;0.0644;
-183.9000;0.4550;0.0669;
-183.6000;0.4558;0.0644;
-183.3000;0.4558;0.0594;
-183.0000;0.4558;0.0619;
-182.7000;0.4567;0.0619;
-182.4000;0.4550;0.0669;
-182.1000;0.4534;0.0644;
-181.8000;0.4558;0.0669;
-181.5000;0.4526;0.0669;
-181.2000;0.4567;0.0768;
-180.9000;0.4550;0.0718;
-180.6000;0.4542;0.0718;
-180.3000;0.4567;0.0743;
-180.0000;0.4567;0.0718;
-179.7000;0.4558;0.0644;
-179.4000;0.4558;0.0644;
-179.1000;0.4542;0.0570;
-178.8000;0.4567;0.0718;
-178.5000;0.4542;0.0743;
-178.2000;0.4542;0.0743;
-177.9000;0.4550;0.0718;
-177.6000;0.4542;0.0669;
-177.3000;0.4550;0.0594;
-177.0000;0.4558;0.0669;
-176.7000;0.4558;0.0669;
-176.4000;0.4550;0.0669;
-176.1000;0.4558;0.0669;
-175.8000;0.4558;0.0619;
-175.5000;0.4575;0.0693;
-175.2000;0.4558;0.0743;
-174.9000;0.4550;0.0842;
-174.6000;0.4542;0.0817;
-174.3000;0.4567;0.0817;
-174.0000;0.4542;0.0817;
-173.7000;0.4534;0.0792;
-173.4000;0.4542;0.0768;
-173.1000;0.4558;0.0768;
-172.8000;0.4550;0.0743;
-172.5000;0.4526;0.0644;
-172.2000;0.4558;0.0669;
-171.9000;0.4501;0.0570;
-171.6000;0.4558;0.0718;
-171.3000;0.4558;0.0792;
-171.0000;0.4550;0.0867;
-170.7000;0.4567;0.0867;
-170.4000;0.4558;0.0817;
-170.1000;0.4534;0.0768;
-169.8000;0.4558;0.0743;
-169.5000;0.4534;0.0693;
-169.2000;0.4607;0.0891;
-168.9000;0.4542;0.0718;
-168.6000;0.4607;0.0941;
-168.3000;0.4558;0.0792;
-168.0000;0.4575;0.0768;
-167.7000;0.4558;0.0669;
-167.4000;0.4575;0.0718;
-167.1000;0.4567;0.0693;
-166.8000;0.4550;0.0619;
-166.5000;0.4575;0.0718;
-166.2000;0.4558;0.0693;
-165.9000;0.4558;0.0743;
-165.6000;0.4583;0.0792;
-165.3000;0.4567;0.0743;
-165.0000;0.4567;0.0644;
-164.7000;0.4550;0.0644;
-164.4000;0.4615;0.0842;
-164.1000;0.4558;0.0718;
-163.8000;0.4575;0.0768;
-163.5000;0.4550;0.0693;
-163.2000;0.4558;0.0669;
-162.9000;0.4558;0.0545;
-162.6000;0.4558;0.0520;
-162.3000;0.4575;0.0619;
-162.0000;0.4526;0.0594;
-161.7000;0.4558;0.0570;
-161.4000;0.4558;0.0594;
-161.1000;0.4542;0.0570;
-160.8000;0.4567;0.0594;
-160.5000;0.4550;0.0619;
-160.2000;0.4575;0.0817;
-159.9000;0.4558;0.0743;
-159.6000;0.4558;0.0693;
-159.3000;0.4624;0.0891;
-159.0000;0.4575;0.0718;
-158.7000;0.4575;0.0669;
-158.4000;0.4558;0.0619;
-158.1000;0.4567;0.0594;
-157.8000;0.4567;0.0669;
-157.5000;0.4567;0.0669;
-157.2000;0.4550;0.0644;
-156.9000;0.4558;0.0669;
-156.6000;0.4575;0.0768;
-156.3000;0.4575;0.0792;
-156.0000;0.4599;0.0916;
-155.7000;0.4550;0.0842;
-155.4000;0.4550;0.0792;
-155.1000;0.4558;0.0792;
-154.8000;0.4558;0.0718;
-154.5000;0.4575;0.0743;
-154.2000;0.4567;0.0619;
-153.9000;0.4558;0.0594;
-153.6000;0.4567;0.0718;
-153.3000;0.4501;0.0594;
-153.0000;0.4575;0.0792;
-152.7000;0.4583;0.0768;
-152.4000;0.4583;0.0743;
-152.1000;0.4542;0.0594;
-151.8000;0.4542;0.0619;
-151.5000;0.4567;0.0768;
-151.2000;0.4542;0.0644;
-150.9000;0.4558;0.0619;
-150.6000;0.4542;0.0545;
-150.3000;0.4550;0.0594;
-150.0000;0.4558;0.0570;
-149.7000;0.4550;0.0545;
-149.4000;0.4526;0.0570;
-149.1000;0.4550;0.0669;
-148.8000;0.4510;0.0594;
-148.5000;0.4550;0.0718;
-148.2000;0.4550;0.0644;
-147.9000;0.4550;0.0594;
-147.6000;0.4550;0.0644;
-147.3000;0.4542;0.0644;
-147.0000;0.4550;0.0619;
-146.7000;0.4558;0.0594;
-146.4000;0.4567;0.0619;
-146.1000;0.4550;0.0520;
-145.8000;0.4550;0.0520;
-145.5000;0.4550;0.0545;
-145.2000;0.4518;0.0520;
-144.9000;0.4558;0.0545;
-144.6000;0.4542;0.0545;
-144.3000;0.4542;0.0570;
-144.0000;0.4534;0.0495;
-143.7000;0.4542;0.0470;
-143.4000;0.4583;0.0594;
-143.1000;0.4526;0.0470;
-142.8000;0.4583;0.0693;
-142.5000;0.4567;0.0743;
-142.2000;0.4558;0.0768;
-141.9000;0.4534;0.0644;
-141.6000;0.4575;0.0594;
-141.3000;0.4567;0.0619;
-141.0000;0.4550;0.0644;
-140.7000;0.4558;0.0644;
-140.4000;0.4575;0.0594;
-140.1000;0.4558;0.0421;
-139.8000;0.4567;0.0371;
-139.5000;0.4534;0.0223;
-139.2000;0.4550;0.0347;
-138.9000;0.4550;0.0322;
-138.6000;0.4542;0.0272;
-138.3000;0.4558;0.0396;
-138.0000;0.4558;0.0347;
-137.7000;0.4550;0.0322;
-137.4000;0.4558;0.0446;
-137.1000;0.4550;0.0446;
-136.8000;0.4567;0.0520;
-136.5000;0.4575;0.0669;
-136.2000;0.4550;0.0718;
-135.9000;0.4567;0.0718;
-135.6000;0.4550;0.0644;
-135.3000;0.4477;0.0495;
-135.0000;0.4567;0.0743;
-134.7000;0.4567;0.0743;
-134.4000;0.4510;0.0594;
-134.1000;0.4526;0.0619;
-133.8000;0.4558;0.0669;
-133.5000;0.4558;0.0743;
-133.2000;0.4567;0.0693;
-132.9000;0.4567;0.0669;
-132.6000;0.4575;0.0693;
-132.3000;0.4558;0.0594;
-132.0000;0.4558;0.0570;
-131.7000;0.4550;0.0470;
-131.4000;0.4550;0.0520;
-131.1000;0.4567;0.0520;
-130.8000;0.4567;0.0520;
-130.5000;0.4567;0.0446;
-130.2000;0.4567;0.0421;
-129.9000;0.4558;0.0347;
-129.6000;0.4542;0.0322;
-129.3000;0.4558;0.0446;
-129.0000;0.4558;0.0520;
-128.7000;0.4534;0.0446;
-128.4000;0.4542;0.0520;
-128.1000;0.4567;0.0619;
-127.8000;0.4550;0.0594;
-127.5000;0.4518;0.0495;
-127.2000;0.4567;0.0594;
-126.9000;0.4526;0.0520;
-126.6000;0.4558;0.0545;
-126.3000;0.4567;0.0570;
-126.0000;0.4550;0.0570;
-125.7000;0.4550;0.0718;
-125.4000;0.4567;0.0768;
-125.1000;0.4567;0.0693;
-124.8000;0.4550;0.0570;
-124.5000;0.4567;0.0495;
-124.2000;0.4550;0.0421;
-123.9000;0.4542;0.0371;
-123.6000;0.4518;0.0297;
-123.3000;0.4526;0.0347;
-123.0000;0.4526;0.0470;
-122.7000;0.4518;0.0421;
-122.4000;0.4534;0.0495;
-122.1000;0.4542;0.0520;
-121.8000;0.4550;0.0545;
-121.5000;0.4550;0.0545;
-121.2000;0.4558;0.0520;
-120.9000;0.4567;0.0570;
-120.6000;0.4607;0.0718;
-120.3000;0.4558;0.0594;
-120.0000;0.4575;0.0669;
-119.7000;0.4575;0.0644;
-119.4000;0.4567;0.0594;
-119.1000;0.4648;0.0768;
-118.8000;0.4542;0.0570;
-118.5000;0.4542;0.0594;
-118.2000;0.4558;0.0495;
-117.9000;0.4567;0.0545;
-117.6000;0.4607;0.0693;
-117.3000;0.4567;0.0619;
-117.0000;0.4558;0.0619;
-116.7000;0.4550;0.0619;
-116.4000;0.4575;0.0693;
-116.1000;0.4583;0.0768;
-115.8000;0.4607;0.0768;
-115.5000;0.4550;0.0619;
-115.2000;0.4558;0.0743;
-114.9000;0.4567;0.0743;
-114.6000;0.4542;0.0669;
-114.3000;0.4526;0.0718;
-114.0000;0.4567;0.0743;
-113.7000;0.4575;0.0718;
-113.4000;0.4542;0.0619;
-113.1000;0.4550;0.0743;
-112.8000;0.4558;0.0718;
-112.5000;0.4550;0.0594;
-112.2000;0.4558;0.0669;
-111.9000;0.4542;0.0669;
-111.6000;0.4575;0.0768;
-111.3000;0.4534;0.0768;
-111.0000;0.4542;0.0718;
-110.7000;0.4550;0.0718;
-110.4000;0.4542;0.0842;
-110.1000;0.4550;0.0718;
-109.8000;0.4550;0.0743;
-109.5000;0.4567;0.0817;
-109.2000;0.4558;0.0768;
-108.9000;0.4567;0.0743;
-108.6000;0.4567;0.0768;
-108.3000;0.4567;0.0743;
-108.0000;0.4550;0.0693;
-107.7000;0.4575;0.0768;
-107.4000;0.4542;0.0594;
-107.1000;0.4558;0.0644;
-106.8000;0.4550;0.0594;
-106.5000;0.4558;0.0669;
-106.2000;0.4550;0.0619;
-105.9000;0.4550;0.0619;
-105.6000;0.4575;0.0669;
-105.3000;0.4550;0.0619;
-105.0000;0.4567;0.0495;
-104.7000;0.4526;0.0446;
-104.4000;0.4542;0.0570;
-104.1000;0.4542;0.0619;
-103.8000;0.4550;0.0594;
-103.5000;0.4558;0.0520;
-103.2000;0.4558;0.0470;
-102.9000;0.4607;0.0669;
-102.6000;0.4542;0.0495;
-102.3000;0.4640;0.0768;
-102.0000;0.4558;0.0570;
-101.7000;0.4575;0.0644;
-101.4000;0.4558;0.0545;
-101.1000;0.4550;0.0545;
-100.8000;0.4550;0.0470;
-100.5000;0.4575;0.0594;
-100.2000;0.4567;0.0520;
-99.9000;0.4567;0.0520;
-99.6000;0.4534;0.0594;
-99.3000;0.4550;0.0594;
-99.0000;0.4550;0.0594;
-98.7000;0.4567;0.0644;
-98.4000;0.4518;0.0470;
-98.1000;0.4567;0.0545;
-97.8000;0.4558;0.0520;
-97.5000;0.4591;0.0693;
-97.2000;0.4550;0.0570;
-96.9000;0.4567;0.0594;
-96.6000;0.4583;0.0644;
-96.3000;0.4550;0.0545;
-96.0000;0.4542;0.0644;
-95.7000;0.4542;0.0718;
-95.4000;0.4558;0.0718;
-95.1000;0.4493;0.0520;
-94.8000;0.4558;0.0669;
-94.5000;0.4510;0.0520;
-94.2000;0.4542;0.0520;
-93.9000;0.4558;0.0545;
-93.6000;0.4567;0.0545;
-93.3000;0.4567;0.0520;
-93.0000;0.4567;0.0495;
-92.7000;0.4567;0.0446;
-92.4000;0.4542;0.0421;
-92.1000;0.4583;0.0495;
-91.8000;0.4526;0.0371;
-91.5000;0.4542;0.0545;
-91.2000;0.4542;0.0619;
-90.9000;0.4550;0.0669;
-90.6000;0.4558;0.0743;
-90.3000;0.4534;0.0693;
-90.0000;0.4534;0.0644;
-89.7000;0.4550;0.0570;
-89.4000;0.4558;0.0644;
-89.1000;0.4567;0.0693;
-88.8000;0.4550;0.0644;
-88.5000;0.4526;0.0570;
-88.2000;0.4558;0.0594;
-87.9000;0.4558;0.0644;
-87.6000;0.4542;0.0545;
-87.3000;0.4583;0.0570;
-87.0000;0.4575;0.0495;
-86.7000;0.4550;0.0470;
-86.4000;0.4567;0.0421;
-86.1000;0.4542;0.0421;
-85.8000;0.4550;0.0520;
-85.5000;0.4558;0.0520;
-85.2000;0.4501;0.0421;
-84.9000;0.4510;0.0470;
-84.6000;0.4558;0.0594;
-84.3000;0.4534;0.0520;
-84.0000;0.4558;0.0545;
-83.7000;0.4550;0.0520;
-83.4000;0.4510;0.0371;
-83.1000;0.4567;0.0495;
-82.8000;0.4558;0.0495;
-82.5000;0.4550;0.0495;
-82.2000;0.4615;0.0669;
-81.9000;0.4575;0.0545;
-81.6000;0.4583;0.0594;
-81.3000;0.4558;0.0570;
-81.0000;0.4558;0.0570;
-80.7000;0.4607;0.0718;
-80.4000;0.4575;0.0693;
-80.1000;0.4550;0.0693;
-79.8000;0.4550;0.0594;
-79.5000;0.4558;0.0545;
-79.2000;0.4558;0.0446;
-78.9000;0.4624;0.0693;
-78.6000;0.4575;0.0495;
-78.3000;0.4599;0.0520;
-78.0000;0.4558;0.0470;
-77.7000;0.4575;0.0520;
-77.4000;0.4558;0.0470;
-77.1000;0.4567;0.0570;
-76.8000;0.4558;0.0545;
-76.5000;0.4567;0.0495;
-76.2000;0.4550;0.0446;
-75.9000;0.4567;0.0446;
-75.6000;0.4567;0.0421;
-75.3000;0.4575;0.0446;
-75.0000;0.4558;0.0421;
-74.7000;0.4542;0.0371;
-74.4000;0.4550;0.0371;
-74.1000;0.4550;0.0421;
-73.8000;0.4575;0.0495;
-73.5000;0.4567;0.0446;
-73.2000;0.4453;0.0149;
-72.9000;0.4567;0.0470;
-72.6000;0.4558;0.0470;
-72.3000;0.4550;0.0396;
-72.0000;0.4526;0.0272;
-71.7000;0.4583;0.0470;
-71.4000;0.4575;0.0570;
-71.1000;0.4558;0.0545;
-70.8000;0.4567;0.0570;
-70.5000;0.4558;0.0495;
-70.2000;0.4550;0.0520;
-69.9000;0.4567;0.0545;
-69.6000;0.4575;0.0570;
-69.3000;0.4558;0.0545;
-69.0000;0.4607;0.0669;
-68.7000;0.4567;0.0545;
-68.4000;0.4558;0.0545;
-68.1000;0.4542;0.0495;
-67.8000;0.4550;0.0495;
-67.5000;0.4550;0.0594;
-67.2000;0.4558;0.0594;
-66.9000;0.4550;0.0594;
-66.6000;0.4575;0.0594;
-66.3000;0.4550;0.0545;
-66.0000;0.4567;0.0594;
-65.7000;0.4550;0.0619;
-65.4000;0.4558;0.0669;
-65.1000;0.4599;0.0792;
-64.8000;0.4558;0.0669;
-64.5000;0.4526;0.0594;
-64.2000;0.4550;0.0570;
-63.9000;0.4534;0.0520;
-63.6000;0.4550;0.0594;
-63.3000;0.4518;0.0545;
-63.0000;0.4534;0.0545;
-62.7000;0.4567;0.0594;
-62.4000;0.4542;0.0495;
-62.1000;0.4501;0.0446;
-61.8000;0.4542;0.0669;
-61.5000;0.4542;0.0644;
-61.2000;0.4550;0.0644;
-60.9000;0.4599;0.0768;
-60.6000;0.4567;0.0718;
-60.3000;0.4542;0.0570;
-60.0000;0.4575;0.0594;
-59.7000;0.4550;0.0545;
-59.4000;0.4591;0.0570;
-59.1000;0.4550;0.0446;
-58.8000;0.4583;0.0520;
-58.5000;0.4558;0.0470;
-58.2000;0.4558;0.0545;
-57.9000;0.4542;0.0520;
-57.6000;0.4550;0.0545;
-57.3000;0.4575;0.0619;
-57.0000;0.4558;0.0520;
-56.7000;0.4550;0.0545;
-56.4000;0.4550;0.0545;
-56.1000;0.4542;0.0495;
-55.8000;0.4558;0.0495;
-55.5000;0.4567;0.0446;
-55.2000;0.4599;0.0520;
-54.9000;0.4567;0.0396;
-54.6000;0.4558;0.0396;
-54.3000;0.4550;0.0396;
-54.0000;0.4558;0.0446;
-53.7000;0.4558;0.0446;
-53.4000;0.4567;0.0520;
-53.1000;0.4534;0.0371;
-52.8000;0.4534;0.0371;
-52.5000;0.4542;0.0396;
-52.2000;0.4550;0.0446;
-51.9000;0.4534;0.0470;
-51.6000;0.4518;0.0347;
-51.3000;0.4550;0.0495;
-51.0000;0.4567;0.0495;
-50.7000;0.4567;0.0495;
-50.4000;0.4558;0.0520;
-50.1000;0.4550;0.0446;
-49.8000;0.4550;0.0371;
-49.5000;0.4583;0.0446;
-49.2000;0.4575;0.0396;
-48.9000;0.4558;0.0347;
-48.6000;0.4567;0.0371;
-48.3000;0.4567;0.0396;
-48.0000;0.4575;0.0446;
-47.7000;0.4558;0.0446;
-47.4000;0.4558;0.0470;
-47.1000;0.4534;0.0396;
-46.8000;0.4542;0.0470;
-46.5000;0.4542;0.0421;
-46.2000;0.4534;0.0371;
-45.9000;0.4550;0.0396;
-45.6000;0.4558;0.0396;
-45.3000;0.4558;0.0396;
-45.0000;0.4518;0.0297;
-44.7000;0.4518;0.0322;
-44.4000;0.4558;0.0396;
-44.1000;0.4542;0.0396;
-43.8000;0.4599;0.0520;
-43.5000;0.4501;0.0272;
-43.2000;0.4558;0.0470;
-42.9000;0.4558;0.0545;
-42.6000;0.4567;0.0520;
-42.3000;0.4518;0.0371;
-42.0000;0.4550;0.0520;
-41.7000;0.4526;0.0545;
-41.4000;0.4567;0.0594;
-41.1000;0.4550;0.0644;
-40.8000;0.4567;0.0693;
-40.5000;0.4550;0.0619;
-40.2000;0.4550;0.0594;
-39.9000;0.4558;0.0644;
-39.6000;0.4542;0.0594;
-39.3000;0.4575;0.0570;
-39.0000;0.4567;0.0570;
-38.7000;0.4558;0.0545;
-38.4000;0.4550;0.0545;
-38.1000;0.4558;0.0545;
-37.8000;0.4567;0.0594;
-37.5000;0.4648;0.0792;
-37.2000;0.4567;0.0545;
-36.9000;0.4558;0.0520;
-36.6000;0.4558;0.0520;
-36.3000;0.4575;0.0545;
-36.0000;0.4558;0.0495;
-35.7000;0.4518;0.0446;
-35.4000;0.4567;0.0619;
-35.1000;0.4485;0.0446;
-34.8000;0.4518;0.0520;
-34.5000;0.4567;0.0669;
-34.2000;0.4542;0.0594;
-33.9000;0.4558;0.0594;
-33.6000;0.4558;0.0669;
-33.3000;0.4567;0.0619;
-33.0000;0.4575;0.0594;
-32.7000;0.4575;0.0619;
-32.4000;0.4550;0.0545;
-32.1000;0.4567;0.0570;
-31.8000;0.4558;0.0594;
-31.5000;0.4550;0.0594;
-31.2000;0.4542;0.0470;
-30.9000;0.4542;0.0495;
-30.6000;0.4518;0.0446;
-30.3000;0.4550;0.0495;
-30.0000;0.4567;0.0470;
-29.7000;0.4640;0.0768;
-29.4000;0.4558;0.0545;
-29.1000;0.4567;0.0594;
-28.8000;0.4550;0.0619;
-28.5000;0.4583;0.0693;
-28.2000;0.4567;0.0693;
-27.9000;0.4558;0.0669;
-27.6000;0.4575;0.0619;
-27.3000;0.4567;0.0619;
-27.0000;0.4567;0.0619;
-26.7000;0.4550;0.0570;
-26.4000;0.4550;0.0545;
-26.1000;0.4567;0.0693;
-25.8000;0.4567;0.0619;
-25.5000;0.4567;0.0545;
-25.2000;0.4567;0.0570;
-24.9000;0.4558;0.0495;
-24.6000;0.4583;0.0570;
-24.3000;0.4575;0.0545;
-24.0000;0.4558;0.0520;
-23.7000;0.4567;0.0669;
-23.4000;0.4575;0.0669;
-23.1000;0.4575;0.0718;
-22.8000;0.4567;0.0693;
-22.5000;0.4583;0.0768;
-22.2000;0.4550;0.0693;
-21.9000;0.4550;0.0669;
-21.6000;0.4550;0.0693;
-21.3000;0.4550;0.0669;
-21.0000;0.4599;0.0718;
-20.7000;0.4526;0.0594;
-20.4000;0.4550;0.0669;
-20.1000;0.4558;0.0718;
-19.8000;0.4501;0.0495;
-19.5000;0.4526;0.0570;
-19.2000;0.4550;0.0644;
-18.9000;0.4567;0.0718;
-18.6000;0.4567;0.0768;
-18.3000;0.4542;0.0693;
-18.0000;0.4558;0.0743;
-17.7000;0.4558;0.0718;
-17.4000;0.4599;0.0817;
-17.1000;0.4550;0.0619;
-16.8000;0.4558;0.0669;
-16.5000;0.4575;0.0619;
-16.2000;0.4558;0.0570;
-15.9000;0.4567;0.0619;
-15.6000;0.4542;0.0619;
-15.3000;0.4550;0.0594;
-15.0000;0.4501;0.0545;
-14.7000;0.4550;0.0743;
-14.4000;0.4550;0.0743;
-14.1000;0.4558;0.0669;
-13.8000;0.4550;0.0644;
-13.5000;0.4583;0.0594;
-13.2000;0.4567;0.0669;
-12.9000;0.4558;0.0718;
-12.6000;0.4534;0.0619;
-12.3000;0.4542;0.0619;
-12.0000;0.4575;0.0669;
-11.7000;0.4575;0.0669;
-11.4000;0.4567;0.0718;
-11.1000;0.4624;0.0743;
-10.8000;0.4583;0.0619;
-10.5000;0.4558;0.0570;
-10.2000;0.4558;0.0644;
-9.9000;0.4542;0.0594;
-9.6000;0.4558;0.0644;
-9.3000;0.4550;0.0619;
-9.0000;0.4567;0.0619;
-8.7000;0.4542;0.0570;
-8.4000;0.4567;0.0644;
-8.1000;0.4542;0.0594;
-7.8000;0.4575;0.0693;
-7.5000;0.4542;0.0619;
-7.2000;0.4510;0.0470;
-6.9000;0.4567;0.0594;
-6.6000;0.4599;0.0693;
-6.3000;0.4575;0.0594;
-6.0000;0.4550;0.0570;
-5.7000;0.4567;0.0619;
-5.4000;0.4591;0.0693;
-5.1000;0.4542;0.0619;
-4.8000;0.4575;0.0693;
-4.5000;0.4567;0.0644;
-4.2000;0.4558;0.0693;
-3.9000;0.4567;0.0644;
-3.6000;0.4607;0.0817;
-3.3000;0.4526;0.0570;
-3.0000;0.4567;0.0669;
-2.7000;0.4583;0.0718;
-2.4000;0.4550;0.0669;
-2.1000;0.4550;0.0669;
-1.8000;0.4567;0.0718;
-1.5000;0.4575;0.0718;
-1.2000;0.4550;0.0718;
-0.9000;0.4583;0.0817;
-0.6000;0.4558;0.0768;
-0.3000;0.4567;0.0743;
0.0000;0.4567;0.0743;
0.3000;0.4567;0.0743;
0.6000;0.4558;0.0768;
0.9000;0.4599;0.0891;
1.2000;0.4615;0.1040;
1.5000;0.4575;0.1015;
1.8000;0.4591;0.1189;
2.1000;0.4591;0.1213;
2.4000;0.4615;0.1362;
2.7000;0.4583;0.1362;
3.0000;0.4583;0.1461;
3.3000;0.4599;0.1511;
3.6000;0.4591;0.1535;
3.9000;0.4607;0.1486;
4.2000;0.4599;0.1560;
4.5000;0.4599;0.1610;
4.8000;0.4607;0.1634;
5.1000;0.4615;0.1733;
5.4000;0.4615;0.1758;
5.7000;0.4575;0.1659;
6.0000;0.4615;0.1659;
6.3000;0.4615;0.1758;
6.6000;0.4632;0.1758;
6.9000;0.4615;0.1709;
7.2000;0.4632;0.1758;
7.5000;0.4640;0.1758;
7.8000;0.4624;0.1758;
8.1000;0.4599;0.1684;
8.4000;0.4632;0.1783;
8.7000;0.4672;0.1981;
9.0000;0.4624;0.1857;
9.3000;0.4632;0.1907;
9.6000;0.4640;0.1931;
9.9000;0.4664;0.2006;
10.2000;0.4648;0.1981;
10.5000;0.4648;0.2006;
10.8000;0.4640;0.1907;
11.1000;0.4648;0.1907;
11.4000;0.4648;0.1907;
11.7000;0.4640;0.1882;
12.0000;0.4705;0.2055;
12.3000;0.4656;0.1907;
12.6000;0.4689;0.2080;
12.9000;0.4656;0.2006;
13.2000;0.4648;0.2006;
13.5000;0.4640;0.1981;
13.8000;0.4656;0.2055;
14.1000;0.4648;0.2055;
14.4000;0.4656;0.2006;
14.7000;0.4697;0.1981;
15.0000;0.4648;0.1882;
15.3000;0.4681;0.1981;
15.6000;0.4632;0.1907;
15.9000;0.4656;0.2031;
16.2000;0.4697;0.2130;
16.5000;0.4672;0.2055;
16.8000;0.4664;0.2031;
17.1000;0.4640;0.2055;
17.4000;0.4648;0.2130;
17.7000;0.4664;0.2105;
18.0000;0.4664;0.1956;
18.3000;0.4656;0.1882;
18.6000;0.4664;0.1857;
18.9000;0.4656;0.1758;
19.2000;0.4656;0.1783;
19.5000;0.4689;0.1783;
19.8000;0.4664;0.1808;
20.1000;0.4664;0.1832;
20.4000;0.4705;0.2080;
20.7000;0.4664;0.1931;
21.0000;0.4656;0.1907;
21.3000;0.4672;0.1956;
21.6000;0.4664;0.1931;
21.9000;0.4697;0.2031;
22.2000;0.4681;0.1931;
22.5000;0.4705;0.1931;
22.8000;0.4664;0.1907;
23.1000;0.4689;0.1907;
23.4000;0.4656;0.1857;
23.7000;0.4681;0.1832;
24.0000;0.4681;0.1783;
24.3000;0.4697;0.1758;
24.6000;0.4681;0.1733;
24.9000;0.4672;0.1709;
25.2000;0.4672;0.1733;
25.5000;0.4672;0.1832;
25.8000;0.4681;0.1882;
26.1000;0.4681;0.1882;
26.4000;0.4697;0.1882;
26.7000;0.4681;0.1808;
27.0000;0.4681;0.1808;
27.3000;0.4681;0.1857;
27.6000;0.4681;0.1931;
27.9000;0.4656;0.1832;
28.2000;0.4689;0.1956;
28.5000;0.4681;0.1832;
28.8000;0.4615;0.1659;
29.1000;0.4697;0.1857;
29.4000;0.4681;0.1907;
29.7000;0.4689;0.1981;
30.0000;0.4689;0.1882;
30.3000;0.4672;0.1808;
30.6000;0.4689;0.1907;
30.9000;0.4697;0.1882;
31.2000;0.4697;0.1832;
31.5000;0.4697;0.1808;
31.8000;0.4640;0.1610;
32.1000;0.4681;0.1733;
32.4000;0.4705;0.1832;
32.7000;0.4689;0.1832;
33.0000;0.4746;0.1931;
33.3000;0.4713;0.1907;
33.6000;0.4713;0.1832;
33.9000;0.4697;0.1733;
34.2000;0.4697;0.1758;
34.5000;0.4705;0.1783;
34.8000;0.4681;0.1783;
35.1000;0.4664;0.1733;
35.4000;0.4697;0.1684;
35.7000;0.4754;0.1684;
36.0000;0.4713;0.1535;
36.3000;0.4664;0.1511;
36.6000;0.4729;0.1709;
36.9000;0.4681;0.1610;
37.2000;0.4754;0.1733;
37.5000;0.4721;0.1733;
37.8000;0.4689;0.1610;
38.1000;0.4697;0.1634;
38.4000;0.4697;0.1709;
38.7000;0.4689;0.1684;
39.0000;0.4689;0.1684;
39.3000;0.4681;0.1684;
39.6000;0.4672;0.1610;
39.9000;0.4672;0.1709;
40.2000;0.4697;0.1808;
40.5000;0.4713;0.1857;
40.8000;0.4721;0.1832;
41.1000;0.4713;0.1857;
41.4000;0.4697;0.1907;
41.7000;0.4689;0.1956;
42.0000;0.4746;0.2130;
42.3000;0.4713;0.2130;
42.6000;0.4721;0.2105;
42.9000;0.4697;0.2105;
43.2000;0.4681;0.2031;
43.5000;0.4689;0.2055;
43.8000;0.4705;0.2080;
44.1000;0.4689;0.2006;
44.4000;0.4705;0.1981;
44.7000;0.4705;0.1882;
45.0000;0.4713;0.1931;
45.3000;0.4705;0.1857;
45.6000;0.4697;0.1857;
45.9000;0.4705;0.1931;
46.2000;0.4754;0.2031;
46.5000;0.4681;0.1882;
46.8000;0.4664;0.1882;
47.1000;0.4705;0.1956;
47.4000;0.4713;0.1857;
47.7000;0.4721;0.1832;
48.0000;0.4664;0.1684;
48.3000;0.4705;0.1832;
48.6000;0.4713;0.1882;
48.9000;0.4713;0.1882;
49.2000;0.4697;0.1882;
49.5000;0.4697;0.1931;
49.8000;0.4705;0.1931;
50.1000;0.4721;0.1981;
50.4000;0.4721;0.1931;
50.7000;0.4705;0.1907;
51.0000;0.4762;0.2105;
51.3000;0.4713;0.1981;
51.6000;0.4746;0.2031;
51.9000;0.4705;0.1931;
52.2000;0.4713;0.1907;
52.5000;0.4737;0.2031;
52.8000;0.4705;0.1981;
53.1000;0.4697;0.2055;
53.4000;0.4697;0.2006;
53.7000;0.4705;0.1931;
54.0000;0.4721;0.1981;
54.3000;0.4713;0.1907;
54.6000;0.4721;0.1882;
54.9000;0.4721;0.1882;
55.2000;0.4729;0.1956;
55.5000;0.4713;0.1956;
55.8000;0.4697;0.1956;
56.1000;0.4713;0.1981;
56.4000;0.4689;0.1981;
56.7000;0.4697;0.1981;
57.0000;0.4729;0.2055;
57.3000;0.4697;0.2080;
57.6000;0.4697;0.2105;
57.9000;0.4697;0.2130;
58.2000;0.4697;0.2080;
58.5000;0.4681;0.1956;
58.8000;0.4705;0.2006;
59.1000;0.4729;0.2031;
59.4000;0.4705;0.2080;
59.7000;0.4705;0.2031;
60.0000;0.4737;0.2130;
60.3000;0.4713;0.2080;
60.6000;0.4713;0.2080;
60.9000;0.4721;0.2179;
61.2000;0.4697;0.2130;
61.5000;0.4697;0.2031;
61.8000;0.4713;0.2080;
62.1000;0.4713;0.2105;
62.4000;0.4681;0.2080;
62.7000;0.4729;0.2080;
63.0000;0.4656;0.1931;
63.3000;0.4729;0.2105;
63.6000;0.4754;0.2105;
63.9000;0.4721;0.1931;
64.2000;0.4729;0.2055;
64.5000;0.4713;0.1981;
64.8000;0.4721;0.2031;
65.1000;0.4697;0.1981;
65.4000;0.4697;0.2006;
65.7000;0.4713;0.1981;
66.0000;0.4729;0.2080;
66.3000;0.4713;0.1981;
66.6000;0.4713;0.2055;
66.9000;0.4713;0.2080;
67.2000;0.4729;0.2055;
67.5000;0.4713;0.1907;
67.8000;0.4713;0.1857;
68.1000;0.4713;0.1907;
68.4000;0.4681;0.1783;
68.7000;0.4705;0.1931;
69.0000;0.4713;0.1882;
69.3000;0.4713;0.1832;
69.6000;0.4729;0.1857;
69.9000;0.4705;0.1857;
70.2000;0.4754;0.2006;
70.5000;0.4729;0.1931;
70.8000;0.4713;0.1857;
71.1000;0.4729;0.1882;
71.4000;0.4697;0.1808;
71.7000;0.4737;0.1981;
72.0000;0.4729;0.2055;
72.3000;0.4713;0.2080;
72.6000;0.4737;0.2154;
72.9000;0.4721;0.2105;
73.2000;0.4746;0.2179;
73.5000;0.4729;0.2080;
73.8000;0.4713;0.1956;
74.1000;0.4664;0.1783;
74.4000;0.4713;0.1832;
74.7000;0.4713;0.1808;
75.0000;0.4729;0.1758;
75.3000;0.4705;0.1684;
75.6000;0.4721;0.1684;
75.9000;0.4737;0.1758;
76.2000;0.4713;0.1783;
76.5000;0.4729;0.1808;
76.8000;0.4721;0.1733;
77.1000;0.4721;0.1783;
77.4000;0.4713;0.1733;
77.7000;0.4729;0.1758;
78.0000;0.4705;0.1783;
78.3000;0.4721;0.1808;
78.6000;0.4689;0.1832;
78.9000;0.4705;0.1808;
79.2000;0.4721;0.1808;
79.5000;0.4713;0.1758;
79.8000;0.4721;0.1758;
80.1000;0.4713;0.1709;
80.4000;0.4697;0.1659;
80.7000;0.4721;0.1808;
81.0000;0.4762;0.1956;
81.3000;0.4729;0.1857;
81.6000;0.4721;0.1931;
81.9000;0.4705;0.1882;
82.2000;0.4737;0.1981;
82.5000;0.4729;0.1931;
82.8000;0.4737;0.1882;
83.1000;0.4713;0.1832;
83.4000;0.4737;0.1783;
83.7000;0.4729;0.1758;
84.0000;0.4705;0.1783;
84.3000;0.4721;0.1808;
84.6000;0.4697;0.1709;
84.9000;0.4713;0.1709;
85.2000;0.4713;0.1733;
85.5000;0.4697;0.1684;
85.8000;0.4713;0.1783;
86.1000;0.4721;0.1733;
86.4000;0.4713;0.1808;
86.7000;0.4746;0.1907;
87.0000;0.4615;0.1560;
87.3000;0.4697;0.1783;
87.6000;0.4729;0.1931;
87.9000;0.4697;0.1882;
88.2000;0.4697;0.1857;
88.5000;0.4697;0.1931;
88.8000;0.4697;0.1882;
89.1000;0.4705;0.1808;
89.4000;0.4648;0.1709;
89.7000;0.4681;0.1832;
90.0000;0.4705;0.1882;
90.3000;0.4713;0.1956;
90.6000;0.4713;0.1931;
90.9000;0.4729;0.1931;
91.2000;0.4697;0.1956;
91.5000;0.4737;0.1981;
91.8000;0.4729;0.1981;
92.1000;0.4721;0.1857;
92.4000;0.4713;0.1857;
92.7000;0.4689;0.1832;
93.0000;0.4721;0.1857;
93.3000;0.4705;0.1857;
93.6000;0.4721;0.1882;
93.9000;0.4672;0.1758;
94.2000;0.4713;0.1857;
94.5000;0.4713;0.1832;
94.8000;0.4705;0.1882;
95.1000;0.4689;0.1931;
95.4000;0.4737;0.2055;
95.7000;0.4705;0.2031;
96.0000;0.4689;0.1981;
96.3000;0.4737;0.2055;
96.6000;0.4713;0.2031;
96.9000;0.4705;0.1981;
97.2000;0.4697;0.1882;
97.5000;0.4697;0.1808;
97.8000;0.4713;0.1832;
98.1000;0.4746;0.1882;
98.4000;0.4705;0.1758;
98.7000;0.4697;0.1882;
99.0000;0.4721;0.1931;
99.3000;0.4672;0.1882;
99.6000;0.4697;0.1956;
99.9000;0.4681;0.1857;
100.2000;0.4689;0.1907;
100.5000;0.4705;0.1956;
100.8000;0.4713;0.1981;
101.1000;0.4713;0.1981;
101.4000;0.4721;0.1882;
101.7000;0.4689;0.1857;
102.0000;0.4705;0.1931;
102.3000;0.4721;0.1931;
102.6000;0.4713;0.1931;
102.9000;0.4721;0.1931;
103.2000;0.4729;0.2055;
103.5000;0.4721;0.2080;
103.8000;0.4697;0.1907;
104.1000;0.4624;0.1684;
104.4000;0.4721;0.1981;
104.7000;0.4721;0.1981;
105.0000;0.4721;0.2031;
105.3000;0.4713;0.2031;
105.6000;0.4729;0.2080;
105.9000;0.4746;0.2154;
106.2000;0.4721;0.2031;
106.5000;0.4729;0.2031;
106.8000;0.4721;0.1981;
107.1000;0.4689;0.1907;
107.4000;0.4737;0.2080;
107.7000;0.4705;0.1956;
108.0000;0.4713;0.1931;
108.3000;0.4689;0.1907;
108.6000;0.4713;0.1931;
108.9000;0.4705;0.2055;
109.2000;0.4689;0.1981;
109.5000;0.4713;0.2031;
109.8000;0.4713;0.2006;
110.1000;0.4713;0.2031;
110.4000;0.4697;0.2006;
110.7000;0.4762;0.2055;
111.0000;0.4705;0.1931;
111.3000;0.4713;0.1956;
111.6000;0.4729;0.2006;
111.9000;0.4705;0.2055;
112.2000;0.4713;0.2105;
112.5000;0.4689;0.2055;
112.8000;0.4713;0.2031;
113.1000;0.4697;0.1956;
113.4000;0.4762;0.2154;
113.7000;0.4746;0.2154;
114.0000;0.4697;0.2105;
114.3000;0.4705;0.2154;
114.6000;0.4705;0.2253;
114.9000;0.4713;0.2278;
115.2000;0.4705;0.2179;
115.5000;0.4697;0.2080;
115.8000;0.4729;0.2204;
116.1000;0.4721;0.2105;
116.4000;0.4697;0.2179;
116.7000;0.4664;0.2055;
117.0000;0.4705;0.2130;
117.3000;0.4721;0.2130;
117.6000;0.4762;0.2278;
117.9000;0.4697;0.2130;
118.2000;0.4721;0.2253;
118.5000;0.4689;0.2080;
118.8000;0.4721;0.2154;
119.1000;0.4713;0.2130;
119.4000;0.4713;0.2204;
119.7000;0.4713;0.2229;
120.0000;0.4713;0.2179;
120.3000;0.4705;0.2080;
120.6000;0.4705;0.1981;
120.9000;0.4713;0.2006;
121.2000;0.4737;0.1981;
121.5000;0.4672;0.1808;
121.8000;0.4713;0.2006;
122.1000;0.4705;0.1981;
122.4000;0.4705;0.1931;
122.7000;0.4705;0.1907;
123.0000;0.4705;0.1882;
123.3000;0.4721;0.1931;
123.6000;0.4705;0.1882;
123.9000;0.4721;0.1931;
124.2000;0.4689;0.1857;
124.5000;0.4648;0.1709;
124.8000;0.4729;0.1931;
125.1000;0.4754;0.1981;
125.4000;0.4713;0.1931;
125.7000;0.4721;0.1956;
126.0000;0.4713;0.1907;
126.3000;0.4729;0.1882;
126.6000;0.4729;0.1857;
126.9000;0.4713;0.1832;
127.2000;0.4705;0.1882;
127.5000;0.4713;0.2006;
127.8000;0.4713;0.2031;
128.1000;0.4721;0.2080;
128.4000;0.4705;0.2080;
128.7000;0.4664;0.1956;
129.0000;0.4713;0.2080;
129.3000;0.4697;0.1956;
129.6000;0.4705;0.1956;
129.9000;0.4721;0.2006;
130.2000;0.4737;0.2055;
130.5000;0.4721;0.2080;
130.8000;0.4737;0.2130;
131.1000;0.4705;0.1981;
131.4000;0.4681;0.1907;
131.7000;0.4689;0.1907;
132.0000;0.4737;0.1956;
132.3000;0.4721;0.1882;
132.6000;0.4697;0.1783;
132.9000;0.4705;0.1832;
133.2000;0.4811;0.2080;
133.5000;0.4664;0.1684;
133.8000;0.4713;0.1907;
134.1000;0.4705;0.1956;
134.4000;0.4721;0.1882;
134.7000;0.4713;0.1783;
135.0000;0.4713;0.1808;
135.3000;0.4729;0.1832;
135.6000;0.4721;0.1808;
135.9000;0.4737;0.1857;
136.2000;0.4713;0.1882;
136.5000;0.4681;0.1733;
136.8000;0.4713;0.1857;
137.1000;0.4705;0.1832;
137.4000;0.4681;0.1709;
137.7000;0.4705;0.1857;
138.0000;0.4689;0.1832;
138.3000;0.4705;0.1907;
138.6000;0.4713;0.2055;
138.9000;0.4713;0.2080;
139.2000;0.4713;0.1981;
139.5000;0.4713;0.1907;
139.8000;0.4681;0.1907;
140.1000;0.4697;0.1956;
140.4000;0.4713;0.2031;
140.7000;0.4721;0.2031;
141.0000;0.4721;0.1931;
141.3000;0.4713;0.1882;
141.6000;0.4713;0.1882;
141.9000;0.4705;0.1907;
142.2000;0.4705;0.1931;
142.5000;0.4705;0.1882;
142.8000;0.4713;0.1907;
143.1000;0.4705;0.1907;
143.4000;0.4697;0.1832;
143.7000;0.4721;0.1882;
144.0000;0.4705;0.1857;
144.3000;0.4705;0.1783;
144.6000;0.4729;0.1882;
144.9000;0.4697;0.1857;
145.2000;0.4697;0.1907;
145.5000;0.4713;0.1931;
145.8000;0.4713;0.1956;
146.1000;0.4713;0.1882;
146.4000;0.4721;0.1907;
146.7000;0.4713;0.1882;
147.0000;0.4615;0.1659;
147.3000;0.4705;0.1931;
147.6000;0.4689;0.1832;
147.9000;0.4713;0.1907;
148.2000;0.4721;0.1931;
148.5000;0.4737;0.1931;
148.8000;0.4689;0.1808;
149.1000;0.4713;0.1857;
149.4000;0.4697;0.1758;
149.7000;0.4705;0.1857;
150.0000;0.4689;0.1783;
150.3000;0.4713;0.1783;
150.6000;0.4721;0.1783;
150.9000;0.4697;0.1733;
151.2000;0.4737;0.1857;
151.5000;0.4705;0.1758;
151.8000;0.4689;0.1733;
152.1000;0.4713;0.1758;
152.4000;0.4729;0.1783;
152.7000;0.4713;0.1610;
153.0000;0.4697;0.1634;
153.3000;0.4746;0.1733;
153.6000;0.4721;0.1684;
153.9000;0.4721;0.1709;
154.2000;0.4713;0.1709;
154.5000;0.4713;0.1808;
154.8000;0.4713;0.1882;
155.1000;0.4721;0.1832;
155.4000;0.4705;0.1857;
155.7000;0.4729;0.1931;
156.0000;0.4746;0.1956;
156.3000;0.4681;0.1783;
156.6000;0.4705;0.1733;
156.9000;0.4664;0.1535;
157.2000;0.4778;0.1783;
157.5000;0.4721;0.1659;
157.8000;0.4697;0.1684;
158.1000;0.4721;0.1832;
158.4000;0.4697;0.1758;
158.7000;0.4713;0.1783;
159.0000;0.4664;0.1684;
159.3000;0.4705;0.1733;
159.6000;0.4697;0.1733;
159.9000;0.4705;0.1709;
160.2000;0.4705;0.1684;
160.5000;0.4697;0.1684;
160.8000;0.4689;0.1634;
161.1000;0.4689;0.1733;
161.4000;0.4697;0.1758;
161.7000;0.4697;0.1733;
162.0000;0.4689;0.1610;
162.3000;0.4705;0.1659;
162.6000;0.4729;0.1684;
162.9000;0.4705;0.1659;
163.2000;0.4697;0.1585;
163.5000;0.4713;0.1659;
163.8000;0.4713;0.1684;
164.1000;0.4713;0.1733;
164.4000;0.4721;0.1733;
164.7000;0.4713;0.1709;
165.0000;0.4721;0.1733;
165.3000;0.4721;0.1709;
165.6000;0.4705;0.1684;
165.9000;0.4713;0.1684;
166.2000;0.4721;0.1634;
166.5000;0.4721;0.1610;
166.8000;0.4713;0.1511;
167.1000;0.4713;0.1511;
167.4000;0.4705;0.1560;
167.7000;0.4729;0.1659;
168.0000;0.4721;0.1610;
168.3000;0.4713;0.1560;
168.6000;0.4794;0.1882;
168.9000;0.4770;0.1857;
169.2000;0.4721;0.1684;
169.5000;0.4729;0.1733;
169.8000;0.4713;0.1783;
170.1000;0.4713;0.1857;
170.4000;0.4713;0.1832;
170.7000;0.4705;0.1733;
171.0000;0.4697;0.1709;
171.3000;0.4713;0.1684;
171.6000;0.4721;0.1659;
171.9000;0.4705;0.1585;
172.2000;0.4697;0.1560;
172.5000;0.4689;0.1411;
172.8000;0.4705;0.1511;
173.1000;0.4672;0.1511;
173.4000;0.4705;0.1511;
173.7000;0.4689;0.1511;
174.0000;0.4689;0.1560;
174.3000;0.4705;0.1684;
174.6000;0.4705;0.1709;
174.9000;0.4697;0.1783;
175.2000;0.4681;0.1758;
175.5000;0.4721;0.1931;
175.8000;0.4721;0.2006;
176.1000;0.4697;0.1956;
176.4000;0.4697;0.1981;
176.7000;0.4689;0.1956;
177.0000;0.4697;0.1931;
177.3000;0.4697;0.1832;
177.6000;0.4697;0.1758;
177.9000;0.4713;0.1907;
178.2000;0.4705;0.1931;
178.5000;0.4713;0.1857;
178.8000;0.4705;0.1783;
179.1000;0.4737;0.1733;
179.4000;0.4713;0.1684;
179.7000;0.4705;0.1634;
180.0000;0.4737;0.1857;
180.3000;0.4713;0.1808;
180.6000;0.4729;0.1857;
180.9000;0.4721;0.1808;
181.2000;0.4721;0.1808;
181.5000;0.4697;0.1832;
181.8000;0.4689;0.1783;
182.1000;0.4697;0.1758;
182.4000;0.4705;0.1709;
182.7000;0.4697;0.1610;
183.0000;0.4689;0.1585;
183.3000;0.4697;0.1511;
183.6000;0.4681;0.1461;
183.9000;0.4689;0.1511;
184.2000;0.4689;0.1411;
184.5000;0.4713;0.1486;
184.8000;0.4713;0.1486;
185.1000;0.4713;0.1560;
185.4000;0.4705;0.1511;
185.7000;0.4705;0.1511;
186.0000;0.4705;0.1461;
186.3000;0.4705;0.1511;
186.6000;0.4697;0.1387;
186.9000;0.4705;0.1486;
187.2000;0.4713;0.1511;
187.5000;0.4705;0.1511;
187.8000;0.4689;0.1634;
188.1000;0.4713;0.1585;
188.4000;0.4713;0.1511;
188.7000;0.4713;0.1486;
189.0000;0.4705;0.1511;
189.3000;0.4705;0.1411;
189.6000;0.4729;0.1511;
189.9000;0.4705;0.1486;
190.2000;0.4689;0.1436;
190.5000;0.4697;0.1436;
190.8000;0.4746;0.1486;
191.1000;0.4746;0.1511;
191.4000;0.4705;0.1411;
191.7000;0.4656;0.1362;
192.0000;0.4697;0.1511;
192.3000;0.4697;0.1535;
192.6000;0.4713;0.1535;
192.9000;0.4689;0.1535;
193.2000;0.4705;0.1535;
193.5000;0.4697;0.1486;
193.8000;0.4713;0.1511;
194.1000;0.4648;0.1461;
194.4000;0.4681;0.1634;
194.7000;0.4697;0.1709;
195.0000;0.4689;0.1733;
195.3000;0.4689;0.1733;
195.6000;0.4721;0.1808;
195.9000;0.4697;0.1783;
196.2000;0.4713;0.1907;
196.5000;0.4713;0.2006;
196.8000;0.4697;0.1981;
197.1000;0.4689;0.1956;
197.4000;0.4697;0.1931;
197.7000;0.4713;0.1882;
198.0000;0.4697;0.1783;
198.3000;0.4689;0.1733;
198.6000;0.4656;0.1610;
198.9000;0.4705;0.1733;
199.2000;0.4721;0.1758;
199.5000;0.4697;0.1684;
199.8000;0.4705;0.1634;
200.1000;0.4697;0.1634;
200.4000;0.4721;0.1610;
200.7000;0.4713;0.1560;
201.0000;0.4664;0.1436;
201.3000;0.4705;0.1684;
201.6000;0.4705;0.1709;
201.9000;0.4705;0.1634;
202.2000;0.4705;0.1659;
202.5000;0.4656;0.1511;
202.8000;0.4713;0.1733;
203.1000;0.4754;0.1808;
203.4000;0.4705;0.1733;
203.7000;0.4705;0.1659;
204.0000;0.4681;0.1585;
204.3000;0.4672;0.1610;
204.6000;0.4689;0.1560;
204.9000;0.4713;0.1634;
205.2000;0.4681;0.1535;
205.5000;0.4721;0.1684;
205.8000;0.4705;0.1733;
206.1000;0.4681;0.1709;
206.4000;0.4762;0.1907;
206.7000;0.4705;0.1783;
207.0000;0.4672;0.1808;
207.3000;0.4713;0.1832;
207.6000;0.4697;0.1832;
207.9000;0.4689;0.1684;
208.2000;0.4697;0.1659;
208.5000;0.4697;0.1486;
208.8000;0.4689;0.1486;
209.1000;0.4705;0.1610;
209.4000;0.4624;0.1511;
209.7000;0.4689;0.1733;
210.0000;0.4689;0.1783;
210.3000;0.4721;0.1882;
210.6000;0.4762;0.2031;
210.9000;0.4697;0.1907;
211.2000;0.4705;0.1857;
211.5000;0.4681;0.1882;
211.8000;0.4705;0.1981;
212.1000;0.4729;0.1956;
212.4000;0.4697;0.1857;
212.7000;0.4713;0.1857;
213.0000;0.4721;0.1857;
213.3000;0.4705;0.1758;
213.6000;0.4705;0.1783;
213.9000;0.4697;0.1758;
214.2000;0.4705;0.1634;
214.5000;0.4713;0.1659;
214.8000;0.4737;0.1783;
215.1000;0.4713;0.1758;
215.4000;0.4705;0.1758;
215.7000;0.4803;0.2006;
216.0000;0.4713;0.1659;
216.3000;0.4689;0.1585;
216.6000;0.4689;0.1560;
216.9000;0.4664;0.1585;
217.2000;0.4689;0.1758;
217.5000;0.4681;0.1733;
217.8000;0.4697;0.1758;
218.1000;0.4705;0.1758;
218.4000;0.4713;0.1808;
218.7000;0.4705;0.1783;
219.0000;0.4697;0.1808;
219.3000;0.4746;0.2006;
219.6000;0.4689;0.1832;
219.9000;0.4689;0.1783;
220.2000;0.4672;0.1733;
220.5000;0.4697;0.1659;
220.8000;0.4681;0.1758;
221.1000;0.4705;0.1758;
221.4000;0.4681;0.1709;
221.7000;0.4697;0.1733;
222.0000;0.4689;0.1733;
222.3000;0.4705;0.1808;
222.6000;0.4664;0.1709;
222.9000;0.4648;0.1659;
223.2000;0.4705;0.1783;
223.5000;0.4705;0.1758;
223.8000;0.4705;0.1783;
224.1000;0.4697;0.1882;
224.4000;0.4713;0.1956;
224.7000;0.4721;0.2006;
225.0000;0.4713;0.2006;
225.3000;0.4786;0.2204;
225.6000;0.4689;0.1981;
225.9000;0.4705;0.1931;
226.2000;0.4713;0.1981;
226.5000;0.4681;0.1956;
226.8000;0.4672;0.1931;
227.1000;0.4607;0.1709;
227.4000;0.4697;0.1832;
227.7000;0.4713;0.1783;
228.0000;0.4689;0.1733;
228.3000;0.4689;0.1808;
228.6000;0.4705;0.1857;
228.9000;0.4705;0.1857;
229.2000;0.4689;0.1907;
229.5000;0.4697;0.2055;
229.8000;0.4713;0.2031;
230.1000;0.4705;0.2006;
230.4000;0.4697;0.1956;
230.7000;0.4697;0.1931;
231.0000;0.4705;0.1907;
231.3000;0.4705;0.1808;
231.6000;0.4697;0.1907;
231.9000;0.4689;0.1882;
232.2000;0.4681;0.1907;
232.5000;0.4746;0.1981;
232.8000;0.4705;0.1832;
233.1000;0.4689;0.1758;
233.4000;0.4664;0.1733;
233.7000;0.4713;0.1733;
234.0000;0.4737;0.1783;
234.3000;0.4697;0.1610;
234.6000;0.4713;0.1560;
234.9000;0.4713;0.1610;
235.2000;0.4697;0.1659;
235.5000;0.4681;0.1684;
235.8000;0.4681;0.1783;
236.1000;0.4697;0.1783;
236.4000;0.4672;0.1758;
236.7000;0.4624;0.1560;
237.0000;0.4697;0.1758;
237.3000;0.4697;0.1659;
237.6000;0.4697;0.1709;
237.9000;0.4705;0.1733;
238.2000;0.4697;0.1659;
238.5000;0.4689;0.1733;
238.8000;0.4729;0.1832;
239.1000;0.4705;0.1709;
239.4000;0.4697;0.1709;
239.7000;0.4697;0.1659;
240.0000;0.4705;0.1610;
240.3000;0.4721;0.1684;
240.6000;0.4697;0.1733;
240.9000;0.4697;0.1659;
241.2000;0.4689;0.1610;
241.5000;0.4689;0.1634;
241.8000;0.4681;0.1560;
242.1000;0.4681;0.1610;
242.4000;0.4689;0.1585;
242.7000;0.4672;0.1535;
243.0000;0.4689;0.1634;
243.3000;0.4762;0.1956;
243.6000;0.4689;0.1758;
243.9000;0.4737;0.1832;
244.2000;0.4672;0.1659;
244.5000;0.4689;0.1610;
244.8000;0.4624;0.1486;
245.1000;0.4713;0.1709;
245.4000;0.4705;0.1709;
245.7000;0.4705;0.1684;
246.0000;0.4705;0.1709;
246.3000;0.4689;0.1733;
246.6000;0.4713;0.1733;
246.9000;0.4705;0.1709;
247.2000;0.4648;0.1684;
247.5000;0.4713;0.1758;
247.8000;0.4697;0.1709;
248.1000;0.4656;0.1610;
248.4000;0.4672;0.1634;
248.7000;0.4689;0.1659;
249.0000;0.4681;0.1659;
249.3000;0.4729;0.1832;
249.6000;0.4689;0.1733;
249.9000;0.4681;0.1634;
250.2000;0.4664;0.1535;
250.5000;0.4697;0.1659;
250.8000;0.4705;0.1535;
251.1000;0.4713;0.1560;
251.4000;0.4697;0.1511;
251.7000;0.4705;0.1411;
252.0000;0.4656;0.1288;
252.3000;0.4713;0.1387;
252.6000;0.4721;0.1560;
252.9000;0.4672;0.1486;
253.2000;0.4681;0.1535;
253.5000;0.4705;0.1610;
253.8000;0.4721;0.1634;
254.1000;0.4737;0.1461;
254.4000;0.4697;0.1362;
254.7000;0.4681;0.1461;
255.0000;0.4697;0.1560;
255.3000;0.4697;0.1634;
255.6000;0.4689;0.1560;
255.9000;0.4689;0.1486;
256.2000;0.4705;0.1560;
256.5000;0.4697;0.1560;
256.8000;0.4697;0.1535;
257.1000;0.4721;0.1610;
257.4000;0.4705;0.1585;
257.7000;0.4697;0.1535;
258.0000;0.4770;0.1585;
258.3000;0.4697;0.1461;
258.6000;0.4713;0.1461;
258.9000;0.4648;0.1312;
259.2000;0.4705;0.1461;
259.5000;0.4697;0.1560;
259.8000;0.4697;0.1659;
260.1000;0.4689;0.1684;
260.4000;0.4681;0.1659;
260.7000;0.4705;0.1659;
261.0000;0.4713;0.1733;
261.3000;0.4681;0.1758;
261.6000;0.4697;0.1783;
261.9000;0.4705;0.1758;
262.2000;0.4705;0.1634;
262.5000;0.4713;0.1733;
262.8000;0.4689;0.1758;
263.1000;0.4705;0.1733;
263.4000;0.4672;0.1610;
263.7000;0.4754;0.1783;
264.0000;0.4689;0.1634;
264.3000;0.4713;0.1684;
264.6000;0.4648;0.1511;
264.9000;0.4697;0.1709;
265.2000;0.4672;0.1634;
265.5000;0.4689;0.1684;
265.8000;0.4705;0.1659;
266.1000;0.4697;0.1585;
266.4000;0.4697;0.1511;
266.7000;0.4705;0.1560;
267.0000;0.4697;0.1610;
267.3000;0.4713;0.1560;
267.6000;0.4713;0.1585;
267.9000;0.4705;0.1560;
268.2000;0.4713;0.1585;
268.5000;0.4721;0.1659;
268.8000;0.4697;0.1610;
269.1000;0.4681;0.1610;
269.4000;0.4689;0.1634;
269.7000;0.4689;0.1659;
270.0000;0.4705;0.1758;
270.3000;0.4672;0.1610;
270.6000;0.4705;0.1634;
270.9000;0.4713;0.1610;
271.2000;0.4697;0.1634;
271.5000;0.4689;0.1535;
271.8000;0.4689;0.1560;
272.1000;0.4672;0.1535;
272.4000;0.4705;0.1684;
272.7000;0.4713;0.1758;
273.0000;0.4705;0.1808;
273.3000;0.4689;0.1808;
273.6000;0.4721;0.1857;
273.9000;0.4705;0.1832;
274.2000;0.4713;0.1832;
274.5000;0.4737;0.1882;
274.8000;0.4705;0.1808;
275.1000;0.4770;0.1981;
275.4000;0.4689;0.1808;
275.7000;0.4697;0.1783;
276.0000;0.4705;0.1832;
276.3000;0.4713;0.1882;
276.6000;0.4713;0.1808;
276.9000;0.4689;0.1832;
277.2000;0.4697;0.1857;
277.5000;0.4689;0.1808;
277.8000;0.4689;0.1758;
278.1000;0.4672;0.1659;
278.4000;0.4697;0.1783;
278.7000;0.4705;0.1783;
279.0000;0.4689;0.1758;
279.3000;0.4689;0.1832;
279.6000;0.4681;0.1857;
279.9000;0.4681;0.1882;
280.2000;0.4697;0.1956;
280.5000;0.4705;0.2031;
280.8000;0.4681;0.1907;
281.1000;0.4664;0.1783;
281.4000;0.4681;0.1758;
281.7000;0.4681;0.1684;
282.0000;0.4681;0.1733;
282.3000;0.4689;0.1832;
282.6000;0.4689;0.1857;
282.9000;0.4681;0.1907;
283.2000;0.4681;0.1857;
283.5000;0.4697;0.1907;
283.8000;0.4697;0.2006;
284.1000;0.4713;0.2006;
284.4000;0.4705;0.2031;
284.7000;0.4681;0.1981;
285.0000;0.4632;0.1808;
285.3000;0.4672;0.1857;
285.6000;0.4746;0.1931;
285.9000;0.4697;0.1758;
286.2000;0.4689;0.1684;
286.5000;0.4697;0.1659;
286.8000;0.4705;0.1684;
287.1000;0.4681;0.1684;
287.4000;0.4786;0.1981;
287.7000;0.4681;0.1733;
288.0000;0.4689;0.1733;
288.3000;0.4697;0.1684;
288.6000;0.4697;0.1733;
288.9000;0.4681;0.1733;
289.2000;0.4697;0.1733;
289.5000;0.4689;0.1808;
289.8000;0.4681;0.1808;
290.1000;0.4681;0.1832;
290.4000;0.4721;0.1981;
290.7000;0.4689;0.1981;
291.0000;0.4689;0.1931;
291.3000;0.4697;0.1882;
291.6000;0.4689;0.1832;
291.9000;0.4689;0.1857;
292.2000;0.4672;0.1857;
292.5000;0.4672;0.1882;
292.8000;0.4689;0.1907;
293.1000;0.4697;0.1882;
293.4000;0.4713;0.1882;
293.7000;0.4672;0.1808;
294.0000;0.4697;0.1832;
294.3000;0.4697;0.1808;
294.6000;0.4721;0.1783;
294.9000;0.4697;0.1684;
295.2000;0.4713;0.1808;
295.5000;0.4689;0.1832;
295.8000;0.4705;0.1758;
296.1000;0.4729;0.1857;
296.4000;0.4713;0.1857;
296.7000;0.4697;0.1783;
297.0000;0.4762;0.1882;
297.3000;0.4697;0.1684;
297.6000;0.4697;0.1659;
297.9000;0.4689;0.1733;
298.2000;0.4713;0.1882;
298.5000;0.4713;0.1857;
298.8000;0.4681;0.1808;
299.1000;0.4689;0.1857;
299.4000;0.4721;0.1956;
299.7000;0.4697;0.1956;
300.0000;0.4705;0.1907;
300.3000;0.4721;0.1956;
300.6000;0.4672;0.1907;
300.9000;0.4721;0.1981;
301.2000;0.4697;0.1907;
301.5000;0.4697;0.1956;
301.8000;0.4672;0.1956;
302.1000;0.4746;0.2031;
302.4000;0.4713;0.1981;
302.7000;0.4672;0.1857;
303.0000;0.4681;0.1857;
303.3000;0.4705;0.1882;
303.6000;0.4681;0.1758;
303.9000;0.4672;0.1733;
304.2000;0.4689;0.1758;
304.5000;0.4689;0.1709;
304.8000;0.4672;0.1610;
305.1000;0.4689;0.1634;
305.4000;0.4681;0.1634;
305.7000;0.4681;0.1659;
306.0000;0.4672;0.1634;
306.3000;0.4697;0.1758;
306.6000;0.4689;0.1808;
306.9000;0.4697;0.1808;
307.2000;0.4681;0.1733;
307.5000;0.4681;0.1684;
307.8000;0.4705;0.1585;
308.1000;0.4689;0.1535;
308.4000;0.4689;0.1560;
308.7000;0.4697;0.1659;
309.0000;0.4681;0.1634;
309.3000;0.4689;0.1634;
309.6000;0.4689;0.1634;
309.9000;0.4689;0.1634;
310.2000;0.4697;0.1659;
310.5000;0.4689;0.1758;
310.8000;0.4640;0.1634;
311.1000;0.4697;0.1832;
311.4000;0.4697;0.1783;
311.7000;0.4664;0.1634;
312.0000;0.4672;0.1610;
312.3000;0.4664;0.1610;
312.6000;0.4681;0.1733;
312.9000;0.4697;0.1684;
313.2000;0.4648;0.1585;
313.5000;0.4746;0.1907;
313.8000;0.4689;0.1783;
314.1000;0.4672;0.1709;
314.4000;0.4705;0.1684;
314.7000;0.4681;0.1585;
315.0000;0.4681;0.1634;
315.3000;0.4705;0.1733;
315.6000;0.4672;0.1634;
315.9000;0.4689;0.1659;
316.2000;0.4689;0.1684;
316.5000;0.4689;0.1733;
316.8000;0.4681;0.1709;
317.1000;0.4672;0.1585;
317.4000;0.4664;0.1610;
317.7000;0.4681;0.1634;
318.0000;0.4697;0.1733;
318.3000;0.4672;0.1684;
318.6000;0.4681;0.1709;
318.9000;0.4689;0.1709;
319.2000;0.4689;0.1758;
319.5000;0.4681;0.1758;
319.8000;0.4681;0.1709;
320.1000;0.4754;0.1832;
320.4000;0.4689;0.1684;
320.7000;0.4681;0.1733;
321.0000;0.4689;0.1634;
321.3000;0.4697;0.1634;
321.6000;0.4705;0.1659;
321.9000;0.4697;0.1535;
322.2000;0.4721;0.1560;
322.5000;0.4689;0.1511;
322.8000;0.4681;0.1511;
323.1000;0.4705;0.1634;
323.4000;0.4672;0.1610;
323.7000;0.4689;0.1634;
324.0000;0.4689;0.1684;
324.3000;0.4697;0.1709;
324.6000;0.4672;0.1659;
324.9000;0.4656;0.1610;
325.2000;0.4689;0.1709;
325.5000;0.4672;0.1659;
325.8000;0.4681;0.1733;
326.1000;0.4681;0.1684;
326.4000;0.4681;0.1610;
326.7000;0.4697;0.1634;
327.0000;0.4681;0.1659;
327.3000;0.4689;0.1783;
327.6000;0.4681;0.1783;
327.9000;0.4729;0.1907;
328.2000;0.4689;0.1733;
328.5000;0.4681;0.1709;
328.8000;0.4697;0.1783;
329.1000;0.4754;0.1956;
329.4000;0.4697;0.1808;
329.7000;0.4672;0.1684;
330.0000;0.4681;0.1709;
330.3000;0.4681;0.1634;
330.6000;0.4689;0.1709;
330.9000;0.4697;0.1634;
331.2000;0.4689;0.1634;
331.5000;0.4681;0.1560;
331.8000;0.4689;0.1560;
332.1000;0.4697;0.1610;
332.4000;0.4689;0.1511;
332.7000;0.4697;0.1560;
333.0000;0.4697;0.1709;
333.3000;0.4713;0.1709;
333.6000;0.4713;0.1684;
333.9000;0.4689;0.1659;
334.2000;0.4697;0.1659;
334.5000;0.4697;0.1733;
334.8000;0.4697;0.1684;
335.1000;0.4672;0.1659;
335.4000;0.4697;0.1659;
335.7000;0.4624;0.1585;
336.0000;0.4672;0.1783;
336.3000;0.4681;0.1808;
336.6000;0.4632;0.1733;
336.9000;0.4689;0.1907;
337.2000;0.4607;0.1758;
337.5000;0.4697;0.2006;
337.8000;0.4672;0.2055;
338.1000;0.4681;0.2179;
338.4000;0.4697;0.2204;
338.7000;0.4681;0.2055;
339.0000;0.4681;0.1981;
339.3000;0.4672;0.1981;
339.6000;0.4697;0.1907;
339.9000;0.4697;0.1832;
340.2000;0.4672;0.1684;
340.5000;0.4697;0.1709;
340.8000;0.4681;0.1709;
341.1000;0.4729;0.1808;
341.4000;0.4697;0.1659;
341.7000;0.4697;0.1709;
342.0000;0.4689;0.1733;
342.3000;0.4656;0.1709;
342.6000;0.4713;0.1808;
342.9000;0.4705;0.1758;
343.2000;0.4697;0.1758;
343.5000;0.4705;0.1783;
343.8000;0.4689;0.1733;
344.1000;0.4705;0.1684;
344.4000;0.4705;0.1684;
344.7000;0.4697;0.1709;
345.0000;0.4689;0.1659;
345.3000;0.4778;0.1907;
345.6000;0.4689;0.1733;
345.9000;0.4689;0.1733;
346.2000;0.4721;0.1832;
346.5000;0.4681;0.1684;
346.8000;0.4681;0.1709;
347.1000;0.4705;0.1783;
347.4000;0.4681;0.1758;
347.7000;0.4689;0.1857;
348.0000;0.4689;0.1907;
348.3000;0.4681;0.1907;
348.6000;0.4689;0.1882;
348.9000;0.4705;0.1931;
349.2000;0.4672;0.1808;
349.5000;0.4713;0.1882;
349.8000;0.4672;0.1832;
350.1000;0.4664;0.1832;
350.4000;0.4664;0.1956;
350.7000;0.4672;0.1857;
351.0000;0.4681;0.1857;
351.3000;0.4689;0.1882;
351.6000;0.4681;0.1857;
351.9000;0.4681;0.1832;
352.2000;0.4672;0.1857;
352.5000;0.4729;0.1981;
352.8000;0.4681;0.1931;
353.1000;0.4664;0.1907;
353.4000;0.4672;0.1882;
353.7000;0.4681;0.1907;
354.0000;0.4681;0.1882;
354.3000;0.4681;0.1882;
354.6000;0.4672;0.1907;
354.9000;0.4689;0.1907;
355.2000;0.4689;0.1931;
355.5000;0.4672;0.1832;
355.8000;0.4681;0.1857;
356.1000;0.4697;0.1783;
356.4000;0.4713;0.1808;
356.7000;0.4697;0.1808;
357.0000;0.4705;0.1832;
357.3000;0.4681;0.1709;
357.6000;0.4672;0.1733;
357.9000;0.4689;0.1610;
358.2000;0.4681;0.1684;
358.5000;0.4705;0.1758;
358.8000;0.4681;0.1709;
359.1000;0.4689;0.1783;
359.4000;0.4656;0.1659;
359.7000;0.4648;0.1585;
360.0000;0.4689;0.1709;
360.3000;0.4697;0.1709;
360.6000;0.4705;0.1758;
360.9000;0.4648;0.1560;
361.2000;0.4705;0.1659;
361.5000;0.4672;0.1511;
361.8000;0.4681;0.1436;
362.1000;0.4689;0.1486;
362.4000;0.4681;0.1511;
362.7000;0.4689;0.1486;
363.0000;0.4697;0.1486;
363.3000;0.4713;0.1610;
363.6000;0.4681;0.1585;
363.9000;0.4672;0.1511;
364.2000;0.4681;0.1610;
364.5000;0.4664;0.1585;
364.8000;0.4689;0.1659;
365.1000;0.4705;0.1684;
365.4000;0.4681;0.1585;
365.7000;0.4705;0.1535;
366.0000;0.4681;0.1511;
366.3000;0.4664;0.1461;
366.6000;0.4689;0.1610;
366.9000;0.4697;0.1659;
367.2000;0.4746;0.1783;
367.5000;0.4697;0.1783;
367.8000;0.4705;0.1857;
368.1000;0.4664;0.1882;
368.4000;0.4721;0.2031;
368.7000;0.4697;0.1981;
369.0000;0.4681;0.2031;
369.3000;0.4656;0.1956;
369.6000;0.4697;0.2055;
369.9000;0.4713;0.2179;
370.2000;0.4672;0.2105;
370.5000;0.4648;0.2031;
370.8000;0.4762;0.2278;
371.1000;0.4697;0.2080;
371.4000;0.4705;0.2006;
371.7000;0.4778;0.2179;
372.0000;0.4681;0.1931;
372.3000;0.4672;0.1907;
372.6000;0.4664;0.1857;
372.9000;0.4681;0.1857;
373.2000;0.4697;0.1882;
373.5000;0.4681;0.1808;
373.8000;0.4672;0.1783;
374.1000;0.4681;0.1783;
374.4000;0.4672;0.1808;
374.7000;0.4697;0.1857;
375.0000;0.4681;0.1783;
375.3000;0.4689;0.1783;
375.6000;0.4689;0.1857;
375.9000;0.4689;0.1832;
376.2000;0.4664;0.1733;
376.5000;0.4681;0.1684;
376.8000;0.4689;0.1709;
377.1000;0.4689;0.1684;
377.4000;0.4697;0.1709;
377.7000;0.4681;0.1610;
378.0000;0.4689;0.1585;
378.3000;0.4681;0.1610;
378.6000;0.4689;0.1709;
378.9000;0.4664;0.1659;
379.2000;0.4697;0.1733;
379.5000;0.4681;0.1758;
379.8000;0.4648;0.1634;
380.1000;0.4689;0.1709;
380.4000;0.4697;0.1758;
380.7000;0.4697;0.1709;
381.0000;0.4754;0.1808;
381.3000;0.4681;0.1659;
381.6000;0.4705;0.1733;
381.9000;0.4681;0.1758;
382.2000;0.4697;0.1857;
382.5000;0.4689;0.1882;
382.8000;0.4697;0.1907;
383.1000;0.4689;0.1931;
383.4000;0.4697;0.2006;
383.7000;0.4681;0.1931;
384.0000;0.4689;0.1956;
384.3000;0.4656;0.1981;
384.6000;0.4681;0.2006;
384.9000;0.4648;0.1882;
385.2000;0.4664;0.2031;
385.5000;0.4672;0.1956;
385.8000;0.4664;0.1981;
386.1000;0.4689;0.1931;
386.4000;0.4681;0.1857;
386.7000;0.4746;0.2031;
387.0000;0.4672;0.1857;
387.3000;0.4689;0.1907;
387.6000;0.4689;0.1907;
387.9000;0.4664;0.1808;
388.2000;0.4689;0.1808;
388.5000;0.4672;0.1832;
388.8000;0.4672;0.1882;
389.1000;0.4689;0.1931;
389.4000;0.4672;0.1981;
389.7000;0.4664;0.1882;
390.0000;0.4705;0.2031;
390.3000;0.4786;0.2179;
390.6000;0.4664;0.1882;
390.9000;0.4705;0.1981;
391.2000;0.4713;0.2055;
391.5000;0.4705;0.2055;
391.8000;0.4681;0.2105;
392.1000;0.4713;0.2130;
392.4000;0.4681;0.2055;
392.7000;0.4705;0.2055;
393.0000;0.4689;0.1956;
393.3000;0.4664;0.1956;
393.6000;0.4689;0.1931;
393.9000;0.4689;0.1981;
394.2000;0.4664;0.1956;
394.5000;0.4681;0.1907;
394.8000;0.4681;0.1931;
395.1000;0.4689;0.2055;
395.4000;0.4672;0.1981;
395.7000;0.4664;0.1956;
396.0000;0.4656;0.1808;
396.3000;0.4672;0.1857;
396.6000;0.4672;0.1832;
396.9000;0.4664;0.1783;
397.2000;0.4664;0.1857;
397.5000;0.4615;0.1783;
397.8000;0.4664;0.1931;
398.1000;0.4648;0.1758;
398.4000;0.4681;0.1857;
398.7000;0.4681;0.1733;
399.0000;0.4664;0.1659;
399.3000;0.4681;0.1733;
399.6000;0.4705;0.1857;
399.9000;0.4689;0.1808;
400.2000;0.4689;0.1857;
400.5000;0.4697;0.1758;
400.8000;0.4697;0.1758;
401.1000;0.4681;0.1659;
401.4000;0.4681;0.1634;
401.7000;0.4689;0.1684;
402.0000;0.4656;0.1610;
402.3000;0.4681;0.1758;
402.6000;0.4689;0.1758;
402.9000;0.4713;0.1832;
403.2000;0.4681;0.1758;
403.5000;0.4681;0.1783;
403.8000;0.4681;0.1758;
404.1000;0.4689;0.1758;
404.4000;0.4664;0.1684;
404.7000;0.4648;0.1634;
405.0000;0.4689;0.1758;
405.3000;0.4770;0.1931;
405.6000;0.4697;0.1684;
405.9000;0.4689;0.1733;
406.2000;0.4697;0.1709;
406.5000;0.4681;0.1684;
406.8000;0.4689;0.1709;
407.1000;0.4697;0.1758;
407.4000;0.4656;0.1659;
407.7000;0.4656;0.1684;
408.0000;0.4640;0.1733;
408.3000;0.4681;0.1832;
408.6000;0.4656;0.1808;
408.9000;0.4664;0.1857;
409.2000;0.4672;0.1882;
409.5000;0.4672;0.1808;
409.8000;0.4689;0.1783;
410.1000;0.4689;0.1783;
410.4000;0.4648;0.1783;
410.7000;0.4672;0.1808;
411.0000;0.4681;0.1857;
411.3000;0.4672;0.1956;
411.6000;0.4681;0.1981;
411.9000;0.4729;0.2105;
412.2000;0.4672;0.1956;
412.5000;0.4672;0.1931;
412.8000;0.4664;0.1857;
413.1000;0.4672;0.2006;
413.4000;0.4664;0.2031;
413.7000;0.4664;0.1832;
414.0000;0.4705;0.1832;
414.3000;0.4689;0.1832;
414.6000;0.4705;0.1931;
414.9000;0.4615;0.1709;
415.2000;0.4697;0.1931;
415.5000;0.4664;0.1882;
415.8000;0.4762;0.2179;
416.1000;0.4689;0.1981;
416.4000;0.4648;0.1832;
416.7000;0.4697;0.2006;
417.0000;0.4640;0.1882;
417.3000;0.4689;0.1956;
417.6000;0.4640;0.1783;
417.9000;0.4672;0.1832;
418.2000;0.4681;0.1808;
418.5000;0.4697;0.1808;
418.8000;0.4729;0.1907;
419.1000;0.4697;0.1857;
419.4000;0.4705;0.1832;
419.7000;0.4689;0.1783;
420.0000;0.4754;0.1981;
420.3000;0.4689;0.1758;
420.6000;0.4705;0.1832;
420.9000;0.4697;0.1808;
421.2000;0.4681;0.1857;
421.5000;0.4648;0.1758;
421.8000;0.4689;0.1832;
422.1000;0.4689;0.1882;
422.4000;0.4681;0.1931;
422.7000;0.4672;0.1882;
423.0000;0.4689;0.1931;
423.3000;0.4681;0.2006;
423.6000;0.4664;0.1931;
423.9000;0.4672;0.1882;
424.2000;0.4672;0.1882;
424.5000;0.4681;0.1832;
424.8000;0.4672;0.1783;
425.1000;0.4681;0.1733;
425.4000;0.4689;0.1733;
425.7000;0.4656;0.1610;
426.0000;0.4681;0.1808;
426.3000;0.4689;0.1882;
426.6000;0.4664;0.1857;
426.9000;0.4697;0.1931;
427.2000;0.4689;0.1882;
427.5000;0.4689;0.1956;
427.8000;0.4713;0.1981;
428.1000;0.4681;0.1808;
428.4000;0.4705;0.1808;
428.7000;0.4681;0.1733;
429.0000;0.4681;0.1733;
429.3000;0.4648;0.1659;
429.6000;0.4681;0.1857;
429.9000;0.4697;0.1808;
430.2000;0.4681;0.1808;
430.5000;0.4689;0.1882;
430.8000;0.4681;0.1808;
431.1000;0.4672;0.1733;
431.4000;0.4681;0.1832;
431.7000;0.4689;0.1832;
432.0000;0.4689;0.1857;
432.3000;0.4681;0.1882;
432.6000;0.4689;0.1857;
432.9000;0.4681;0.1832;
433.2000;0.4681;0.1907;
433.5000;0.4656;0.1808;
433.8000;0.4672;0.1907;
434.1000;0.4681;0.1931;
434.4000;0.4697;0.2006;
434.7000;0.4672;0.1882;
435.0000;0.4672;0.1956;
435.3000;0.4681;0.1981;
435.6000;0.4681;0.2006;
435.9000;0.4689;0.2055;
436.2000;0.4681;0.2031;
436.5000;0.4672;0.2006;
436.8000;0.4705;0.2031;
437.1000;0.4632;0.1783;
437.4000;0.4697;0.1832;
437.7000;0.4681;0.1783;
438.0000;0.4664;0.1709;
438.3000;0.4689;0.1857;
438.6000;0.4697;0.1882;
438.9000;0.4664;0.1956;
439.2000;0.4713;0.2080;
439.5000;0.4664;0.1907;
439.8000;0.4713;0.1956;
440.1000;0.4664;0.1783;
440.4000;0.4705;0.1808;
440.7000;0.4681;0.1808;
441.0000;0.4705;0.1808;
441.3000;0.4672;0.1832;
441.6000;0.4713;0.1931;
441.9000;0.4681;0.1907;
442.2000;0.4672;0.1956;
442.5000;0.4746;0.2055;
442.8000;0.4681;0.1907;
443.1000;0.4689;0.1981;
443.4000;0.4697;0.2006;
443.7000;0.4672;0.1981;
444.0000;0.4681;0.2031;
444.3000;0.4681;0.1931;
444.6000;0.4672;0.1882;
444.9000;0.4681;0.1857;
445.2000;0.4681;0.1882;
445.5000;0.4615;0.1733;
445.8000;0.4681;0.1733;
446.1000;0.4656;0.1684;
446.4000;0.4672;0.1783;
446.7000;0.4681;0.1758;
447.0000;0.4689;0.1709;
447.3000;0.4672;0.1758;
447.6000;0.4689;0.1832;
447.9000;0.4681;0.1832;
448.2000;0.4664;0.1733;
448.5000;0.4689;0.1783;
448.8000;0.4681;0.1882;
449.1000;0.4672;0.1956;
449.4000;0.4705;0.2080;
449.7000;0.4672;0.2055;
450.0000;0.4697;0.2080;
450.3000;0.4689;0.1981;
450.6000;0.4672;0.1857;
450.9000;0.4681;0.1857;
451.2000;0.4681;0.1758;
451.5000;0.4689;0.1709;
451.8000;0.4664;0.1659;
452.1000;0.4672;0.1634;
452.4000;0.4664;0.1634;
452.7000;0.4648;0.1634;
453.0000;0.4656;0.1684;
453.3000;0.4681;0.1733;
453.6000;0.4672;0.1659;
453.9000;0.4664;0.1585;
454.2000;0.4632;0.1461;
454.5000;0.4681;0.1560;
454.8000;0.4689;0.1684;
455.1000;0.4672;0.1684;
455.4000;0.4672;0.1758;
455.7000;0.4624;0.1684;
456.0000;0.4681;0.1857;
456.3000;0.4721;0.1956;
456.6000;0.4681;0.1783;
456.9000;0.4689;0.1882;
457.2000;0.4689;0.1931;
457.5000;0.4681;0.1882;
457.8000;0.4672;0.1832;
458.1000;0.4681;0.1857;
458.4000;0.4681;0.1907;
458.7000;0.4664;0.1882;
459.0000;0.4697;0.1981;
459.3000;0.4672;0.1956;
459.6000;0.4672;0.2006;
459.9000;0.4689;0.2031;
460.2000;0.4664;0.1907;
460.5000;0.4689;0.1981;
460.8000;0.4672;0.1907;
461.1000;0.4664;0.1907;
461.4000;0.4672;0.1882;
461.7000;0.4778;0.2105;
462.0000;0.4664;0.1758;
462.3000;0.4729;0.1907;
462.6000;0.4681;0.1733;
462.9000;0.4681;0.1733;
463.2000;0.4705;0.1684;
463.5000;0.4672;0.1634;
463.8000;0.4640;0.1585;
464.1000;0.4591;0.1535;
464.4000;0.4664;0.1783;
464.7000;0.4656;0.1709;
465.0000;0.4705;0.1758;
465.3000;0.4591;0.1486;
465.6000;0.4656;0.1758;
465.9000;0.4672;0.1709;
466.2000;0.4713;0.1808;
466.5000;0.4672;0.1758;
466.8000;0.4681;0.1758;
467.1000;0.4672;0.1709;
467.4000;0.4640;0.1585;
467.7000;0.4689;0.1733;
468.0000;0.4681;0.1610;
468.3000;0.4672;0.1610;
468.6000;0.4672;0.1634;
468.9000;0.4672;0.1560;
469.2000;0.4681;0.1511;
469.5000;0.4689;0.1486;
469.8000;0.4689;0.1511;
470.1000;0.4689;0.1511;
470.4000;0.4632;0.1387;
470.7000;0.4672;0.1511;
471.0000;0.4672;0.1560;
471.3000;0.4697;0.1585;
471.6000;0.4697;0.1486;
471.9000;0.4697;0.1486;
472.2000;0.4689;0.1511;
472.5000;0.4689;0.1511;
472.8000;0.4689;0.1461;
473.1000;0.4681;0.1511;
473.4000;0.4681;0.1535;
473.7000;0.4689;0.1511;
474.0000;0.4689;0.1585;
474.3000;0.4697;0.1610;
474.6000;0.4697;0.1684;
474.9000;0.4672;0.1634;
475.2000;0.4664;0.1610;
475.5000;0.4672;0.1684;
475.8000;0.4681;0.1610;
476.1000;0.4656;0.1461;
476.4000;0.4656;0.1535;
476.7000;0.4664;0.1560;
477.0000;0.4664;0.1486;
477.3000;0.4656;0.1535;
477.6000;0.4672;0.1585;
477.9000;0.4656;0.1560;
478.2000;0.4672;0.1535;
478.5000;0.4615;0.1461;
478.8000;0.4672;0.1560;
479.1000;0.4664;0.1486;
479.4000;0.4672;0.1585;
479.7000;0.4664;0.1486;
480.0000;0.4681;0.1486;
480.3000;0.4681;0.1486;
480.6000;0.4681;0.1560;
480.9000;0.4664;0.1486;
481.2000;0.4656;0.1486;
481.5000;0.4664;0.1535;
481.8000;0.4672;0.1634;
482.1000;0.4664;0.1684;
482.4000;0.4664;0.1634;
482.7000;0.4656;0.1634;
483.0000;0.4672;0.1733;
483.3000;0.4664;0.1832;
483.6000;0.4681;0.1857;
483.9000;0.4656;0.1882;
484.2000;0.4681;0.1907;
484.5000;0.4672;0.1733;
484.8000;0.4681;0.1758;
485.1000;0.4672;0.1733;
485.4000;0.4672;0.1808;
485.7000;0.4689;0.1758;
486.0000;0.4672;0.1733;
486.3000;0.4672;0.1733;
486.6000;0.4681;0.1709;
486.9000;0.4689;0.1758;
487.2000;0.4640;0.1560;
487.5000;0.4664;0.1634;
487.8000;0.4681;0.1585;
488.1000;0.4746;0.1709;
488.4000;0.4689;0.1585;
488.7000;0.4664;0.1585;
489.0000;0.4648;0.1486;
489.3000;0.4640;0.1535;
489.6000;0.4672;0.1560;
489.9000;0.4689;0.1610;
490.2000;0.4664;0.1535;
490.5000;0.4648;0.1535;
490.8000;0.4681;0.1560;
491.1000;0.4689;0.1486;
491.4000;0.4607;0.1288;
491.7000;0.4664;0.1511;
492.0000;0.4672;0.1585;
492.3000;0.4681;0.1610;
492.6000;0.4705;0.1684;
492.9000;0.4664;0.1659;
493.2000;0.4705;0.1783;
493.5000;0.4591;0.1436;
493.8000;0.4697;0.1733;
494.1000;0.4664;0.1684;
494.4000;0.4664;0.1634;
494.7000;0.4689;0.1733;
495.0000;0.4697;0.1808;
495.3000;0.4664;0.1733;
495.6000;0.4689;0.1709;
495.9000;0.4672;0.1634;
496.2000;0.4689;0.1684;
496.5000;0.4689;0.1709;
496.8000;0.4664;0.1684;
497.1000;0.4648;0.1634;
497.4000;0.4664;0.1684;
497.7000;0.4681;0.1709;
498.0000;0.4672;0.1709;
498.3000;0.4689;0.1709;
498.6000;0.4681;0.1709;
498.9000;0.4689;0.1709;
499.2000;0.4713;0.1857;
499.5000;0.4672;0.1783;
499.8000;0.4656;0.1684;
500.1000;0.4689;0.1733;
500.4000;0.4664;0.1857;
500.7000;0.4664;0.1857;
501.0000;0.4672;0.1907;
501.3000;0.4656;0.1857;
501.6000;0.4632;0.1808;
501.9000;0.4672;0.1882;
502.2000;0.4729;0.2080;
502.5000;0.4689;0.1981;
502.8000;0.4672;0.1956;
503.1000;0.4672;0.1931;
503.4000;0.4656;0.1882;
503.7000;0.4648;0.1857;
504.0000;0.4681;0.1907;
504.3000;0.4664;0.1832;
504.6000;0.4648;0.1832;
504.9000;0.4672;0.1882;
505.2000;0.4664;0.1907;
505.5000;0.4672;0.1882;
505.8000;0.4681;0.1956;
506.1000;0.4640;0.1758;
506.4000;0.4664;0.1832;
506.7000;0.4672;0.1857;
507.0000;0.4664;0.1808;
507.3000;0.4648;0.1857;
507.6000;0.4664;0.1907;
507.9000;0.4681;0.1981;
508.2000;0.4681;0.1907;
508.5000;0.4681;0.1832;
508.8000;0.4697;0.1832;
509.1000;0.4664;0.1758;
509.4000;0.4640;0.1659;
509.7000;0.4664;0.1684;
510.0000;0.4713;0.1733;
510.3000;0.4705;0.1709;
510.6000;0.4681;0.1634;
510.9000;0.4664;0.1684;
511.2000;0.4664;0.1659;
511.5000;0.4664;0.1634;
511.8000;0.4689;0.1709;
512.1000;0.4656;0.1709;
512.4000;0.4681;0.1758;
512.7000;0.4689;0.1684;
513.0000;0.4672;0.1634;
513.3000;0.4689;0.1684;
513.6000;0.4664;0.1634;
513.9000;0.4697;0.1758;
514.2000;0.4672;0.1709;
514.5000;0.4664;0.1709;
514.8000;0.4656;0.1634;
515.1000;0.4664;0.1659;
515.4000;0.4681;0.1709;
515.7000;0.4681;0.1709;
516.0000;0.4705;0.1733;
516.3000;0.4664;0.1684;
516.6000;0.4672;0.1659;
516.9000;0.4721;0.1832;
517.2000;0.4672;0.1758;
517.5000;0.4664;0.1808;
517.8000;0.4672;0.1832;
518.1000;0.4689;0.1832;
518.4000;0.4697;0.1857;
518.7000;0.4672;0.1857;
519.0000;0.4672;0.1832;
519.3000;0.4672;0.1832;
519.6000;0.4672;0.1857;
519.9000;0.4681;0.1832;
520.2000;0.4681;0.1783;
520.5000;0.4672;0.1758;
520.8000;0.4697;0.1709;
521.1000;0.4672;0.1857;
521.4000;0.4664;0.1832;
521.7000;0.4672;0.1931;
522.0000;0.4672;0.1931;
522.3000;0.4664;0.1931;
522.6000;0.4689;0.1956;
522.9000;0.4672;0.1907;
523.2000;0.4689;0.1931;
523.5000;0.4664;0.1907;
523.8000;0.4664;0.1907;
524.1000;0.4664;0.1907;
524.4000;0.4672;0.1907;
524.7000;0.4672;0.1882;
525.0000;0.4672;0.1857;
525.3000;0.4664;0.1783;
525.6000;0.4640;0.1783;
525.9000;0.4672;0.1857;
526.2000;0.4681;0.1832;
526.5000;0.4664;0.1783;
526.8000;0.4656;0.1808;
527.1000;0.4664;0.1783;
527.4000;0.4689;0.1882;
527.7000;0.4721;0.1931;
528.0000;0.4664;0.1758;
528.3000;0.4664;0.1783;
528.6000;0.4672;0.1931;
528.9000;0.4648;0.1981;
529.2000;0.4664;0.1981;
529.5000;0.4664;0.1931;
529.8000;0.4672;0.2006;
530.1000;0.4689;0.1981;
530.4000;0.4664;0.1931;
530.7000;0.4664;0.1931;
531.0000;0.4672;0.2031;
531.3000;0.4681;0.2105;
531.6000;0.4681;0.2031;
531.9000;0.4681;0.1956;
532.2000;0.4664;0.1733;
532.5000;0.4689;0.1857;
532.8000;0.4656;0.1808;
533.1000;0.4681;0.1808;
533.4000;0.4656;0.1832;
533.7000;0.4656;0.1733;
534.0000;0.4672;0.1783;
534.3000;0.4640;0.1659;
534.6000;0.4664;0.1684;
534.9000;0.4672;0.1808;
535.2000;0.4672;0.1808;
535.5000;0.4624;0.1709;
535.8000;0.4664;0.1832;
536.1000;0.4681;0.1857;
536.4000;0.4648;0.1783;
536.7000;0.4672;0.1783;
537.0000;0.4672;0.1832;
537.3000;0.4672;0.1758;
537.6000;0.4664;0.1758;
537.9000;0.4721;0.1857;
538.2000;0.4648;0.1808;
538.5000;0.4664;0.1882;
538.8000;0.4672;0.1758;
539.1000;0.4656;0.1659;
539.4000;0.4648;0.1684;
539.7000;0.4713;0.1907;
540.0000;0.4672;0.1832;
540.3000;0.4664;0.1956;
540.6000;0.4664;0.1981;
540.9000;0.4672;0.2055;
541.2000;0.4672;0.2031;
541.5000;0.4664;0.2006;
541.8000;0.4689;0.1956;
542.1000;0.4672;0.1882;
542.4000;0.4689;0.1832;
542.7000;0.4681;0.1832;
543.0000;0.4672;0.1832;
543.3000;0.4681;0.1808;
543.6000;0.4672;0.1709;
543.9000;0.4624;0.1535;
544.2000;0.4664;0.1783;
544.5000;0.4672;0.1832;
544.8000;0.4656;0.1832;
545.1000;0.4648;0.1907;
545.4000;0.4681;0.1882;
545.7000;0.4697;0.1882;
546.0000;0.4681;0.1907;
546.3000;0.4648;0.1808;
546.6000;0.4664;0.1882;
546.9000;0.4672;0.1808;
547.2000;0.4624;0.1709;
547.5000;0.4640;0.1783;
547.8000;0.4681;0.1857;
548.1000;0.4664;0.1882;
548.4000;0.4664;0.1733;
548.7000;0.4664;0.1733;
549.0000;0.4664;0.1684;
549.3000;0.4615;0.1511;
549.6000;0.4664;0.1659;
549.9000;0.4672;0.1758;
550.2000;0.4664;0.1733;
550.5000;0.4656;0.1709;
550.8000;0.4672;0.1832;
551.1000;0.4648;0.1832;
551.4000;0.4656;0.1808;
551.7000;0.4664;0.1857;
552.0000;0.4697;0.1931;
552.3000;0.4656;0.1857;
552.6000;0.4648;0.1931;
552.9000;0.4664;0.2080;
553.2000;0.4656;0.2055;
553.5000;0.4656;0.2031;
553.8000;0.4656;0.1981;
554.1000;0.4664;0.1956;
554.4000;0.4672;0.1956;
554.7000;0.4664;0.1981;
555.0000;0.4664;0.1882;
555.3000;0.4664;0.1907;
555.6000;0.4672;0.1882;
555.9000;0.4672;0.1907;
556.2000;0.4615;0.1783;
556.5000;0.4656;0.1931;
556.8000;0.4672;0.1981;
557.1000;0.4664;0.2006;
557.4000;0.4640;0.1857;
557.7000;0.4672;0.1956;
558.0000;0.4664;0.1882;
558.3000;0.4681;0.1981;
558.6000;0.4648;0.1931;
558.9000;0.4640;0.1956;
559.2000;0.4681;0.1981;
559.5000;0.4648;0.1931;
559.8000;0.4672;0.1857;
560.1000;0.4648;0.1808;
560.4000;0.4689;0.1907;
560.7000;0.4672;0.1931;
561.0000;0.4664;0.1931;
561.3000;0.4697;0.2031;
561.6000;0.4648;0.1907;
561.9000;0.4672;0.2031;
562.2000;0.4681;0.2179;
562.5000;0.4656;0.2154;
562.8000;0.4664;0.2130;
563.1000;0.4632;0.1931;
563.4000;0.4672;0.2080;
563.7000;0.4672;0.2130;
564.0000;0.4705;0.2130;
564.3000;0.4664;0.1931;
564.6000;0.4681;0.1931;
564.9000;0.4656;0.1882;
565.2000;0.4672;0.1981;
565.5000;0.4672;0.1857;
565.8000;0.4664;0.1907;
566.1000;0.4681;0.1907;
566.4000;0.4672;0.1857;
566.7000;0.4672;0.1882;
567.0000;0.4664;0.1832;
567.3000;0.4681;0.1907;
567.6000;0.4672;0.1857;
567.9000;0.4640;0.1783;
568.2000;0.4664;0.1832;
568.5000;0.4672;0.1857;
568.8000;0.4689;0.1808;
569.1000;0.4664;0.1659;
569.4000;0.4681;0.1709;
569.7000;0.4664;0.1709;
570.0000;0.4656;0.1733;
570.3000;0.4664;0.1758;
570.6000;0.4664;0.1758;
570.9000;0.4664;0.1832;
571.2000;0.4681;0.1907;
571.5000;0.4656;0.1783;
571.8000;0.4664;0.1709;
572.1000;0.4672;0.1684;
572.4000;0.4648;0.1585;
572.7000;0.4664;0.1709;
573.0000;0.4656;0.1709;
573.3000;0.4664;0.1783;
573.6000;0.4648;0.1832;
573.9000;0.4664;0.1882;
574.2000;0.4664;0.1931;
574.5000;0.4648;0.1907;
574.8000;0.4664;0.1931;
575.1000;0.4681;0.1931;
575.4000;0.4672;0.1931;
575.7000;0.4672;0.1832;
576.0000;0.4672;0.1832;
576.3000;0.4664;0.1882;
576.6000;0.4664;0.1907;
576.9000;0.4656;0.1783;
577.2000;0.4648;0.1832;
577.5000;0.4656;0.1882;
577.8000;0.4656;0.1857;
578.1000;0.4664;0.1882;
578.4000;0.4664;0.1857;
578.7000;0.4672;0.1907;
579.0000;0.4648;0.1857;
579.3000;0.4681;0.2080;
579.6000;0.4672;0.2055;
579.9000;0.4689;0.2204;
580.2000;0.4664;0.2179;
580.5000;0.4697;0.2130;
580.8000;0.4672;0.2080;
581.1000;0.4681;0.2105;
581.4000;0.4681;0.2154;
581.7000;0.4664;0.2080;
582.0000;0.4705;0.2130;
582.3000;0.4624;0.1907;
582.6000;0.4656;0.2130;
582.9000;0.4681;0.2105;
583.2000;0.4672;0.2055;
583.5000;0.4648;0.1907;
583.8000;0.4656;0.1956;
584.1000;0.4656;0.2031;
584.4000;0.4648;0.1931;
584.7000;0.4672;0.2031;
585.0000;0.4664;0.1981;
585.3000;0.4672;0.2080;
585.6000;0.4656;0.2080;
585.9000;0.4664;0.2031;
586.2000;0.4664;0.1931;
586.5000;0.4672;0.1981;
586.8000;0.4681;0.2031;
587.1000;0.4640;0.1981;
587.4000;0.4632;0.1931;
587.7000;0.4648;0.1981;
588.0000;0.4656;0.2006;
588.3000;0.4672;0.1981;
588.6000;0.4664;0.1981;
588.9000;0.4664;0.2031;
589.2000;0.4648;0.2130;
589.5000;0.4664;0.2080;
589.8000;0.4664;0.2130;
590.1000;0.4648;0.2130;
590.4000;0.4705;0.2179;
590.7000;0.4689;0.2031;
591.0000;0.4664;0.1956;
591.3000;0.4672;0.1931;
591.6000;0.4640;0.1882;
591.9000;0.4664;0.1882;
592.2000;0.4672;0.1981;
592.5000;0.4656;0.1931;
592.8000;0.4664;0.1907;
593.1000;0.4656;0.1907;
593.4000;0.4640;0.1907;
593.7000;0.4664;0.1931;
594.0000;0.4656;0.1907;
594.3000;0.4672;0.1857;
594.6000;0.4664;0.1857;
594.9000;0.4672;0.1907;
595.2000;0.4656;0.1931;
595.5000;0.4672;0.1931;
595.8000;0.4681;0.1931;
596.1000;0.4664;0.1931;
596.4000;0.4672;0.1931;
596.7000;0.4656;0.1907;
597.0000;0.4705;0.1956;
597.3000;0.4697;0.1931;
597.6000;0.4681;0.2006;
597.9000;0.4705;0.2130;
598.2000;0.4656;0.2080;
598.5000;0.4664;0.2105;
598.8000;0.4648;0.2105;
599.1000;0.4656;0.2130;
599.4000;0.4672;0.2130;
599.7000;0.4664;0.2130;
600.0000;0.4681;0.2130;
600.3000;0.4664;0.2055;
600.6000;0.4656;0.1882;
600.9000;0.4689;0.1956;
601.2000;0.4672;0.1758;
601.5000;0.4656;0.1659;
601.8000;0.4624;0.1511;
602.1000;0.4615;0.1411;
602.4000;0.4575;0.1238;
602.7000;0.4575;0.1238;
603.0000;0.4501;0.1114;
603.3000;0.4518;0.1114;
603.6000;0.4477;0.1040;
603.9000;0.4436;0.1040;
604.2000;0.4420;0.1040;
604.5000;0.4396;0.0941;
604.8000;0.4396;0.0867;
605.1000;0.4363;0.0768;
605.4000;0.4371;0.0743;
605.7000;0.4339;0.0693;
606.0000;0.4282;0.0594;
606.3000;0.4298;0.0669;
606.6000;0.4290;0.0619;
606.9000;0.4347;0.0743;
607.2000;0.4249;0.0545;
607.5000;0.4184;0.0347;
607.8000;0.4241;0.0470;
608.1000;0.4208;0.0421;
608.4000;0.4208;0.0470;
608.7000;0.4217;0.0470;
609.0000;0.4217;0.0495;
609.3000;0.4168;0.0396;
609.6000;0.4151;0.0396;
609.9000;0.4094;0.0248;
610.2000;0.4143;0.0446;
610.5000;0.4160;0.0594;
610.8000;0.4103;0.0421;
611.1000;0.4078;0.0347;
611.4000;0.4111;0.0396;
611.7000;0.4094;0.0396;
612.0000;0.4070;0.0396;
612.3000;0.4070;0.0421;
612.6000;0.4062;0.0421;
612.9000;0.4094;0.0470;
613.2000;0.4054;0.0371;
613.5000;0.4037;0.0297;
613.8000;0.4037;0.0248;
614.1000;0.4029;0.0223;
614.4000;0.4013;0.0223;
614.7000;0.4005;0.0223;
615.0000;0.4005;0.0272;
615.3000;0.4013;0.0347;
615.6000;0.3964;0.0173;
615.9000;0.3997;0.0248;
616.2000;0.3956;0.0099;
616.5000;0.3972;0.0099;
616.8000;0.3956;0.0074;
617.1000;0.3948;0.0099;
617.4000;0.3923;0.0099;
617.7000;0.3932;0.0149;
618.0000;0.3923;0.0198;
618.3000;0.3940;0.0198;
618.6000;0.3907;0.0173;
618.9000;0.3907;0.0149;
619.2000;0.3923;0.0223;
619.5000;0.3907;0.0124;
619.8000;0.3867;0.0099;
620.1000;0.3858;0.0124;
620.4000;0.3875;0.0173;
620.7000;0.3875;0.0124;
621.0000;0.3867;0.0074;
621.3000;0.3842;0.0099;
621.6000;0.3858;0.0149;
621.9000;0.3834;0.0124;
622.2000;0.3826;0.0050;
622.5000;0.3801;0.0025;
622.8000;0.3858;0.0223;
623.1000;0.3801;0.0149;
623.4000;0.3793;0.0074;
623.7000;0.3826;0.0248;
624.0000;0.3810;0.0223;
624.3000;0.3801;0.0322;
624.6000;0.3801;0.0396;
624.9000;0.3761;0.0347;
625.2000;0.3777;0.0322;
625.5000;0.3785;0.0322;
625.8000;0.3761;0.0198;
626.1000;0.3744;0.0124;
626.4000;0.3744;0.0050;
626.7000;0.3744;0.0000;
627.0000;0.3744;0.0000;
627.3000;0.3720;-0.0025;
627.6000;0.3720;0.0050;
627.9000;0.3736;0.0074;
628.2000;0.3736;0.0124;
628.5000;0.3696;0.0000;
628.8000;0.3720;0.0099;
629.1000;0.3720;0.0173;
629.4000;0.3728;0.0297;
629.7000;0.3712;0.0198;
630.0000;0.3671;0.0149;
630.3000;0.3663;0.0149;
630.6000;0.3687;0.0198;
630.9000;0.3801;0.0520;
631.2000;0.3671;0.0124;
631.5000;0.3630;0.0149;
631.8000;0.3655;0.0198;
632.1000;0.3679;0.0149;
632.4000;0.3630;0.0025;
632.7000;0.3630;0.0025;
633.0000;0.3655;0.0000;
633.3000;0.3663;0.0000;
633.6000;0.3606;-0.0198;
633.9000;0.3647;-0.0050;
634.2000;0.3655;0.0050;
634.5000;0.3647;0.0149;
634.8000;0.3622;0.0099;
635.1000;0.3622;0.0173;
635.4000;0.3630;0.0149;
635.7000;0.3606;0.0124;
636.0000;0.3614;0.0099;
636.3000;0.3590;0.0000;
636.6000;0.3582;0.0099;
636.9000;0.3590;0.0173;
637.2000;0.3606;0.0173;
637.5000;0.3590;0.0124;
637.8000;0.3573;0.0149;
638.1000;0.3565;0.0124;
638.4000;0.3582;0.0198;
638.7000;0.3573;0.0223;
639.0000;0.3573;0.0124;
639.3000;0.3582;0.0099;
639.6000;0.3606;0.0050;
639.9000;0.3565;0.0000;
640.2000;0.3549;-0.0050;
640.5000;0.3541;-0.0124;
640.8000;0.3549;-0.0099;
641.1000;0.3565;-0.0074;
641.4000;0.3525;-0.0099;
641.7000;0.3565;0.0025;
642.0000;0.3533;0.0074;
642.3000;0.3557;0.0099;
642.6000;0.3525;0.0099;
642.9000;0.3500;0.0124;
643.2000;0.3573;0.0248;
643.5000;0.3508;-0.0050;
643.8000;0.3492;-0.0050;
644.1000;0.3500;-0.0149;
644.4000;0.3492;-0.0173;
644.7000;0.3492;-0.0149;
645.0000;0.3525;-0.0025;
645.3000;0.3492;-0.0099;
645.6000;0.3492;-0.0173;
645.9000;0.3516;-0.0050;
646.2000;0.3516;-0.0074;
646.5000;0.3484;-0.0124;
646.8000;0.3476;-0.0050;
647.1000;0.3492;-0.0124;
647.4000;0.3492;-0.0074;
647.7000;0.3460;-0.0198;
648.0000;0.3484;-0.0074;
648.3000;0.3468;-0.0099;
648.6000;0.3492;-0.0025;
648.9000;0.3516;0.0074;
649.2000;0.3492;-0.0025;
649.5000;0.3468;-0.0074;
649.8000;0.3541;0.0149;
650.1000;0.3468;0.0000;
650.4000;0.3460;-0.0025;
650.7000;0.3427;-0.0149;
651.0000;0.3468;-0.0025;
651.3000;0.3460;-0.0099;
651.6000;0.3443;-0.0025;
651.9000;0.3435;0.0000;
652.2000;0.3468;0.0124;
652.5000;0.3492;0.0124;
652.8000;0.3451;0.0025;
653.1000;0.3516;0.0099;
653.4000;0.3460;0.0025;
653.7000;0.3427;-0.0050;
654.0000;0.3435;-0.0025;
654.3000;0.3411;-0.0173;
654.6000;0.3403;-0.0124;
654.9000;0.3411;-0.0074;
655.2000;0.3411;-0.0050;
655.5000;0.3394;-0.0074;
655.8000;0.3411;-0.0050;
656.1000;0.3435;0.0124;
656.4000;0.3419;0.0050;
656.7000;0.3411;0.0050;
657.0000;0.3403;0.0050;
657.3000;0.3394;-0.0050;
657.6000;0.3419;0.0050;
657.9000;0.3427;0.0149;
658.2000;0.3403;0.0149;
658.5000;0.3386;0.0050;
658.8000;0.3354;0.0000;
659.1000;0.3394;0.0198;
659.4000;0.3411;0.0248;
659.7000;0.3378;0.0272;
660.0000;0.3362;0.0149;
660.3000;0.3378;0.0149;
660.6000;0.3362;0.0099;
660.9000;0.3370;0.0050;
661.2000;0.3362;0.0000;
661.5000;0.3370;-0.0025;
661.8000;0.3362;-0.0074;
662.1000;0.3354;-0.0074;
662.4000;0.3354;0.0025;
662.7000;0.3305;-0.0149;
663.0000;0.3362;-0.0050;
663.3000;0.3354;-0.0050;
663.6000;0.3354;0.0000;
663.9000;0.3346;0.0025;
664.2000;0.3313;-0.0124;
664.5000;0.3346;0.0025;
664.8000;0.3346;-0.0050;
665.1000;0.3337;-0.0074;
665.4000;0.3370;-0.0025;
665.7000;0.3346;-0.0074;
666.0000;0.3346;-0.0050;
666.3000;0.3321;-0.0099;
666.6000;0.3329;-0.0124;
666.9000;0.3354;-0.0025;
667.2000;0.3346;-0.0025;
667.5000;0.3346;-0.0074;
667.8000;0.3337;-0.0050;
668.1000;0.3321;-0.0074;
668.4000;0.3321;-0.0124;
668.7000;0.3329;-0.0198;
669.0000;0.3297;-0.0223;
669.3000;0.3313;-0.0124;
669.6000;0.3313;-0.0074;
669.9000;0.3297;-0.0099;
670.2000;0.3289;-0.0149;
670.5000;0.3313;-0.0074;
670.8000;0.3289;-0.0074;
671.1000;0.3305;0.0000;
671.4000;0.3305;0.0025;
671.7000;0.3321;0.0025;
672.0000;0.3297;-0.0050;
672.3000;0.3297;-0.0074;
672.6000;0.3272;-0.0099;
672.9000;0.3313;-0.0050;
673.2000;0.3289;-0.0099;
673.5000;0.3305;-0.0025;
673.8000;0.3337;0.0099;
674.1000;0.3297;0.0025;
674.4000;0.3297;0.0050;
674.7000;0.3305;0.0124;
675.0000;0.3289;0.0099;
675.3000;0.3297;0.0000;
675.6000;0.3329;0.0124;
675.9000;0.3280;-0.0074;
676.2000;0.3264;-0.0099;
676.5000;0.3280;-0.0099;
676.8000;0.3280;-0.0124;
677.1000;0.3289;-0.0074;
677.4000;0.3289;-0.0198;
677.7000;0.3264;-0.0223;
678.0000;0.3337;-0.0050;
678.3000;0.3272;-0.0173;
678.6000;0.3280;-0.0248;
678.9000;0.3272;-0.0322;
679.2000;0.3297;-0.0272;
679.5000;0.3280;-0.0248;
679.8000;0.3264;-0.0223;
680.1000;0.3280;-0.0149;
680.4000;0.3256;-0.0248;
680.7000;0.3272;-0.0149;
681.0000;0.3256;-0.0272;
681.3000;0.3264;-0.0198;
681.6000;0.3232;-0.0173;
681.9000;0.3264;-0.0074;
682.2000;0.3256;-0.0099;
682.5000;0.3280;-0.0099;
682.8000;0.3248;-0.0149;
683.1000;0.3232;-0.0173;
683.4000;0.3272;-0.0074;
683.7000;0.3272;-0.0025;
684.0000;0.3272;0.0025;
684.3000;0.3248;0.0025;
684.6000;0.3272;0.0149;
684.9000;0.3248;0.0050;
685.2000;0.3232;0.0025;
685.5000;0.3223;0.0099;
685.8000;0.3232;0.0099;
686.1000;0.3297;0.0272;
686.4000;0.3248;0.0223;
686.7000;0.3256;0.0149;
687.0000;0.3240;-0.0074;
687.3000;0.3240;-0.0074;
687.6000;0.3240;-0.0074;
687.9000;0.3232;-0.0099;
688.2000;0.3223;-0.0099;
688.5000;0.3232;-0.0074;
688.8000;0.3240;-0.0050;
689.1000;0.3223;-0.0074;
689.4000;0.3240;-0.0124;
689.7000;0.3191;-0.0198;
690.0000;0.3240;-0.0099;
690.3000;0.3232;-0.0099;
690.6000;0.3215;-0.0124;
690.9000;0.3207;-0.0173;
691.2000;0.3199;-0.0272;
691.5000;0.3215;-0.0198;
691.8000;0.3207;-0.0149;
692.1000;0.3215;-0.0124;
692.4000;0.3232;-0.0149;
692.7000;0.3199;-0.0272;
693.0000;0.3223;-0.0248;
693.3000;0.3215;-0.0297;
693.6000;0.3223;-0.0347;
693.9000;0.3248;-0.0272;
694.2000;0.3199;-0.0272;
694.5000;0.3191;-0.0223;
694.8000;0.3207;-0.0173;
695.1000;0.3232;-0.0050;
695.4000;0.3215;-0.0099;
695.7000;0.3191;-0.0173;
696.0000;0.3207;-0.0124;
696.3000;0.3207;-0.0198;
696.6000;0.3232;-0.0198;
696.9000;0.3215;-0.0124;
697.2000;0.3215;-0.0074;
697.5000;0.3191;-0.0099;
697.8000;0.3191;-0.0025;
698.1000;0.3199;-0.0025;
698.4000;0.3215;-0.0050;
698.7000;0.3199;-0.0074;
699.0000;0.3215;-0.0025;
699.3000;0.3207;-0.0025;
699.6000;0.3199;-0.0050;
699.9000;0.3191;-0.0099;
700.2000;0.3199;-0.0050;
700.5000;0.3142;-0.0099;
700.8000;0.3199;-0.0025;
701.1000;0.3215;0.0025;
701.4000;0.3191;0.0000;
701.7000;0.3191;0.0025;
702.0000;0.3191;0.0050;
702.3000;0.3158;0.0025;
702.6000;0.3166;0.0000;
702.9000;0.3175;-0.0050;
703.2000;0.3166;-0.0025;
703.5000;0.3126;-0.0124;
703.8000;0.3166;-0.0025;
704.1000;0.3101;-0.0248;
704.4000;0.3166;-0.0050;
704.7000;0.3175;0.0099;
705.0000;0.3166;0.0025;
705.3000;0.3183;0.0025;
705.6000;0.3166;-0.0025;
705.9000;0.3183;0.0050;
706.2000;0.3166;0.0000;
706.5000;0.3183;0.0074;
706.8000;0.3150;0.0074;
707.1000;0.3150;0.0050;
707.4000;0.3158;-0.0025;
707.7000;0.3142;-0.0050;
708.0000;0.3150;-0.0025;
708.3000;0.3150;-0.0099;
708.6000;0.3150;0.0000;
708.9000;0.3215;0.0272;
709.2000;0.3158;0.0198;
709.5000;0.3166;0.0124;
709.8000;0.3183;0.0223;
710.1000;0.3158;0.0173;
710.4000;0.3150;0.0198;
710.7000;0.3158;0.0297;
711.0000;0.3158;0.0223;
711.3000;0.3126;0.0074;
711.6000;0.3158;0.0124;
711.9000;0.3166;0.0124;
712.2000;0.3150;0.0050;
712.5000;0.3150;0.0025;
712.8000;0.3150;0.0099;
713.1000;0.3150;0.0124;
713.4000;0.3142;0.0050;
713.7000;0.3142;0.0000;
714.0000;0.3134;-0.0149;
714.3000;0.3150;-0.0124;
714.6000;0.3158;-0.0074;
714.9000;0.3126;-0.0099;
715.2000;0.3142;-0.0050;
715.5000;0.3142;-0.0074;
715.8000;0.3150;-0.0124;
716.1000;0.3150;-0.0198;
716.4000;0.3150;-0.0223;
716.7000;0.3142;-0.0272;
717.0000;0.3142;-0.0248;
717.3000;0.3150;-0.0124;
717.6000;0.3142;-0.0099;
717.9000;0.3142;-0.0124;
718.2000;0.3150;0.0000;
718.5000;0.3142;-0.0050;
718.8000;0.3142;-0.0099;
719.1000;0.3126;-0.0074;
719.4000;0.3158;0.0000;
719.7000;0.3134;0.0025;
720.0000;0.3150;-0.0025;
720.3000;0.3142;-0.0124;
720.6000;0.3142;-0.0198;
720.9000;0.3150;-0.0074;
721.2000;0.3150;-0.0025;
721.5000;0.3118;-0.0124;
721.8000;0.3134;-0.0050;
722.1000;0.3142;0.0099;
722.4000;0.3134;-0.0025;
722.7000;0.3093;-0.0149;
723.0000;0.3126;-0.0074;
723.3000;0.3077;-0.0272;
723.6000;0.3126;-0.0099;
723.9000;0.3118;-0.0099;
724.2000;0.3109;-0.0025;
724.5000;0.3101;-0.0099;
724.8000;0.3118;-0.0173;
725.1000;0.3126;-0.0099;
725.4000;0.3093;-0.0124;
725.7000;0.3118;-0.0124;
726.0000;0.3061;-0.0173;
726.3000;0.3118;0.0000;
726.6000;0.3109;0.0074;
726.9000;0.3101;0.0099;
727.2000;0.3126;0.0099;
727.5000;0.3134;0.0074;
727.8000;0.3126;0.0050;
728.1000;0.3093;0.0000;
728.4000;0.3109;0.0074;
728.7000;0.3053;-0.0124;
729.0000;0.3101;0.0000;
729.3000;0.3109;-0.0074;
729.6000;0.3101;-0.0025;
729.9000;0.3101;0.0025;
730.2000;0.3109;0.0099;
730.5000;0.3109;0.0050;
730.8000;0.3093;0.0000;
731.1000;0.3158;0.0099;
731.4000;0.3126;-0.0025;
731.7000;0.3101;-0.0124;
732.0000;0.3109;-0.0050;
732.3000;0.3118;-0.0099;
732.6000;0.3101;-0.0198;
732.9000;0.3109;-0.0099;
733.2000;0.3085;-0.0050;
733.5000;0.3093;-0.0124;
733.8000;0.3093;-0.0173;
734.1000;0.3101;-0.0074;
734.4000;0.3085;-0.0099;
734.7000;0.3077;-0.0025;
735.0000;0.3101;-0.0025;
735.3000;0.3101;0.0000;
735.6000;0.3077;-0.0074;
735.9000;0.3093;-0.0050;
736.2000;0.3077;0.0025;
736.5000;0.3093;0.0124;
736.8000;0.3126;0.0248;
737.1000;0.3085;0.0124;
737.4000;0.3118;0.0198;
737.7000;0.3093;0.0124;
738.0000;0.3077;0.0099;
738.3000;0.3069;0.0025;
738.6000;0.3069;0.0025;
738.9000;0.3101;0.0050;
739.2000;0.3085;0.0025;
739.5000;0.3093;0.0074;
739.8000;0.3061;0.0074;
740.1000;0.3101;0.0173;
740.4000;0.3077;0.0173;
740.7000;0.3061;0.0173;
741.0000;0.3085;0.0223;
741.3000;0.3077;0.0272;
741.6000;0.3069;0.0297;
741.9000;0.3101;0.0248;
742.2000;0.3069;0.0124;
742.5000;0.3077;0.0149;
742.8000;0.3118;0.0198;
743.1000;0.3085;0.0050;
743.4000;0.3093;0.0074;
743.7000;0.3093;0.0099;
744.0000;0.3061;0.0099;
744.3000;0.3085;0.0099;
744.6000;0.3093;0.0124;
744.9000;0.3069;0.0074;
745.2000;0.3077;0.0149;
745.5000;0.3061;0.0074;
745.8000;0.3077;0.0173;
746.1000;0.3053;0.0149;
746.4000;0.3077;0.0223;
746.7000;0.3085;0.0297;
747.0000;0.3053;0.0198;
747.3000;0.3069;0.0173;
747.6000;0.3061;0.0124;
747.9000;0.3061;0.0149;
748.2000;0.3069;0.0050;
748.5000;0.3061;0.0074;
748.8000;0.3077;0.0000;
749.1000;0.3069;0.0000;
749.4000;0.3085;0.0099;
749.7000;0.3053;0.0025;
750.0000;0.3101;0.0099;
750.3000;0.3069;0.0025;
750.6000;0.3142;0.0322;
750.9000;0.3150;0.0347;
751.2000;0.3069;0.0124;
751.5000;0.3061;0.0074;
751.8000;0.3061;0.0099;
752.1000;0.3085;0.0198;
752.4000;0.3077;0.0173;
752.7000;0.3069;0.0025;
753.0000;0.3069;0.0050;
753.3000;0.3069;0.0173;
753.6000;0.3077;0.0149;
753.9000;0.3085;0.0099;
754.2000;0.3061;-0.0050;
754.5000;0.3069;0.0025;
754.8000;0.3118;0.0074;
755.1000;0.3077;-0.0074;
755.4000;0.3158;0.0223;
755.7000;0.3061;0.0000;
756.0000;0.3077;0.0025;
756.3000;0.3061;0.0050;
756.6000;0.3085;0.0050;
756.9000;0.3061;0.0025;
757.2000;0.3069;0.0099;
757.5000;0.3077;0.0074;
757.8000;0.3061;-0.0074;
758.1000;0.3053;-0.0099;
758.4000;0.2987;-0.0297;
758.7000;0.2987;-0.0223;
759.0000;0.3061;-0.0025;
759.3000;0.3061;-0.0050;
759.6000;0.3069;-0.0223;
759.9000;0.3053;-0.0272;
760.2000;0.2979;-0.0495;
760.5000;0.3044;-0.0223;
760.8000;0.3069;-0.0124;
761.1000;0.3053;0.0000;
761.4000;0.3044;-0.0025;
761.7000;0.3044;0.0000;
762.0000;0.3061;0.0149;
762.3000;0.3036;0.0173;
762.6000;0.3028;0.0000;
762.9000;0.3053;-0.0025;
763.2000;0.3061;-0.0050;
763.5000;0.3036;-0.0124;
763.8000;0.3044;-0.0149;
764.1000;0.3061;-0.0074;
764.4000;0.3061;-0.0050;
764.7000;0.3053;-0.0173;
765.0000;0.3069;-0.0074;
765.3000;0.3077;-0.0025;
765.6000;0.3053;-0.0124;
765.9000;0.3053;-0.0124;
766.2000;0.3069;-0.0124;
766.5000;0.3053;-0.0149;
766.8000;0.3077;-0.0124;
767.1000;0.3061;-0.0124;
767.4000;0.3101;-0.0124;
767.7000;0.3061;-0.0248;
768.0000;0.3158;0.0050;
768.3000;0.3036;-0.0173;
768.6000;0.3053;-0.0198;
768.9000;0.3053;-0.0223;
769.2000;0.3012;-0.0347;
769.5000;0.3044;-0.0297;
769.8000;0.3036;-0.0396;
770.1000;0.3053;-0.0347;
770.4000;0.3061;-0.0347;
770.7000;0.3044;-0.0347;
771.0000;0.3020;-0.0396;
771.3000;0.3069;-0.0223;
771.6000;0.3134;0.0025;
771.9000;0.3036;-0.0124;
772.2000;0.3053;0.0000;
772.5000;0.3053;0.0000;
772.8000;0.3077;0.0050;
773.1000;0.3036;-0.0099;
773.4000;0.3036;-0.0074;
773.7000;0.3028;-0.0025;
774.0000;0.3044;-0.0025;
774.3000;0.3053;0.0000;
774.6000;0.3061;0.0074;
774.9000;0.3053;-0.0025;
775.2000;0.3061;0.0025;
775.5000;0.2987;-0.0025;
775.8000;0.3044;0.0025;
776.1000;0.3069;0.0099;
776.4000;0.3061;0.0099;
776.7000;0.3036;-0.0050;
777.0000;0.3036;-0.0025;
777.3000;0.3044;-0.0050;
777.6000;0.3085;0.0074;
777.9000;0.3053;-0.0099;
778.2000;0.3053;-0.0149;
778.5000;0.3028;-0.0198;
778.8000;0.3028;-0.0223;
779.1000;0.3036;-0.0248;
779.4000;0.3028;-0.0248;
779.7000;0.3036;-0.0223;
780.0000;0.3028;-0.0099;
780.3000;0.3020;-0.0198;
780.6000;0.3012;-0.0223;
780.9000;0.3053;-0.0124;
781.2000;0.3036;-0.0099;
781.5000;0.3028;-0.0050;
781.8000;0.3044;-0.0025;
782.1000;0.3053;-0.0099;
782.4000;0.3036;-0.0223;
782.7000;0.3028;-0.0173;
783.0000;0.3012;-0.0248;
783.3000;0.3028;-0.0149;
783.6000;0.3028;-0.0149;
783.9000;0.3036;-0.0074;
784.2000;0.2955;-0.0371;
784.5000;0.3020;-0.0099;
784.8000;0.3020;-0.0173;
785.1000;0.3004;-0.0272;
785.4000;0.3028;-0.0149;
785.7000;0.3036;-0.0173;
786.0000;0.3028;-0.0173;
786.3000;0.3028;-0.0198;
786.6000;0.3028;-0.0124;
786.9000;0.3036;-0.0124;
787.2000;0.3028;-0.0124;
787.5000;0.3012;-0.0124;
787.8000;0.3020;-0.0074;
788.1000;0.3012;-0.0099;
788.4000;0.3036;-0.0025;
788.7000;0.3036;-0.0099;
789.0000;0.3044;-0.0074;
789.3000;0.3036;-0.0124;
789.6000;0.3036;-0.0074;
789.9000;0.3004;-0.0198;
790.2000;0.3028;-0.0173;
790.5000;0.3020;-0.0198;
790.8000;0.3020;-0.0025;
791.1000;0.3028;0.0000;
791.4000;0.3012;0.0025;
791.7000;0.3012;-0.0025;
792.0000;0.3069;0.0050;
792.3000;0.3004;-0.0149;
792.6000;0.3036;-0.0074;
792.9000;0.3036;0.0000;
793.2000;0.3020;0.0025;
793.5000;0.3028;0.0223;
793.8000;0.3020;0.0149;
794.1000;0.3020;0.0173;
794.4000;0.3069;0.0272;
794.7000;0.3028;0.0074;
795.0000;0.3069;0.0099;
795.3000;0.3028;-0.0025;
795.6000;0.3044;0.0050;
795.9000;0.3020;0.0074;
796.2000;0.3028;-0.0050;
796.5000;0.3044;0.0025;
796.8000;0.3020;-0.0050;
797.1000;0.3028;0.0050;
797.4000;0.3036;0.0074;
797.7000;0.3028;0.0099;
798.0000;0.3020;0.0124;
798.3000;0.3012;0.0099;
798.6000;0.3020;0.0074;
798.9000;0.3036;0.0223;
799.2000;0.3012;0.0173;
799.5000;0.2987;0.0074;
799.8000;0.3020;0.0099;
800.1000;0.3020;0.0074;
800.4000;0.3028;0.0025;
800.7000;0.2963;-0.0173;
801.0000;0.3020;0.0000;
801.3000;0.3020;-0.0099;
801.6000;0.3012;-0.0173;
801.9000;0.2987;-0.0149;
802.2000;0.3036;0.0050;
802.5000;0.3036;-0.0025;
802.8000;0.3028;0.0000;
803.1000;0.3012;-0.0074;
803.4000;0.3020;0.0000;
803.7000;0.3020;-0.0025;
804.0000;0.3036;0.0074;
804.3000;0.3020;0.0149;
804.6000;0.3020;0.0149;
804.9000;0.3020;0.0223;
805.2000;0.3004;0.0173;
805.5000;0.3028;0.0198;
805.8000;0.3020;0.0149;
806.1000;0.3020;0.0099;
806.4000;0.3012;0.0099;
806.7000;0.3004;0.0025;
807.0000;0.3004;0.0074;
807.3000;0.2947;-0.0074;
807.6000;0.3012;0.0025;
807.9000;0.2963;-0.0074;
808.2000;0.3012;0.0050;
808.5000;0.2987;-0.0025;
808.8000;0.3020;-0.0025;
809.1000;0.3012;-0.0149;
809.4000;0.3004;-0.0074;
809.7000;0.3004;-0.0099;
810.0000;0.2996;-0.0074;
810.3000;0.3004;-0.0074;
810.6000;0.2987;-0.0124;
810.9000;0.3012;-0.0025;
811.2000;0.3004;0.0025;
811.5000;0.3004;0.0050;
811.8000;0.3020;0.0050;
812.1000;0.2996;0.0000;
812.4000;0.2979;0.0074;
812.7000;0.3012;0.0173;
813.0000;0.2987;0.0050;
813.3000;0.3012;0.0124;
813.6000;0.3028;0.0173;
813.9000;0.2930;-0.0099;
814.2000;0.3012;0.0074;
814.5000;0.3004;0.0000;
814.8000;0.3020;-0.0074;
815.1000;0.3012;-0.0025;
815.4000;0.3053;0.0099;
815.7000;0.3020;0.0000;
816.0000;0.2979;-0.0074;
816.3000;0.3020;-0.0025;
816.6000;0.3012;0.0000;
816.9000;0.2996;-0.0050;
817.2000;0.2996;-0.0050;
817.5000;0.3077;0.0198;
817.8000;0.3012;-0.0074;
818.1000;0.3020;-0.0025;
818.4000;0.3012;-0.0050;
818.7000;0.3004;-0.0074;
819.0000;0.3012;-0.0050;
819.3000;0.3020;0.0025;
819.6000;0.3004;0.0025;
819.9000;0.3004;0.0074;
820.2000;0.3004;0.0050;
820.5000;0.2963;-0.0074;
820.8000;0.3020;0.0000;
821.1000;0.2996;0.0025;
821.4000;0.3020;0.0099;
821.7000;0.2979;0.0025;
822.0000;0.3012;0.0074;
822.3000;0.3044;0.0149;
822.6000;0.3004;0.0050;
822.9000;0.3004;0.0000;
823.2000;0.2996;0.0000;
823.5000;0.3004;-0.0050;
823.8000;0.2987;-0.0124;
824.1000;0.2987;-0.0099;
824.4000;0.2996;-0.0050;
824.7000;0.2996;-0.0149;
825.0000;0.2971;-0.0198;
825.3000;0.2996;-0.0173;
825.6000;0.3004;-0.0149;
825.9000;0.3004;-0.0272;
826.2000;0.3004;-0.0248;
826.5000;0.3012;-0.0223;
826.8000;0.3004;-0.0198;
827.1000;0.2979;-0.0124;
827.4000;0.2996;0.0000;
827.7000;0.3036;0.0099;
828.0000;0.3012;-0.0074;
828.3000;0.2996;-0.0074;
828.6000;0.3004;0.0000;
828.9000;0.2947;-0.0099;
829.2000;0.3004;0.0074;
829.5000;0.2996;0.0025;
829.8000;0.3012;0.0000;
830.1000;0.2996;-0.0050;
830.4000;0.2979;-0.0099;
830.7000;0.2996;-0.0099;
831.0000;0.2971;-0.0272;
831.3000;0.2987;-0.0347;
831.6000;0.2996;-0.0248;
831.9000;0.2971;-0.0248;
832.2000;0.2996;-0.0099;
832.5000;0.2979;-0.0099;
832.8000;0.2979;-0.0099;
833.1000;0.2979;0.0025;
833.4000;0.2979;0.0025;
833.7000;0.2987;0.0074;
834.0000;0.3012;0.0099;
834.3000;0.2996;0.0124;
834.6000;0.2979;0.0099;
834.9000;0.2987;0.0050;
835.2000;0.2996;0.0074;
835.5000;0.2979;-0.0025;
835.8000;0.3036;0.0074;
836.1000;0.3004;0.0124;
836.4000;0.2996;0.0223;
836.7000;0.2979;0.0099;
837.0000;0.2971;0.0000;
837.3000;0.3004;0.0099;
837.6000;0.2979;0.0025;
837.9000;0.2906;-0.0149;
838.2000;0.2979;0.0025;
838.5000;0.3012;0.0025;
838.8000;0.2996;-0.0025;
839.1000;0.2979;0.0000;
839.4000;0.3012;0.0074;
839.7000;0.2987;0.0025;
840.0000;0.3012;0.0074;
840.3000;0.2987;0.0000;
840.6000;0.2996;-0.0050;
840.9000;0.2996;-0.0099;
841.2000;0.2996;0.0074;
841.5000;0.3004;0.0173;
841.8000;0.3020;0.0198;
842.1000;0.2979;0.0173;
842.4000;0.2987;0.0173;
842.7000;0.3004;0.0272;
843.0000;0.3044;0.0272;
843.3000;0.3004;0.0149;
843.6000;0.3004;0.0173;
843.9000;0.2996;0.0149;
844.2000;0.2987;0.0173;
844.5000;0.3053;0.0371;
844.8000;0.2996;0.0173;
845.1000;0.2963;0.0050;
845.4000;0.2996;0.0124;
845.7000;0.2971;0.0099;
846.0000;0.2971;0.0074;
846.3000;0.2979;0.0124;
846.6000;0.2987;0.0173;
846.9000;0.2987;0.0223;
847.2000;0.2996;0.0248;
847.5000;0.2996;0.0272;
847.8000;0.2979;0.0173;
848.1000;0.2979;0.0173;
848.4000;0.2987;0.0173;
848.7000;0.2987;0.0173;
849.0000;0.2979;0.0124;
849.3000;0.2963;0.0124;
849.6000;0.2996;0.0099;
849.9000;0.3012;0.0198;
850.2000;0.2963;-0.0025;
850.5000;0.2987;-0.0050;
850.8000;0.2971;0.0000;
851.1000;0.2979;0.0000;
851.4000;0.3044;0.0099;
851.7000;0.2963;-0.0149;
852.0000;0.2996;-0.0025;
852.3000;0.2987;-0.0025;
852.6000;0.2979;-0.0050;
852.9000;0.2963;-0.0124;
853.2000;0.2971;-0.0124;
853.5000;0.2979;-0.0050;
853.8000;0.3028;0.0025;
854.1000;0.2987;0.0000;
854.4000;0.2987;0.0000;
854.7000;0.2987;0.0050;
855.0000;0.2996;0.0074;
855.3000;0.2955;0.0050;
855.6000;0.2987;0.0099;
855.9000;0.2963;0.0000;
856.2000;0.2979;-0.0025;
856.5000;0.2979;-0.0025;
856.8000;0.3044;0.0198;
857.1000;0.2996;0.0099;
857.4000;0.2987;0.0149;
857.7000;0.2971;0.0074;
858.0000;0.2955;0.0050;
858.3000;0.2996;0.0198;
858.6000;0.2987;0.0198;
858.9000;0.2947;0.0124;
859.2000;0.2979;0.0149;
859.5000;0.2996;0.0149;
859.8000;0.2963;0.0099;
860.1000;0.2979;0.0173;
860.4000;0.2971;0.0198;
860.7000;0.2979;0.0248;
861.0000;0.2963;0.0198;
861.3000;0.2947;0.0173;
861.6000;0.2939;0.0074;
861.9000;0.2979;0.0248;
862.2000;0.2971;0.0198;
862.5000;0.2963;0.0149;
862.8000;0.3053;0.0446;
863.1000;0.2987;0.0248;
863.4000;0.2979;0.0223;
863.7000;0.2979;0.0149;
864.0000;0.2955;0.0149;
864.3000;0.2987;0.0223;
864.6000;0.2987;0.0173;
864.9000;0.2979;0.0099;
865.2000;0.2979;0.0099;
865.5000;0.2987;0.0099;
865.8000;0.2987;0.0124;
866.1000;0.2979;0.0149;
866.4000;0.2971;0.0099;
866.7000;0.2971;0.0099;
867.0000;0.2971;0.0149;
867.3000;0.2947;0.0099;
867.6000;0.2979;0.0173;
867.9000;0.2955;0.0124;
868.2000;0.2979;0.0173;
868.5000;0.2979;0.0173;
868.8000;0.2963;0.0149;
869.1000;0.2955;0.0173;
869.4000;0.2955;0.0248;
869.7000;0.2987;0.0347;
870.0000;0.2955;0.0272;
870.3000;0.2971;0.0272;
870.6000;0.2971;0.0272;
870.9000;0.2971;0.0173;
871.2000;0.2971;0.0124;
871.5000;0.2963;-0.0025;
871.8000;0.2971;-0.0149;
872.1000;0.2971;-0.0173;
872.4000;0.2979;-0.0124;
872.7000;0.2955;-0.0099;
873.0000;0.2971;-0.0149;
873.3000;0.2947;-0.0248;
873.6000;0.2971;-0.0248;
873.9000;0.2979;-0.0198;
874.2000;0.2971;-0.0149;
874.5000;0.2947;-0.0272;
874.8000;0.2979;-0.0198;
875.1000;0.2971;-0.0198;
875.4000;0.2971;-0.0124;
875.7000;0.2963;-0.0198;
876.0000;0.2979;-0.0124;
876.3000;0.3020;-0.0050;
876.6000;0.2971;-0.0248;
876.9000;0.2939;-0.0371;
877.2000;0.2890;-0.0495;
877.5000;0.2979;-0.0248;
877.8000;0.2979;-0.0272;
878.1000;0.2963;-0.0248;
878.4000;0.2906;-0.0347;
878.7000;0.2930;-0.0322;
879.0000;0.2996;-0.0099;
879.3000;0.2963;-0.0149;
879.6000;0.2996;-0.0074;
879.9000;0.2971;-0.0124;
880.2000;0.2979;-0.0074;
880.5000;0.2971;-0.0050;
880.8000;0.2979;0.0050;
881.1000;0.3020;0.0248;
881.4000;0.2979;0.0149;
881.7000;0.2963;0.0223;
882.0000;0.2955;0.0149;
882.3000;0.2955;0.0124;
882.6000;0.2963;0.0173;
882.9000;0.2963;0.0173;
883.2000;0.2979;0.0198;
883.5000;0.2939;0.0124;
883.8000;0.2955;0.0223;
884.1000;0.2979;0.0223;
884.4000;0.2963;0.0074;
884.7000;0.2979;0.0074;
885.0000;0.2947;0.0000;
885.3000;0.2971;0.0099;
885.6000;0.3004;0.0198;
885.9000;0.2987;0.0149;
886.2000;0.2963;0.0124;
886.5000;0.2963;0.0223;
886.8000;0.2939;0.0173;
887.1000;0.2963;0.0099;
887.4000;0.2955;0.0050;
887.7000;0.2963;0.0050;
888.0000;0.2971;0.0000;
888.3000;0.2947;-0.0074;
888.6000;0.2963;-0.0124;
888.9000;0.2955;-0.0025;
889.2000;0.2963;0.0000;
889.5000;0.3012;0.0149;
889.8000;0.2955;0.0050;
890.1000;0.2971;0.0074;
890.4000;0.2971;0.0074;
890.7000;0.2996;0.0248;
891.0000;0.2939;0.0025;
891.3000;0.2971;0.0074;
891.6000;0.2971;0.0074;
891.9000;0.2963;0.0025;
892.2000;0.2930;-0.0149;
892.5000;0.2971;-0.0050;
892.8000;0.2971;-0.0025;
893.1000;0.2987;0.0000;
893.4000;0.2963;0.0000;
893.7000;0.2930;-0.0124;
894.0000;0.2971;-0.0050;
894.3000;0.2987;0.0050;
894.6000;0.3044;0.0297;
894.9000;0.2955;0.0025;
895.2000;0.2963;0.0000;
895.5000;0.2979;0.0000;
895.8000;0.2979;0.0025;
896.1000;0.2971;0.0050;
896.4000;0.2963;0.0025;
896.7000;0.2971;0.0000;
897.0000;0.2987;0.0050;
897.3000;0.2979;0.0050;
897.6000;0.2971;0.0050;
897.9000;0.2930;-0.0099;
898.2000;0.2979;-0.0050;
898.5000;0.2930;-0.0124;
898.8000;0.2947;-0.0124;
899.1000;0.2963;-0.0050;
899.4000;0.2947;-0.0074;
899.7000;0.2971;-0.0099;
900.0000;0.2955;-0.0149;
900.3000;0.2930;-0.0124;
900.6000;0.2963;0.0025;
900.9000;0.2939;-0.0050;
901.2000;0.2955;0.0149;
901.5000;0.2963;0.0124;
901.8000;0.2971;0.0223;
902.1000;0.2971;0.0198;
902.4000;0.2979;0.0297;
902.7000;0.2963;0.0198;
903.0000;0.2971;0.0149;
903.3000;0.3012;0.0248;
903.6000;0.2979;0.0149;
903.9000;0.2971;0.0124;
904.2000;0.2955;0.0099;
904.5000;0.2955;0.0149;
904.8000;0.2955;0.0248;
905.1000;0.2955;0.0149;
905.4000;0.2930;0.0124;
905.7000;0.2939;0.0074;
906.0000;0.2955;0.0099;
906.3000;0.2963;0.0173;
906.6000;0.2898;0.0000;
906.9000;0.2947;0.0173;
907.2000;0.2914;0.0099;
907.5000;0.2963;0.0248;
907.8000;0.2971;0.0198;
908.1000;0.2930;0.0074;
908.4000;0.2947;0.0074;
908.7000;0.2947;-0.0074;
909.0000;0.2963;-0.0074;
909.3000;0.2947;0.0000;
909.6000;0.2955;0.0025;
909.9000;0.2979;0.0025;
910.2000;0.2963;-0.0074;
910.5000;0.2955;-0.0074;
910.8000;0.2947;-0.0025;
911.1000;0.2971;0.0050;
911.4000;0.2955;0.0099;
911.7000;0.2955;0.0099;
912.0000;0.2955;0.0025;
912.3000;0.3004;0.0173;
912.6000;0.2971;0.0074;
912.9000;0.2922;-0.0050;
913.2000;0.2955;0.0050;
913.5000;0.2963;0.0025;
913.8000;0.2971;0.0074;
914.1000;0.2947;0.0050;
914.4000;0.2955;0.0025;
914.7000;0.2947;0.0025;
915.0000;0.2955;0.0124;
915.3000;0.2955;0.0074;
915.6000;0.2955;0.0050;
915.9000;0.2865;-0.0124;
916.2000;0.2963;0.0025;
916.5000;0.2955;0.0000;
916.8000;0.2939;0.0000;
917.1000;0.2930;-0.0050;
917.4000;0.2955;-0.0050;
917.7000;0.2955;0.0050;
918.0000;0.3028;0.0124;
918.3000;0.2963;-0.0025;
918.6000;0.2955;0.0000;
918.9000;0.2979;0.0074;
919.2000;0.2963;0.0074;
919.5000;0.2963;0.0099;
919.8000;0.2947;0.0074;
920.1000;0.2971;0.0074;
920.4000;0.2955;0.0149;
920.7000;0.2971;0.0099;
921.0000;0.2971;0.0223;
921.3000;0.2963;0.0149;
921.6000;0.3036;0.0446;
921.9000;0.2955;0.0272;
922.2000;0.2939;0.0099;
922.5000;0.2955;0.0173;
922.8000;0.2971;0.0198;
923.1000;0.2963;0.0099;
923.4000;0.2996;0.0149;
923.7000;0.2971;0.0099;
924.0000;0.2963;0.0099;
924.3000;0.2947;0.0074;
924.6000;0.2947;-0.0025;
924.9000;0.2963;-0.0025;
925.2000;0.2947;-0.0099;
925.5000;0.2963;-0.0050;
925.8000;0.2947;-0.0099;
926.1000;0.2947;-0.0050;
926.4000;0.3012;0.0000;
926.7000;0.2947;-0.0050;
927.0000;0.2947;-0.0025;
927.3000;0.2939;-0.0074;
927.6000;0.2947;-0.0025;
927.9000;0.2971;-0.0050;
928.2000;0.2955;-0.0025;
928.5000;0.2947;-0.0074;
928.8000;0.2955;-0.0050;
929.1000;0.2939;-0.0074;
929.4000;0.2963;0.0050;
929.7000;0.2955;0.0099;
930.0000;0.3028;0.0272;
930.3000;0.2955;0.0124;
930.6000;0.2898;-0.0099;
930.9000;0.2963;0.0074;
931.2000;0.2963;0.0173;
931.5000;0.2963;0.0297;
931.8000;0.2939;0.0149;
932.1000;0.2947;0.0173;
932.4000;0.2955;0.0198;
932.7000;0.2939;0.0124;
933.0000;0.2963;0.0149;
933.3000;0.2922;0.0124;
933.6000;0.2930;0.0025;
933.9000;0.2939;0.0050;
934.2000;0.2955;0.0124;
934.5000;0.2939;0.0074;
934.8000;0.3004;0.0272;
935.1000;0.2947;0.0124;
935.4000;0.2971;0.0149;
935.7000;0.2914;-0.0025;
936.0000;0.2898;-0.0050;
936.3000;0.2947;-0.0050;
936.6000;0.2955;0.0025;
936.9000;0.2979;0.0000;
937.2000;0.2947;-0.0099;
937.5000;0.2955;-0.0099;
937.8000;0.2955;-0.0198;
938.1000;0.2979;-0.0050;
938.4000;0.2955;-0.0074;
938.7000;0.2971;0.0000;
939.0000;0.2979;0.0050;
939.3000;0.2955;0.0000;
939.6000;0.2979;-0.0025;
939.9000;0.2922;-0.0149;
940.2000;0.2963;0.0074;
940.5000;0.2873;-0.0074;
940.8000;0.2979;0.0149;
941.1000;0.2963;0.0149;
941.4000;0.2955;0.0074;
941.7000;0.2955;0.0099;
942.0000;0.2955;0.0099;
942.3000;0.2963;0.0074;
942.6000;0.2939;0.0000;
942.9000;0.2947;0.0000;
943.2000;0.2930;0.0025;
943.5000;0.2963;0.0074;
943.8000;0.2963;-0.0025;
944.1000;0.2939;-0.0173;
944.4000;0.2971;-0.0074;
944.7000;0.2996;-0.0074;
945.0000;0.2939;-0.0173;
945.3000;0.2971;-0.0074;
945.6000;0.2947;-0.0099;
945.9000;0.2963;-0.0050;
946.2000;0.2947;-0.0025;
946.5000;0.2947;-0.0099;
946.8000;0.2955;-0.0025;
947.1000;0.2955;-0.0074;
947.4000;0.2955;-0.0124;
947.7000;0.2963;-0.0025;
948.0000;0.2963;0.0124;
948.3000;0.2955;0.0099;
948.6000;0.2955;0.0099;
948.9000;0.2955;0.0074;
949.2000;0.2890;-0.0099;
949.5000;0.2955;0.0050;
949.8000;0.2890;-0.0074;
950.1000;0.2947;0.0124;
950.4000;0.2955;0.0025;
950.7000;0.2963;0.0025;
951.0000;0.2963;0.0025;
951.3000;0.2971;-0.0050;
951.6000;0.2947;-0.0099;
951.9000;0.2939;-0.0099;
952.2000;0.2947;-0.0124;
952.5000;0.3020;0.0074;
952.8000;0.2955;-0.0149;
953.1000;0.2955;-0.0099;
953.4000;0.2963;-0.0050;
953.7000;0.2963;-0.0099;
954.0000;0.2971;0.0000;
954.3000;0.2955;-0.0050;
954.6000;0.2947;-0.0050;
954.9000;0.2955;-0.0025;
955.2000;0.2947;-0.0025;
955.5000;0.2955;-0.0025;
955.8000;0.2955;-0.0025;
956.1000;0.2947;0.0000;
956.4000;0.2963;0.0050;
956.7000;0.2939;0.0025;
957.0000;0.2955;-0.0050;
957.3000;0.2922;-0.0099;
957.6000;0.2963;-0.0050;
957.9000;0.2922;-0.0050;
958.2000;0.2963;0.0050;
958.5000;0.2939;0.0099;
958.8000;0.2971;0.0173;
959.1000;0.2955;0.0025;
959.4000;0.2947;-0.0050;
959.7000;0.2930;-0.0173;
960.0000;0.2955;-0.0074;
960.3000;0.2963;-0.0050;
960.6000;0.2963;-0.0149;
960.9000;0.2971;-0.0198;
961.2000;0.2947;-0.0149;
961.5000;0.2922;-0.0173;
961.8000;0.2971;-0.0050;
962.1000;0.2947;0.0000;
962.4000;0.2963;0.0074;
962.7000;0.2939;-0.0074;
963.0000;0.2971;0.0099;
963.3000;0.2947;0.0099;
963.6000;0.2922;0.0000;
963.9000;0.2963;0.0099;
964.2000;0.2955;0.0124;
964.5000;0.3012;0.0322;
964.8000;0.2922;0.0074;
965.1000;0.2947;0.0223;
965.4000;0.2865;0.0050;
965.7000;0.2930;0.0173;
966.0000;0.2939;0.0050;
966.3000;0.2955;0.0025;
966.6000;0.2890;-0.0074;
966.9000;0.2963;0.0124;
967.2000;0.2930;0.0050;
967.5000;0.2939;0.0074;
967.8000;0.2979;0.0173;
968.1000;0.2947;0.0099;
968.4000;0.2947;0.0099;
968.7000;0.2947;0.0050;
969.0000;0.2947;0.0000;
969.3000;0.2963;0.0025;
969.6000;0.2947;-0.0025;
969.9000;0.2882;-0.0149;
970.2000;0.2971;0.0074;
970.5000;0.2939;-0.0050;
970.8000;0.2947;-0.0074;
971.1000;0.2947;-0.0124;
971.4000;0.2963;-0.0050;
971.7000;0.2914;-0.0025;
972.0000;0.2947;0.0124;
972.3000;0.2930;0.0272;
972.6000;0.2939;0.0322;
972.9000;0.2930;0.0347;
973.2000;0.2963;0.0297;
973.5000;0.2955;0.0173;
973.8000;0.2963;0.0173;
974.1000;0.2922;0.0074;
974.4000;0.2947;0.0124;
974.7000;0.2939;0.0050;
975.0000;0.2930;0.0025;
975.3000;0.2930;0.0124;
975.6000;0.2939;0.0099;
975.9000;0.2987;0.0074;
976.2000;0.2963;0.0050;
976.5000;0.2939;-0.0025;
976.8000;0.2939;0.0074;
977.1000;0.2955;0.0173;
977.4000;0.2930;0.0124;
977.7000;0.2947;0.0149;
978.0000;0.3004;0.0272;
978.3000;0.2955;0.0050;
978.6000;0.2939;0.0099;
978.9000;0.2947;0.0124;
979.2000;0.2947;0.0149;
979.5000;0.2963;0.0173;
979.8000;0.3012;0.0322;
980.1000;0.2939;0.0099;
980.4000;0.2947;0.0025;
980.7000;0.2939;0.0025;
981.0000;0.2955;0.0173;
981.3000;0.2947;0.0149;
981.6000;0.2930;0.0099;
981.9000;0.2939;0.0198;
982.2000;0.2963;0.0198;
982.5000;0.2906;0.0025;
982.8000;0.2939;0.0099;
983.1000;0.2947;0.0149;
983.4000;0.2930;0.0124;
983.7000;0.2947;0.0099;
984.0000;0.2939;0.0025;
984.3000;0.2930;-0.0050;
984.6000;0.2947;0.0000;
984.9000;0.2955;0.0050;
985.2000;0.2963;0.0074;
985.5000;0.2947;0.0099;
985.8000;0.2947;0.0173;
986.1000;0.2955;0.0248;
986.4000;0.2955;0.0248;
986.7000;0.2947;0.0248;
987.0000;0.2939;0.0223;
987.3000;0.2955;0.0272;
987.6000;0.2955;0.0248;
987.9000;0.2947;0.0248;
988.2000;0.2947;0.0198;
988.5000;0.2947;0.0124;
988.8000;0.2971;0.0074;
989.1000;0.2955;0.0050;
989.4000;0.2963;-0.0050;
989.7000;0.2939;0.0000;
990.0000;0.2955;0.0149;
990.3000;0.2939;0.0173;
990.6000;0.2914;0.0173;
990.9000;0.2939;0.0248;
991.2000;0.2939;0.0198;
991.5000;0.2939;0.0198;
991.8000;0.2914;0.0124;
992.1000;0.2922;0.0149;
992.4000;0.2939;0.0149;
992.7000;0.2939;0.0173;
993.0000;0.2947;0.0173;
993.3000;0.2947;0.0149;
993.6000;0.2947;0.0149;
993.9000;0.2979;0.0248;
994.2000;0.2930;0.0198;
994.5000;0.3061;0.0520;
994.8000;0.2979;0.0173;
995.1000;0.2955;0.0124;
995.4000;0.2930;0.0099;
995.7000;0.2971;0.0223;
996.0000;0.2955;0.0124;
996.3000;0.2873;-0.0149;
996.6000;0.2947;0.0149;
996.9000;0.2955;0.0099;
997.2000;0.2955;0.0025;
997.5000;0.2939;0.0074;
997.8000;0.2963;0.0173;
998.1000;0.2963;0.0149;
998.4000;0.2930;0.0149;
998.7000;0.2930;0.0050;
999.0000;0.2939;0.0099;
999.3000;0.2939;0.0173;
999.6000;0.2939;0.0173;
999.9000;0.2939;0.0173;
1000.2000;0.2947;0.0173;
1000.5000;0.2987;0.0297;
1000.8000;0.2939;0.0124;
1001.1000;0.2939;0.0149;
1001.4000;0.2987;0.0223;
1001.7000;0.2865;-0.0074;
1002.0000;0.2914;0.0050;
1002.3000;0.2939;0.0099;
1002.6000;0.2947;0.0198;
1002.9000;0.2947;0.0124;
1003.2000;0.2930;0.0074;
1003.5000;0.2979;0.0173;
1003.8000;0.2955;0.0173;
1004.1000;0.2955;0.0223;
1004.4000;0.2947;0.0223;
1004.7000;0.2939;0.0223;
1005.0000;0.2947;0.0223;
1005.3000;0.2930;0.0198;
1005.6000;0.2971;0.0198;
1005.9000;0.2947;0.0173;
1006.2000;0.2947;0.0223;
1006.5000;0.2963;0.0322;
1006.8000;0.2890;0.0149;
1007.1000;0.2914;0.0297;
1007.4000;0.2947;0.0371;
1007.7000;0.2939;0.0322;
1008.0000;0.2947;0.0347;
1008.3000;0.2939;0.0322;
1008.6000;0.2963;0.0446;
1008.9000;0.2922;0.0371;
1009.2000;0.2947;0.0446;
1009.5000;0.2922;0.0322;
1009.8000;0.2947;0.0272;
1010.1000;0.2939;0.0272;
1010.4000;0.2930;0.0248;
1010.7000;0.2955;0.0272;
1011.0000;0.2996;0.0396;
1011.3000;0.2930;0.0272;
1011.6000;0.2939;0.0272;
1011.9000;0.2963;0.0297;
1012.2000;0.2939;0.0248;
1012.5000;0.2939;0.0297;
1012.8000;0.2947;0.0322;
1013.1000;0.2930;0.0198;
1013.4000;0.2947;0.0124;
1013.7000;0.2947;0.0050;
1014.0000;0.2939;-0.0025;
1014.3000;0.2930;-0.0025;
1014.6000;0.3028;0.0173;
1014.9000;0.2930;-0.0050;
1015.2000;0.2922;0.0000;
1015.5000;0.2939;0.0050;
1015.8000;0.2939;0.0025;
1016.1000;0.2930;0.0099;
1016.4000;0.2930;0.0149;
1016.7000;0.2914;0.0223;
1017.0000;0.2947;0.0371;
1017.3000;0.2963;0.0396;
1017.6000;0.2955;0.0396;
1017.9000;0.2873;0.0198;
1018.2000;0.2939;0.0223;
1018.5000;0.2898;0.0149;
1018.8000;0.2939;0.0272;
1019.1000;0.2922;0.0248;
1019.4000;0.2890;0.0272;
1019.7000;0.2947;0.0446;
1020.0000;0.2939;0.0371;
1020.3000;0.2890;0.0297;
1020.6000;0.2914;0.0347;
1020.9000;0.2939;0.0347;
1021.2000;0.2955;0.0322;
1021.5000;0.2947;0.0272;
1021.8000;0.2939;0.0297;
1022.1000;0.2955;0.0371;
1022.4000;0.2947;0.0396;
1022.7000;0.2939;0.0347;
1023.0000;0.2930;0.0272;
1023.3000;0.2939;0.0322;
1023.6000;0.2906;0.0223;
1023.9000;0.2987;0.0396;
1024.2000;0.2939;0.0347;
1024.5000;0.2930;0.0421;
1024.8000;0.2947;0.0470;
1025.1000;0.2939;0.0495;
1025.4000;0.2922;0.0421;
1025.7000;0.2914;0.0396;
1026.0000;0.2955;0.0446;
1026.3000;0.2939;0.0396;
1026.6000;0.2930;0.0347;
1026.9000;0.2939;0.0322;
1027.2000;0.2955;0.0322;
1027.5000;0.2939;0.0272;
1027.8000;0.2955;0.0322;
1028.1000;0.2922;0.0248;
1028.4000;0.2947;0.0223;
1028.7000;0.2939;0.0248;
1029.0000;0.2947;0.0248;
1029.3000;0.2939;0.0198;
1029.6000;0.2914;0.0272;
1029.9000;0.2963;0.0322;
1030.2000;0.2922;0.0272;
1030.5000;0.2939;0.0297;
1030.8000;0.2947;0.0223;
1031.1000;0.2939;0.0198;
1031.4000;0.2930;0.0124;
1031.7000;0.2947;0.0198;
1032.0000;0.2947;0.0198;
1032.3000;0.2996;0.0371;
1032.6000;0.2955;0.0371;
1032.9000;0.2922;0.0173;
1033.2000;0.2939;0.0248;
1033.5000;0.2939;0.0371;
1033.8000;0.2939;0.0396;
1034.1000;0.2914;0.0297;
1034.4000;0.2939;0.0371;
1034.7000;0.2873;0.0173;
1035.0000;0.2882;0.0198;
1035.3000;0.2947;0.0248;
1035.6000;0.2930;0.0198;
1035.9000;0.2930;0.0149;
1036.2000;0.2930;0.0124;
1036.5000;0.2930;0.0173;
1036.8000;0.2922;0.0272;
1037.1000;0.2930;0.0297;
1037.4000;0.2922;0.0297;
1037.7000;0.2939;0.0322;
1038.0000;0.2939;0.0347;
1038.3000;0.2914;0.0347;
1038.6000;0.2947;0.0371;
1038.9000;0.2947;0.0347;
1039.2000;0.2947;0.0347;
1039.5000;0.2930;0.0347;
1039.8000;0.2939;0.0371;
1040.1000;0.2947;0.0223;
1040.4000;0.2922;0.0074;
1040.7000;0.2996;0.0371;
1041.0000;0.2939;0.0149;
1041.3000;0.2996;0.0322;
1041.6000;0.2914;0.0173;
1041.9000;0.2939;0.0322;
1042.2000;0.2930;0.0248;
1042.5000;0.2930;0.0248;
1042.8000;0.2939;0.0248;
1043.1000;0.2930;0.0124;
1043.4000;0.2939;0.0223;
1043.7000;0.2963;0.0248;
1044.0000;0.2947;0.0223;
1044.3000;0.2947;0.0248;
1044.6000;0.2947;0.0248;
1044.9000;0.2947;0.0322;
1045.2000;0.2939;0.0371;
1045.5000;0.2939;0.0371;
1045.8000;0.2963;0.0520;
1046.1000;0.2930;0.0470;
1046.4000;0.2930;0.0396;
1046.7000;0.2947;0.0446;
1047.0000;0.2930;0.0347;
1047.3000;0.2922;0.0322;
1047.6000;0.2922;0.0371;
1047.9000;0.2996;0.0520;
1048.2000;0.2939;0.0421;
1048.5000;0.2922;0.0396;
1048.8000;0.2939;0.0396;
1049.1000;0.2930;0.0371;
1049.4000;0.2947;0.0396;
1049.7000;0.2930;0.0347;
1050.0000;0.2865;0.0198;
1050.3000;0.2939;0.0322;
1050.6000;0.2947;0.0322;
1050.9000;0.3004;0.0446;
1051.2000;0.2914;0.0297;
1051.5000;0.2930;0.0297;
1051.8000;0.2922;0.0272;
1052.1000;0.2947;0.0322;
1052.4000;0.2939;0.0272;
1052.7000;0.2930;0.0297;
1053.0000;0.2939;0.0248;
1053.3000;0.2939;0.0272;
1053.6000;0.2930;0.0272;
1053.9000;0.2898;0.0297;
1054.2000;0.2930;0.0371;
1054.5000;0.2939;0.0371;
1054.8000;0.2947;0.0347;
1055.1000;0.2939;0.0297;
1055.4000;0.2914;0.0322;
1055.7000;0.2930;0.0396;
1056.0000;0.2963;0.0347;
1056.3000;0.2947;0.0347;
1056.6000;0.2922;0.0173;
1056.9000;0.2947;0.0223;
1057.2000;0.2930;0.0173;
1057.5000;0.2947;0.0173;
1057.8000;0.2922;0.0248;
1058.1000;0.2914;0.0272;
1058.4000;0.2939;0.0371;
1058.7000;0.2922;0.0248;
1059.0000;0.2922;0.0272;
1059.3000;0.2914;0.0223;
1059.6000;0.2939;0.0248;
1059.9000;0.2947;0.0272;
1060.2000;0.2939;0.0198;
1060.5000;0.2939;0.0272;
1060.8000;0.2930;0.0272;
1061.1000;0.2947;0.0272;
1061.4000;0.2947;0.0297;
1061.7000;0.2939;0.0223;
1062.0000;0.2930;0.0173;
1062.3000;0.2922;0.0074;
1062.6000;0.2939;0.0124;
1062.9000;0.2914;0.0223;
1063.2000;0.2914;0.0223;
1063.5000;0.2963;0.0347;
1063.8000;0.2930;0.0347;
1064.1000;0.2947;0.0322;
1064.4000;0.2939;0.0297;
1064.7000;0.2939;0.0223;
1065.0000;0.2914;0.0149;
1065.3000;0.2930;0.0248;
1065.6000;0.2922;0.0322;
1065.9000;0.2947;0.0371;
1066.2000;0.2939;0.0421;
1066.5000;0.2922;0.0495;
1066.8000;0.2914;0.0396;
1067.1000;0.2930;0.0470;
1067.4000;0.2939;0.0347;
1067.7000;0.2930;0.0347;
1068.0000;0.2922;0.0297;
1068.3000;0.2922;0.0297;
1068.6000;0.2914;0.0198;
1068.9000;0.2939;0.0173;
1069.2000;0.2922;0.0173;
1069.5000;0.2947;0.0223;
1069.8000;0.2914;0.0149;
1070.1000;0.2979;0.0198;
1070.4000;0.2930;0.0050;
1070.7000;0.2922;0.0000;
1071.0000;0.2922;-0.0074;
1071.3000;0.2939;0.0000;
1071.6000;0.2955;0.0000;
1071.9000;0.2963;0.0000;
1072.2000;0.2947;-0.0050;
1072.5000;0.2939;0.0074;
1072.8000;0.2922;0.0074;
1073.1000;0.2922;0.0124;
1073.4000;0.2947;0.0198;
1073.7000;0.2947;0.0149;
1074.0000;0.2947;0.0149;
1074.3000;0.2947;0.0149;
1074.6000;0.2930;0.0149;
1074.9000;0.2898;-0.0025;
1075.2000;0.2939;0.0050;
1075.5000;0.2939;0.0149;
1075.8000;0.2930;0.0198;
1076.1000;0.2914;0.0173;
1076.4000;0.2939;0.0297;
1076.7000;0.2922;0.0173;
1077.0000;0.2939;0.0198;
1077.3000;0.2947;0.0173;
1077.6000;0.2939;0.0272;
1077.9000;0.2955;0.0347;
1078.2000;0.2930;0.0223;
1078.5000;0.2939;0.0347;
1078.8000;0.2922;0.0223;
1079.1000;0.2939;0.0173;
1079.4000;0.2939;0.0173;
1079.7000;0.2922;0.0223;
1080.0000;0.2922;0.0173;
1080.3000;0.2914;0.0272;
1080.6000;0.2939;0.0322;
1080.9000;0.2930;0.0223;
1081.2000;0.2922;0.0198;
1081.5000;0.2939;0.0248;
1081.8000;0.2930;0.0272;
1082.1000;0.2979;0.0396;
1082.4000;0.2930;0.0248;
1082.7000;0.2922;0.0173;
1083.0000;0.2955;0.0223;
1083.3000;0.2939;0.0223;
1083.6000;0.2930;0.0173;
1083.9000;0.2939;0.0248;
1084.2000;0.2922;0.0173;
1084.5000;0.2922;0.0198;
1084.8000;0.2930;0.0124;
1085.1000;0.2930;0.0099;
1085.4000;0.2930;0.0099;
1085.7000;0.2979;0.0223;
1086.0000;0.2930;0.0074;
1086.3000;0.2939;0.0173;
1086.6000;0.2930;0.0124;
1086.9000;0.2939;0.0099;
1087.2000;0.2939;0.0149;
1087.5000;0.2930;0.0173;
1087.8000;0.2898;0.0074;
1088.1000;0.2930;0.0173;
1088.4000;0.2939;0.0173;
1088.7000;0.2939;0.0124;
1089.0000;0.2906;-0.0074;
1089.3000;0.2947;0.0074;
1089.6000;0.2947;0.0050;
1089.9000;0.2939;-0.0025;
1090.2000;0.2947;-0.0050;
1090.5000;0.2922;-0.0025;
1090.8000;0.2971;0.0248;
1091.1000;0.2947;0.0198;
1091.4000;0.2996;0.0272;
1091.7000;0.2930;0.0099;
1092.0000;0.2971;0.0173;
1092.3000;0.2939;0.0124;
1092.6000;0.2939;0.0124;
1092.9000;0.2914;0.0074;
1093.2000;0.2882;0.0000;
1093.5000;0.2963;0.0223;
1093.8000;0.2947;0.0149;
1094.1000;0.2955;0.0025;
1094.4000;0.2947;-0.0025;
1094.7000;0.2947;-0.0050;
1095.0000;0.3004;0.0074;
1095.3000;0.2939;0.0074;
1095.6000;0.2922;0.0074;
1095.9000;0.2939;0.0074;
1096.2000;0.2930;-0.0074;
1096.5000;0.2930;-0.0124;
1096.8000;0.2939;-0.0050;
1097.1000;0.2930;-0.0050;
1097.4000;0.2930;-0.0074;
1097.7000;0.2939;-0.0074;
1098.0000;0.2947;-0.0149;
1098.3000;0.2963;-0.0124;
1098.6000;0.2930;-0.0248;
1098.9000;0.2914;-0.0248;
1099.2000;0.2930;-0.0198;
1099.5000;0.2947;-0.0149;
1099.8000;0.2947;-0.0173;
1100.1000;0.2955;-0.0223;
1100.4000;0.2955;-0.0124;
1100.7000;0.2947;-0.0050;
1101.0000;0.2930;-0.0025;
1101.3000;0.2939;-0.0050;
1101.6000;0.2930;-0.0050;
1101.9000;0.2930;0.0000;
1102.2000;0.2930;0.0025;
1102.5000;0.2898;-0.0025;
1102.8000;0.2922;0.0173;
1103.1000;0.2906;0.0173;
1103.4000;0.2914;0.0223;
1103.7000;0.2963;0.0223;
1104.0000;0.2914;0.0050;
1104.3000;0.2898;-0.0025;
1104.6000;0.2914;0.0149;
1104.9000;0.2947;0.0297;
1105.2000;0.2914;0.0322;
1105.5000;0.2922;0.0396;
1105.8000;0.2906;0.0371;
1106.1000;0.2930;0.0396;
1106.4000;0.2947;0.0446;
1106.7000;0.2906;0.0371;
1107.0000;0.2914;0.0322;
1107.3000;0.2930;0.0198;
1107.6000;0.2930;0.0223;
1107.9000;0.2947;0.0322;
1108.2000;0.2930;0.0347;
1108.5000;0.2922;0.0297;
1108.8000;0.2922;0.0297;
1109.1000;0.2947;0.0347;
1109.4000;0.2939;0.0272;
1109.7000;0.2930;0.0248;
1110.0000;0.2963;0.0347;
1110.3000;0.2947;0.0322;
1110.6000;0.3012;0.0545;
1110.9000;0.2930;0.0322;
1111.2000;0.2922;0.0297;
1111.5000;0.2922;0.0322;
1111.8000;0.2882;0.0173;
1112.1000;0.2922;0.0272;
1112.4000;0.2930;0.0198;
1112.7000;0.2939;0.0223;
1113.0000;0.2939;0.0198;
1113.3000;0.2914;0.0149;
1113.6000;0.2906;0.0074;
1113.9000;0.2922;0.0099;
1114.2000;0.2914;0.0025;
1114.5000;0.2898;0.0000;
1114.8000;0.2930;0.0173;
1115.1000;0.2914;0.0223;
1115.4000;0.2890;0.0149;
1115.7000;0.2882;0.0124;
1116.0000;0.2930;0.0322;
1116.3000;0.2898;0.0248;
1116.6000;0.2906;0.0223;
1116.9000;0.2930;0.0223;
1117.2000;0.2963;0.0322;
1117.5000;0.2906;0.0223;
1117.8000;0.2930;0.0347;
1118.1000;0.2987;0.0446;
1118.4000;0.2922;0.0371;
1118.7000;0.2922;0.0322;
1119.0000;0.2939;0.0347;
1119.3000;0.2947;0.0371;
1119.6000;0.2930;0.0347;
1119.9000;0.2939;0.0322;
1120.2000;0.2922;0.0371;
1120.5000;0.2922;0.0446;
1120.8000;0.2939;0.0495;
1121.1000;0.2922;0.0545;
1121.4000;0.2882;0.0421;
1121.7000;0.2922;0.0371;
1122.0000;0.2947;0.0347;
1122.3000;0.2930;0.0297;
1122.6000;0.2914;0.0248;
1122.9000;0.2930;0.0248;
1123.2000;0.2930;0.0297;
1123.5000;0.2939;0.0297;
1123.8000;0.2939;0.0396;
1124.1000;0.2947;0.0446;
1124.4000;0.2947;0.0421;
1124.7000;0.2930;0.0322;
1125.0000;0.2971;0.0322;
1125.3000;0.2939;0.0198;
1125.6000;0.3020;0.0421;
1125.9000;0.3028;0.0520;
1126.2000;0.2939;0.0322;
1126.5000;0.2955;0.0347;
1126.8000;0.2939;0.0371;
1127.1000;0.2987;0.0594;
1127.4000;0.2930;0.0470;
1127.7000;0.2922;0.0421;
1128.0000;0.3004;0.0669;
1128.3000;0.2930;0.0545;
1128.6000;0.2914;0.0470;
1128.9000;0.2930;0.0470;
1129.2000;0.2930;0.0495;
1129.5000;0.2922;0.0446;
1129.8000;0.2939;0.0371;
1130.1000;0.2930;0.0371;
1130.4000;0.2906;0.0223;
1130.7000;0.2979;0.0421;
1131.0000;0.2939;0.0347;
1131.3000;0.2922;0.0371;
1131.6000;0.2930;0.0446;
1131.9000;0.2914;0.0421;
1132.2000;0.2939;0.0470;
1132.5000;0.2930;0.0347;
1132.8000;0.2930;0.0297;
1133.1000;0.2930;0.0248;
1133.4000;0.2955;0.0272;
1133.7000;0.2963;0.0248;
1134.0000;0.2947;0.0149;
1134.3000;0.2939;0.0149;
1134.6000;0.2963;0.0297;
1134.9000;0.2955;0.0347;
1135.2000;0.2930;0.0347;
1135.5000;0.2939;0.0371;
1135.8000;0.2882;0.0248;
1136.1000;0.2930;0.0198;
1136.4000;0.2939;0.0173;
1136.7000;0.2922;0.0074;
1137.0000;0.2914;0.0050;
1137.3000;0.2939;0.0198;
1137.6000;0.2914;0.0198;
1137.9000;0.2939;0.0297;
1138.2000;0.2930;0.0248;
1138.5000;0.2930;0.0297;
1138.8000;0.2930;0.0223;
1139.1000;0.2930;0.0173;
1139.4000;0.2939;0.0173;
1139.7000;0.2922;0.0149;
1140.0000;0.2930;0.0173;
1140.3000;0.2914;0.0223;
1140.6000;0.2939;0.0248;
1140.9000;0.2939;0.0198;
1141.2000;0.2955;0.0198;
1141.5000;0.2914;0.0099;
1141.8000;0.2930;0.0124;
1142.1000;0.2930;0.0173;
1142.4000;0.2930;0.0272;
1142.7000;0.2939;0.0322;
1143.0000;0.2955;0.0272;
1143.3000;0.2922;0.0198;
1143.6000;0.2947;0.0297;
1143.9000;0.2898;0.0099;
1144.2000;0.2922;0.0149;
1144.5000;0.2922;0.0198;
1144.8000;0.2882;0.0124;
1145.1000;0.2971;0.0272;
1145.4000;0.2873;0.0173;
1145.7000;0.2898;0.0248;
1146.0000;0.2930;0.0297;
1146.3000;0.2930;0.0173;
1146.6000;0.2930;0.0149;
1146.9000;0.2955;0.0248;
1147.2000;0.2922;0.0248;
1147.5000;0.2922;0.0272;
1147.8000;0.2955;0.0272;
1148.1000;0.2930;0.0149;
1148.4000;0.2939;0.0198;
1148.7000;0.2939;0.0198;
1149.0000;0.2922;0.0248;
1149.3000;0.2930;0.0248;
1149.6000;0.2947;0.0297;
1149.9000;0.2963;0.0297;
1150.2000;0.2947;0.0223;
1150.5000;0.2947;0.0297;
1150.8000;0.2939;0.0297;
1151.1000;0.2930;0.0297;
1151.4000;0.2914;0.0223;
1151.7000;0.2914;0.0173;
1152.0000;0.2947;0.0297;
1152.3000;0.2930;0.0173;
1152.6000;0.2922;0.0099;
1152.9000;0.2979;0.0248;
1153.2000;0.2930;0.0248;
1153.5000;0.2930;0.0272;
1153.8000;0.2930;0.0248;
1154.1000;0.2930;0.0248;
1154.4000;0.2930;0.0198;
1154.7000;0.2865;0.0124;
1155.0000;0.2947;0.0272;
1155.3000;0.2922;0.0173;
1155.6000;0.2930;0.0248;
1155.9000;0.2890;0.0322;
1156.2000;0.2914;0.0421;
1156.5000;0.2930;0.0396;
1156.8000;0.2930;0.0297;
1157.1000;0.2939;0.0322;
1157.4000;0.2930;0.0248;
1157.7000;0.2987;0.0297;
1158.0000;0.2939;0.0198;
1158.3000;0.2930;0.0198;
1158.6000;0.2930;0.0223;
1158.9000;0.2939;0.0173;
1159.2000;0.2922;0.0149;
1159.5000;0.2939;0.0198;
1159.8000;0.2939;0.0272;
1160.1000;0.2922;0.0223;
1160.4000;0.2987;0.0371;
1160.7000;0.2930;0.0272;
1161.0000;0.2922;0.0223;
1161.3000;0.2914;0.0198;
1161.6000;0.2906;0.0223;
1161.9000;0.2930;0.0149;
1162.2000;0.2914;0.0074;
1162.5000;0.3004;0.0223;
1162.8000;0.2930;0.0025;
1163.1000;0.2922;0.0099;
1163.4000;0.2963;0.0173;
1163.7000;0.2930;0.0124;
1164.0000;0.2930;0.0149;
1164.3000;0.2955;0.0099;
1164.6000;0.2947;0.0099;
1164.9000;0.2979;0.0223;
1165.2000;0.2939;0.0149;
1165.5000;0.2939;0.0149;
1165.8000;0.2922;0.0050;
1166.1000;0.2955;0.0198;
1166.4000;0.2939;0.0050;
1166.7000;0.2898;-0.0074;
1167.0000;0.2930;-0.0074;
1167.3000;0.2930;-0.0074;
1167.6000;0.2914;-0.0025;
1167.9000;0.2914;0.0025;
1168.2000;0.2922;0.0050;
1168.5000;0.2922;0.0074;
1168.8000;0.2922;0.0099;
1169.1000;0.2939;0.0124;
1169.4000;0.2939;0.0173;
1169.7000;0.2939;0.0149;
1170.0000;0.2930;0.0124;
1170.3000;0.2939;0.0149;
1170.6000;0.2930;0.0173;
1170.9000;0.2930;0.0149;
1171.2000;0.2939;0.0074;
1171.5000;0.2939;0.0074;
1171.8000;0.2939;0.0050;
1172.1000;0.2939;0.0124;
1172.4000;0.2914;0.0173;
1172.7000;0.2873;0.0025;
1173.0000;0.2914;0.0173;
1173.3000;0.2930;0.0248;
1173.6000;0.2914;0.0322;
1173.9000;0.2955;0.0396;
1174.2000;0.2914;0.0297;
1174.5000;0.2947;0.0371;
1174.8000;0.2930;0.0347;
1175.1000;0.2930;0.0371;
1175.4000;0.2955;0.0396;
1175.7000;0.2922;0.0124;
1176.0000;0.2939;0.0223;
1176.3000;0.2930;0.0124;
1176.6000;0.2857;0.0000;
1176.9000;0.2930;0.0173;
1177.2000;0.2914;0.0198;
1177.5000;0.2890;0.0173;
1177.8000;0.2914;0.0223;
1178.1000;0.2898;0.0149;
1178.4000;0.2906;0.0099;
1178.7000;0.2914;0.0124;
1179.0000;0.2922;0.0322;
1179.3000;0.2890;0.0322;
1179.6000;0.2922;0.0421;
1179.9000;0.2955;0.0545;
1180.2000;0.2882;0.0396;
1180.5000;0.2914;0.0421;
1180.8000;0.2930;0.0347;
1181.1000;0.2939;0.0396;
1181.4000;0.2890;0.0272;
1181.7000;0.2939;0.0248;
1182.0000;0.2914;0.0173;
1182.3000;0.2922;0.0124;
1182.6000;0.2930;0.0124;
1182.9000;0.2873;0.0000;
1183.2000;0.2914;0.0173;
1183.5000;0.2922;0.0248;
1183.8000;0.2922;0.0297;
1184.1000;0.2939;0.0272;
1184.4000;0.2914;0.0223;
1184.7000;0.2930;0.0272;
1185.0000;0.2939;0.0248;
1185.3000;0.2922;0.0124;
1185.6000;0.2939;0.0149;
1185.9000;0.2930;0.0050;
1186.2000;0.2939;0.0050;
1186.5000;0.2963;0.0050;
1186.8000;0.3012;0.0198;
1187.1000;0.2939;0.0099;
1187.4000;0.2939;0.0124;
1187.7000;0.2947;0.0198;
1188.0000;0.2955;0.0248;
1188.3000;0.2898;0.0074;
1188.6000;0.2930;0.0124;
1188.9000;0.2963;0.0198;
1189.2000;0.2865;0.0000;
1189.5000;0.2939;0.0272;
1189.8000;0.2922;0.0198;
1190.1000;0.2930;0.0248;
1190.4000;0.2939;0.0272;
1190.7000;0.2930;0.0322;
1191.0000;0.2890;0.0198;
1191.3000;0.2939;0.0347;
1191.6000;0.2939;0.0347;
1191.9000;0.2906;0.0124;
1192.2000;0.2922;0.0074;
1192.5000;0.2939;0.0074;
1192.8000;0.2963;0.0124;
1193.1000;0.2939;-0.0050;
1193.4000;0.2922;-0.0074;
1193.7000;0.2922;-0.0050;
1194.0000;0.2930;-0.0074;
1194.3000;0.2947;0.0025;
1194.6000;0.2930;0.0124;
1194.9000;0.2922;0.0149;
1195.2000;0.2930;0.0124;
1195.5000;0.2955;0.0099;
1195.8000;0.2963;0.0000;
1196.1000;0.2922;-0.0074;
1196.4000;0.2914;-0.0074;
1196.7000;0.3028;0.0124;
1197.0000;0.2939;0.0050;
1197.3000;0.2930;0.0099;
1197.6000;0.2922;0.0149;
1197.9000;0.2922;0.0173;
1198.2000;0.2947;0.0099;
1198.5000;0.2922;0.0000;
1198.8000;0.2939;0.0050;
1199.1000;0.2930;0.0074;
1199.4000;0.2939;0.0149;
1199.7000;0.2939;0.0248;
1200.0000;0.2906;0.0124;
1200.3000;0.2922;0.0149;
1200.6000;0.2939;0.0173;
1200.9000;0.2922;0.0248;
1201.2000;0.2939;0.0272;
1201.5000;0.2922;0.0198;
1201.8000;0.2922;0.0248;
1202.1000;0.2939;0.0248;
1202.4000;0.2955;0.0124;
1202.7000;0.2930;0.0099;
1203.0000;0.2930;0.0000;
1203.3000;0.2922;-0.0025;
1203.6000;0.2922;-0.0025;
1203.9000;0.3012;0.0149;
1204.2000;0.2922;0.0000;
1204.5000;0.2939;0.0025;
1204.8000;0.2898;0.0025;
1205.1000;0.2930;0.0124;
1205.4000;0.2922;0.0173;
1205.7000;0.2930;0.0173;
1206.0000;0.2939;0.0198;
1206.3000;0.2930;0.0149;
1206.6000;0.2922;0.0074;
1206.9000;0.2930;0.0074;
1207.2000;0.2939;0.0149;
1207.5000;0.2939;0.0248;
1207.8000;0.2955;0.0297;
1208.1000;0.2955;0.0297;
1208.4000;0.2947;0.0223;
1208.7000;0.2939;0.0149;
1209.0000;0.2939;0.0124;
1209.3000;0.2947;0.0124;
1209.6000;0.2939;0.0149;
1209.9000;0.2930;0.0173;
1210.2000;0.2906;0.0099;
1210.5000;0.2898;0.0173;
1210.8000;0.2947;0.0248;
1211.1000;0.2930;0.0248;
1211.4000;0.2898;0.0149;
1211.7000;0.2922;0.0198;
1212.0000;0.2930;0.0149;
1212.3000;0.2922;0.0124;
1212.6000;0.2947;0.0223;
1212.9000;0.2914;0.0297;
1213.2000;0.2939;0.0297;
1213.5000;0.2939;0.0272;
1213.8000;0.2922;0.0173;
1214.1000;0.2939;0.0149;
1214.4000;0.2939;0.0223;
1214.7000;0.2922;0.0297;
1215.0000;0.2963;0.0322;
1215.3000;0.2914;0.0173;
1215.6000;0.2914;0.0149;
1215.9000;0.2930;0.0198;
1216.2000;0.2939;0.0198;
1216.5000;0.2922;0.0223;
1216.8000;0.2922;0.0223;
1217.1000;0.2922;0.0297;
1217.4000;0.2914;0.0297;
1217.7000;0.2939;0.0322;
1218.0000;0.2939;0.0347;
1218.3000;0.2914;0.0347;
1218.6000;0.2939;0.0297;
1218.9000;0.2930;0.0322;
1219.2000;0.2930;0.0297;
1219.5000;0.2939;0.0322;
1219.8000;0.2963;0.0322;
1220.1000;0.2939;0.0322;
1220.4000;0.2939;0.0371;
1220.7000;0.2947;0.0446;
1221.0000;0.2922;0.0520;
1221.3000;0.2922;0.0421;
1221.6000;0.2922;0.0322;
1221.9000;0.2930;0.0322;
1222.2000;0.2922;0.0347;
1222.5000;0.2922;0.0322;
1222.8000;0.2947;0.0347;
1223.1000;0.2914;0.0322;
1223.4000;0.2996;0.0446;
1223.7000;0.2922;0.0173;
1224.0000;0.2930;0.0173;
1224.3000;0.2955;0.0198;
1224.6000;0.2922;0.0124;
1224.9000;0.2930;0.0149;
1225.2000;0.2930;0.0124;
1225.5000;0.2939;0.0124;
1225.8000;0.2930;0.0149;
1226.1000;0.2930;0.0272;
1226.4000;0.2930;0.0173;
1226.7000;0.2922;0.0149;
1227.0000;0.2930;0.0223;
1227.3000;0.2906;0.0198;
1227.6000;0.2930;0.0223;
1227.9000;0.2922;0.0173;
1228.2000;0.2930;0.0124;
1228.5000;0.2922;0.0050;
1228.8000;0.2930;0.0074;
1229.1000;0.2906;-0.0050;
1229.4000;0.2947;0.0074;
1229.7000;0.2996;0.0297;
1230.0000;0.2930;0.0173;
1230.3000;0.2906;0.0198;
1230.6000;0.2930;0.0371;
1230.9000;0.2898;0.0248;
1231.2000;0.2906;0.0272;
1231.5000;0.2922;0.0322;
1231.8000;0.2930;0.0223;
1232.1000;0.2939;0.0149;
1232.4000;0.2947;0.0198;
1232.7000;0.2914;0.0099;
1233.0000;0.2922;0.0050;
1233.3000;0.2914;-0.0025;
1233.6000;0.2922;-0.0025;
1233.9000;0.2930;-0.0025;
1234.2000;0.2922;0.0074;
1234.5000;0.2930;0.0124;
1234.8000;0.2898;0.0000;
1235.1000;0.2930;0.0074;
1235.4000;0.2914;0.0124;
1235.7000;0.2930;0.0173;
1236.0000;0.2906;0.0198;
1236.3000;0.2922;0.0297;
1236.6000;0.2906;0.0272;
1236.9000;0.2930;0.0272;
1237.2000;0.2963;0.0371;
1237.5000;0.2906;0.0272;
1237.8000;0.2979;0.0470;
1238.1000;0.2930;0.0248;
1238.4000;0.2930;0.0272;
1238.7000;0.2955;0.0396;
1239.0000;0.2922;0.0297;
1239.3000;0.2922;0.0223;
1239.6000;0.2906;0.0149;
1239.9000;0.2939;0.0198;
1240.2000;0.2930;0.0223;
1240.5000;0.2939;0.0248;
1240.8000;0.2947;0.0149;
1241.1000;0.2930;0.0074;
1241.4000;0.2922;0.0173;
1241.7000;0.2947;0.0149;
1242.0000;0.2947;0.0099;
1242.3000;0.2939;0.0124;
1242.6000;0.2930;0.0074;
1242.9000;0.2930;0.0124;
1243.2000;0.2914;0.0198;
1243.5000;0.2930;0.0198;
1243.8000;0.2906;0.0173;
1244.1000;0.2922;0.0173;
1244.4000;0.2922;0.0198;
1244.7000;0.2890;0.0025;
1245.0000;0.2930;0.0173;
1245.3000;0.2939;0.0173;
1245.6000;0.2906;0.0074;
1245.9000;0.2971;0.0149;
1246.2000;0.2930;0.0124;
1246.5000;0.2939;0.0198;
1246.8000;0.2930;0.0149;
1247.1000;0.2930;0.0149;
1247.4000;0.2930;0.0124;
1247.7000;0.2930;0.0099;
1248.0000;0.2930;0.0000;
1248.3000;0.2914;0.0000;
1248.6000;0.2922;0.0050;
1248.9000;0.2922;0.0050;
1249.2000;0.2914;0.0074;
1249.5000;0.2930;0.0074;
1249.8000;0.2930;0.0025;
1250.1000;0.2914;-0.0025;
1250.4000;0.2906;-0.0025;
1250.7000;0.2930;0.0000;
1251.0000;0.2930;0.0025;
1251.3000;0.2914;-0.0050;
1251.6000;0.2922;0.0074;
1251.9000;0.2922;0.0099;
1252.2000;0.2906;0.0124;
1252.5000;0.2996;0.0371;
1252.8000;0.2930;0.0099;
1253.1000;0.2930;0.0099;
1253.4000;0.2930;0.0173;
1253.7000;0.2922;0.0124;
1254.0000;0.2930;0.0198;
1254.3000;0.2939;0.0223;
1254.6000;0.2930;0.0322;
1254.9000;0.2922;0.0322;
1255.2000;0.2914;0.0248;
1255.5000;0.2914;0.0272;
1255.8000;0.2922;0.0248;
1256.1000;0.2947;0.0347;
1256.4000;0.2930;0.0198;
1256.7000;0.2930;0.0149;
1257.0000;0.2914;0.0173;
1257.3000;0.2922;0.0173;
1257.6000;0.2914;0.0198;
1257.9000;0.2906;0.0272;
1258.2000;0.2939;0.0248;
1258.5000;0.2939;0.0347;
1258.8000;0.2930;0.0322;
1259.1000;0.2930;0.0297;
1259.4000;0.2930;0.0297;
1259.7000;0.2922;0.0223;
1260.0000;0.2873;0.0074;
1260.3000;0.2930;0.0198;
1260.6000;0.2865;0.0000;
1260.9000;0.2873;-0.0099;
1261.2000;0.2865;-0.0074;
1261.5000;0.2939;0.0124;
1261.8000;0.3020;0.0371;
1262.1000;0.2947;0.0149;
1262.4000;0.2971;0.0223;
1262.7000;0.2939;0.0149;
1263.0000;0.2922;0.0050;
1263.3000;0.2914;0.0074;
1263.6000;0.2971;0.0223;
1263.9000;0.2930;0.0149;
1264.2000;0.2939;0.0149;
1264.5000;0.2947;0.0124;
1264.8000;0.2939;0.0050;
1265.1000;0.2922;0.0149;
1265.4000;0.2947;0.0198;
1265.7000;0.2939;0.0173;
1266.0000;0.2930;0.0149;
1266.3000;0.2939;0.0124;
1266.6000;0.2930;0.0099;
1266.9000;0.2939;0.0124;
1267.2000;0.2930;0.0025;
1267.5000;0.2930;0.0074;
1267.8000;0.2939;0.0149;
1268.1000;0.2947;0.0173;
1268.4000;0.2955;0.0223;
1268.7000;0.2849;0.0050;
1269.0000;0.2947;0.0371;
1269.3000;0.2930;0.0347;
1269.6000;0.2955;0.0322;
1269.9000;0.2947;0.0248;
1270.2000;0.2939;0.0173;
1270.5000;0.2939;0.0124;
1270.8000;0.2922;0.0099;
1271.1000;0.2955;0.0173;
1271.4000;0.2922;0.0124;
1271.7000;0.2930;0.0149;
1272.0000;0.2963;0.0248;
1272.3000;0.2922;0.0124;
1272.6000;0.2930;0.0099;
1272.9000;0.2930;0.0198;
1273.2000;0.2939;0.0297;
1273.5000;0.2922;0.0272;
1273.8000;0.2906;0.0272;
1274.1000;0.2930;0.0322;
1274.4000;0.2939;0.0421;
1274.7000;0.2914;0.0322;
1275.0000;0.2922;0.0198;
1275.3000;0.2930;0.0272;
1275.6000;0.2922;0.0223;
1275.9000;0.2914;0.0223;
1276.2000;0.2922;0.0272;
1276.5000;0.2979;0.0396;
1276.8000;0.2922;0.0272;
1277.1000;0.2906;0.0173;
1277.4000;0.2922;0.0173;
1277.7000;0.2922;0.0297;
1278.0000;0.2906;0.0272;
1278.3000;0.2996;0.0446;
1278.6000;0.2922;0.0198;
1278.9000;0.2922;0.0173;
1279.2000;0.2930;0.0198;
1279.5000;0.2939;0.0272;
1279.8000;0.2930;0.0198;
1280.1000;0.2930;0.0149;
1280.4000;0.2930;0.0074;
1280.7000;0.2914;0.0050;
1281.0000;0.2922;0.0099;
1281.3000;0.2914;0.0074;
1281.6000;0.2914;0.0198;
1281.9000;0.2898;0.0124;
1282.2000;0.2922;0.0173;
1282.5000;0.2930;0.0124;
1282.8000;0.2939;0.0050;
1283.1000;0.2890;-0.0099;
1283.4000;0.2955;0.0050;
1283.7000;0.2914;-0.0050;
1284.0000;0.2857;-0.0272;
1284.3000;0.2922;-0.0074;
1284.6000;0.2939;-0.0074;
1284.9000;0.2955;0.0025;
1285.2000;0.2922;-0.0050;
1285.5000;0.2939;0.0074;
1285.8000;0.2930;0.0124;
1286.1000;0.2930;0.0124;
1286.4000;0.2930;0.0074;
1286.7000;0.2930;0.0074;
1287.0000;0.2955;0.0124;
1287.3000;0.2922;0.0099;
1287.6000;0.2939;0.0149;
1287.9000;0.2906;0.0124;
1288.2000;0.2922;0.0223;
1288.5000;0.2930;0.0248;
1288.8000;0.2947;0.0322;
1289.1000;0.2914;0.0198;
1289.4000;0.2922;0.0248;
1289.7000;0.2987;0.0421;
1290.0000;0.2906;0.0248;
1290.3000;0.2914;0.0248;
1290.6000;0.2939;0.0322;
1290.9000;0.2922;0.0322;
1291.2000;0.2930;0.0272;
1291.5000;0.2939;0.0223;
1291.8000;0.2963;0.0223;
1292.1000;0.2939;0.0198;
1292.4000;0.2939;0.0198;
1292.7000;0.2939;0.0173;
1293.0000;0.2939;0.0025;
1293.3000;0.2922;-0.0050;
1293.6000;0.2930;0.0050;
1293.9000;0.2922;0.0149;
1294.2000;0.2922;0.0173;
1294.5000;0.2898;0.0074;
1294.8000;0.2914;0.0074;
1295.1000;0.2922;0.0124;
1295.4000;0.2939;0.0124;
1295.7000;0.2914;0.0074;
1296.0000;0.2906;0.0000;
1296.3000;0.2939;0.0050;
1296.6000;0.2930;0.0025;
1296.9000;0.2873;-0.0149;
1297.2000;0.2914;-0.0050;
1297.5000;0.2939;0.0025;
1297.8000;0.2930;0.0025;
1298.1000;0.2914;-0.0025;
1298.4000;0.2906;0.0000;
1298.7000;0.2906;0.0124;
1299.0000;0.2922;0.0223;
1299.3000;0.2906;0.0272;
1299.6000;0.2930;0.0248;
1299.9000;0.2971;0.0297;
1300.2000;0.2914;0.0149;
1300.5000;0.2906;0.0124;
1300.8000;0.2865;0.0000;
1301.1000;0.2987;0.0322;
1301.4000;0.2914;0.0149;
1301.7000;0.2979;0.0297;
1302.0000;0.2939;0.0099;
1302.3000;0.2939;0.0149;
1302.6000;0.2939;0.0099;
1302.9000;0.2914;0.0000;
1303.2000;0.2930;-0.0074;
1303.5000;0.2947;-0.0025;
1303.8000;0.2914;-0.0074;
1304.1000;0.2914;0.0000;
1304.4000;0.2996;0.0272;
1304.7000;0.2922;0.0173;
1305.0000;0.2914;0.0173;
1305.3000;0.2947;0.0272;
1305.6000;0.2906;0.0248;
1305.9000;0.2906;0.0223;
1306.2000;0.2955;0.0297;
1306.5000;0.2947;0.0248;
1306.8000;0.2939;0.0248;
1307.1000;0.2930;0.0173;
1307.4000;0.2939;0.0272;
1307.7000;0.2930;0.0173;
1308.0000;0.2947;0.0149;
1308.3000;0.2963;0.0198;
1308.6000;0.2939;0.0124;
1308.9000;0.2922;0.0124;
1309.2000;0.2914;0.0149;
1309.5000;0.2939;0.0248;
1309.8000;0.2898;0.0198;
1310.1000;0.2906;0.0272;
1310.4000;0.2930;0.0322;
1310.7000;0.2906;0.0297;
1311.0000;0.2930;0.0396;
1311.3000;0.2930;0.0223;
1311.6000;0.2930;0.0149;
1311.9000;0.2939;0.0173;
1312.2000;0.2939;0.0173;
1312.5000;0.2914;0.0074;
1312.8000;0.2914;-0.0074;
1313.1000;0.2922;-0.0050;
1313.4000;0.2930;0.0025;
1313.7000;0.2922;0.0000;
1314.0000;0.2930;0.0000;
1314.3000;0.2930;0.0000;
1314.6000;0.2906;-0.0074;
1314.9000;0.2939;0.0050;
1315.2000;0.2930;0.0099;
1315.5000;0.2963;0.0198;
1315.8000;0.2930;0.0074;
1316.1000;0.2914;0.0025;
1316.4000;0.2930;0.0000;
1316.7000;0.2890;-0.0099;
1317.0000;0.2930;0.0050;
1317.3000;0.2939;0.0074;
1317.6000;0.2906;-0.0025;
1317.9000;0.2930;0.0099;
1318.2000;0.2930;0.0248;
1318.5000;0.2930;0.0198;
1318.8000;0.2963;0.0272;
1319.1000;0.2906;0.0099;
1319.4000;0.2922;0.0149;
1319.7000;0.2947;0.0198;
1320.0000;0.2890;0.0050;
1320.3000;0.2914;0.0173;
1320.6000;0.2906;0.0198;
1320.9000;0.2922;0.0272;
1321.2000;0.2930;0.0198;
1321.5000;0.2914;0.0223;
1321.8000;0.2996;0.0470;
1322.1000;0.2930;0.0272;
1322.4000;0.2930;0.0297;
1322.7000;0.2930;0.0322;
1323.0000;0.2922;0.0347;
1323.3000;0.2922;0.0272;
1323.6000;0.2947;0.0198;
1323.9000;0.2939;0.0272;
1324.2000;0.2930;0.0347;
1324.5000;0.2914;0.0347;
1324.8000;0.2947;0.0470;
1325.1000;0.2922;0.0347;
1325.4000;0.2963;0.0495;
1325.7000;0.2906;0.0396;
1326.0000;0.2930;0.0446;
1326.3000;0.2930;0.0470;
1326.6000;0.2914;0.0371;
1326.9000;0.2882;0.0297;
1327.2000;0.2930;0.0297;
1327.5000;0.2922;0.0149;
1327.8000;0.2939;0.0198;
1328.1000;0.2906;0.0124;
1328.4000;0.2922;0.0124;
1328.7000;0.2930;0.0124;
1329.0000;0.2939;0.0149;
1329.3000;0.2914;0.0124;
1329.6000;0.2947;0.0149;
1329.9000;0.2939;0.0149;
1330.2000;0.2979;0.0198;
1330.5000;0.2914;-0.0050;
1330.8000;0.2922;0.0000;
1331.1000;0.2930;0.0074;
1331.4000;0.2922;0.0074;
1331.7000;0.2939;0.0124;
1332.0000;0.2930;0.0050;
1332.3000;0.2930;0.0074;
1332.6000;0.2979;0.0149;
1332.9000;0.2914;-0.0025;
1333.2000;0.2914;0.0000;
1333.5000;0.2930;0.0074;
1333.8000;0.2930;0.0074;
1334.1000;0.2914;0.0025;
1334.4000;0.2922;0.0074;
1334.7000;0.2841;-0.0074;
1335.0000;0.2914;0.0124;
1335.3000;0.2930;0.0099;
1335.6000;0.2930;0.0025;
1335.9000;0.2922;0.0000;
1336.2000;0.2914;0.0000;
1336.5000;0.2906;0.0000;
1336.8000;0.2906;0.0099;
1337.1000;0.2922;0.0025;
1337.4000;0.2922;0.0025;
1337.7000;0.2914;0.0074;
1338.0000;0.2906;0.0025;
1338.3000;0.2914;0.0074;
1338.6000;0.2914;0.0124;
1338.9000;0.2922;0.0223;
1339.2000;0.2939;0.0272;
1339.5000;0.2890;0.0124;
1339.8000;0.2914;0.0000;
1340.1000;0.2930;0.0074;
1340.4000;0.2930;0.0124;
1340.7000;0.2914;0.0099;
1341.0000;0.2922;0.0074;
1341.3000;0.2930;0.0099;
1341.6000;0.2939;0.0149;
1341.9000;0.2914;0.0025;
1342.2000;0.2922;0.0000;
1342.5000;0.2914;0.0000;
1342.8000;0.2922;0.0025;
1343.1000;0.2939;0.0099;
1343.4000;0.2914;0.0074;
1343.7000;0.2922;0.0074;
1344.0000;0.2939;0.0099;
1344.3000;0.2939;0.0173;
1344.6000;0.2939;0.0025;
1344.9000;0.2922;0.0050;
1345.2000;0.2930;0.0000;
1345.5000;0.2939;0.0124;
1345.8000;0.2922;0.0149;
1346.1000;0.2922;0.0124;
1346.4000;0.2898;0.0074;
1346.7000;0.2930;0.0124;
1347.0000;0.2930;0.0173;
1347.3000;0.2890;0.0173;
1347.6000;0.2922;0.0173;
1347.9000;0.2922;0.0173;
1348.2000;0.2922;0.0223;
1348.5000;0.2906;0.0198;
1348.8000;0.2922;0.0149;
1349.1000;0.2914;0.0050;
1349.4000;0.2906;-0.0074;
1349.7000;0.2939;-0.0050;
1350.0000;0.2939;-0.0050;
1350.3000;0.2939;0.0099;
1350.6000;0.2955;0.0099;
1350.9000;0.2930;0.0050;
1351.2000;0.2947;0.0074;
1351.5000;0.2963;0.0124;
1351.8000;0.2947;0.0050;
1352.1000;0.2955;0.0050;
1352.4000;0.2922;-0.0025;
1352.7000;0.2939;0.0124;
1353.0000;0.3004;0.0347;
1353.3000;0.2939;0.0149;
1353.6000;0.2930;0.0074;
1353.9000;0.2922;-0.0025;
1354.2000;0.2906;-0.0099;
1354.5000;0.2987;0.0050;
1354.8000;0.2922;-0.0025;
1355.1000;0.2939;-0.0025;
1355.4000;0.2914;-0.0074;
1355.7000;0.2939;0.0000;
1356.0000;0.2939;-0.0025;
1356.3000;0.2939;-0.0025;
1356.6000;0.2906;-0.0074;
1356.9000;0.2930;-0.0099;
1357.2000;0.2930;-0.0050;
1357.5000;0.2947;0.0050;
1357.8000;0.2922;-0.0025;
1358.1000;0.2930;0.0074;
1358.4000;0.2987;0.0223;
1358.7000;0.2922;0.0149;
1359.0000;0.2922;0.0149;
1359.3000;0.2898;0.0099;
1359.6000;0.2890;-0.0050;
1359.9000;0.2930;0.0099;
1360.2000;0.2906;0.0050;
1360.5000;0.2947;0.0198;
1360.8000;0.2930;0.0149;
1361.1000;0.2939;0.0173;
1361.4000;0.2914;0.0173;
1361.7000;0.2939;0.0173;
1362.0000;0.2922;0.0198;
1362.3000;0.2947;0.0272;
1362.6000;0.2963;0.0173;
1362.9000;0.2947;0.0173;
1363.2000;0.2930;0.0173;
1363.5000;0.2914;0.0297;
1363.8000;0.2922;0.0223;
1364.1000;0.2939;0.0198;
1364.4000;0.2914;0.0149;
1364.7000;0.2955;0.0198;
1365.0000;0.2939;0.0223;
1365.3000;0.2947;0.0223;
1365.6000;0.2939;0.0198;
1365.9000;0.2955;0.0223;
1366.2000;0.2930;0.0149;
1366.5000;0.2930;0.0173;
1366.8000;0.2939;0.0297;
1367.1000;0.2930;0.0223;
1367.4000;0.2987;0.0223;
1367.7000;0.2955;0.0149;
1368.0000;0.2939;0.0149;
1368.3000;0.2930;0.0223;
1368.6000;0.2939;0.0223;
1368.9000;0.2930;0.0297;
1369.2000;0.2914;0.0248;
1369.5000;0.2898;0.0198;
1369.8000;0.2865;0.0124;
1370.1000;0.2939;0.0223;
1370.4000;0.2930;0.0173;
1370.7000;0.2922;0.0149;
1371.0000;0.2922;0.0074;
1371.3000;0.2914;0.0074;
1371.6000;0.2939;0.0124;
1371.9000;0.2939;0.0223;
1372.2000;0.2922;0.0173;
1372.5000;0.2930;0.0272;
1372.8000;0.2922;0.0248;
1373.1000;0.2939;0.0297;
1373.4000;0.2849;-0.0050;
1373.7000;0.2914;0.0099;
1374.0000;0.2963;0.0248;
1374.3000;0.2939;0.0248;
1374.6000;0.2922;0.0198;
1374.9000;0.3028;0.0421;
1375.2000;0.2922;0.0149;
1375.5000;0.2865;0.0050;
1375.8000;0.2914;0.0025;
1376.1000;0.2922;0.0025;
1376.4000;0.2930;0.0074;
1376.7000;0.2914;0.0074;
1377.0000;0.2865;-0.0050;
1377.3000;0.2939;0.0149;
1377.6000;0.2914;0.0050;
1377.9000;0.2898;0.0025;
1378.2000;0.2890;0.0025;
1378.5000;0.2930;0.0074;
1378.8000;0.2890;0.0000;
1379.1000;0.2922;0.0124;
1379.4000;0.2922;0.0223;
1379.7000;0.2914;0.0149;
1380.0000;0.2930;0.0149;
1380.3000;0.2898;0.0099;
1380.6000;0.2955;0.0272;
1380.9000;0.2914;0.0223;
1381.2000;0.2922;0.0149;
1381.5000;0.2914;0.0149;
1381.8000;0.2922;0.0074;
1382.1000;0.2914;0.0025;
1382.4000;0.2914;0.0050;
1382.7000;0.2914;0.0124;
1383.0000;0.2939;0.0173;
1383.3000;0.2930;0.0223;
1383.6000;0.2922;0.0248;
1383.9000;0.2922;0.0124;
1384.2000;0.2906;0.0050;
1384.5000;0.2906;0.0099;
1384.8000;0.2930;0.0223;
1385.1000;0.2906;0.0124;
1385.4000;0.2930;0.0173;
1385.7000;0.2930;0.0149;
1386.0000;0.2906;0.0074;
1386.3000;0.2922;0.0074;
1386.6000;0.2930;0.0099;
1386.9000;0.2939;0.0223;
1387.2000;0.2930;0.0149;
1387.5000;0.2922;0.0149;
1387.8000;0.2922;0.0149;
1388.1000;0.2922;0.0124;
1388.4000;0.2922;0.0297;
1388.7000;0.2922;0.0297;
1389.0000;0.2922;0.0272;
1389.3000;0.2914;0.0272;
1389.6000;0.2939;0.0223;
1389.9000;0.2939;0.0124;
1390.2000;0.2939;0.0173;
1390.5000;0.2930;0.0173;
1390.8000;0.2930;0.0272;
1391.1000;0.2930;0.0149;
1391.4000;0.2987;0.0322;
1391.7000;0.2922;0.0149;
1392.0000;0.2922;0.0124;
1392.3000;0.2922;0.0099;
1392.6000;0.2914;0.0099;
1392.9000;0.2930;0.0198;
1393.2000;0.2914;0.0074;
1393.5000;0.2922;0.0074;
1393.8000;0.2914;0.0000;
1394.1000;0.2922;0.0025;
1394.4000;0.2914;0.0050;
1394.7000;0.2939;0.0124;
1395.0000;0.2939;0.0124;
1395.3000;0.2939;0.0248;
1395.6000;0.2914;0.0173;
1395.9000;0.2914;0.0223;
1396.2000;0.2922;0.0272;
1396.5000;0.2906;0.0223;
1396.8000;0.2914;0.0173;
1397.1000;0.2922;0.0198;
1397.4000;0.2882;0.0099;
1397.7000;0.2922;0.0223;
1398.0000;0.2914;0.0173;
1398.3000;0.2930;0.0149;
1398.6000;0.2939;0.0149;
1398.9000;0.2914;0.0099;
1399.2000;0.2922;0.0124;
1399.5000;0.2930;0.0149;
1399.8000;0.2939;0.0149;
