time/ms;Fluo/V;P700 deltaI/I x10³;
-199.8000;0.4436;0.0570;
-199.5000;0.4453;0.0570;
-199.2000;0.4436;0.0570;
-198.9000;0.4444;0.0520;
-198.6000;0.4444;0.0470;
-198.3000;0.4477;0.0594;
-198.0000;0.4444;0.0470;
-197.7000;0.4453;0.0545;
-197.4000;0.4453;0.0644;
-197.1000;0.4493;0.0669;
-196.8000;0.4428;0.0446;
-196.5000;0.4461;0.0594;
-196.2000;0.4428;0.0570;
-195.9000;0.4461;0.0570;
-195.6000;0.4453;0.0520;
-195.3000;0.4436;0.0594;
-195.0000;0.4453;0.0644;
-194.7000;0.4444;0.0594;
-194.4000;0.4428;0.0594;
-194.1000;0.4428;0.0520;
-193.8000;0.4436;0.0520;
-193.5000;0.4428;0.0495;
-193.2000;0.4444;0.0594;
-192.9000;0.4444;0.0520;
-192.6000;0.4444;0.0545;
-192.3000;0.4420;0.0446;
-192.0000;0.4428;0.0421;
-191.7000;0.4444;0.0495;
-191.4000;0.4436;0.0446;
-191.1000;0.4444;0.0495;
-190.8000;0.4444;0.0520;
-190.5000;0.4436;0.0470;
-190.2000;0.4428;0.0421;
-189.9000;0.4444;0.0470;
-189.6000;0.4436;0.0421;
-189.3000;0.4428;0.0396;
-189.0000;0.4436;0.0446;
-188.7000;0.4453;0.0470;
-188.4000;0.4428;0.0495;
-188.1000;0.4428;0.0520;
-187.8000;0.4444;0.0570;
-187.5000;0.4428;0.0619;
-187.2000;0.4436;0.0644;
-186.9000;0.4444;0.0619;
-186.6000;0.4436;0.0594;
-186.3000;0.4453;0.0718;
-186.0000;0.4461;0.0693;
-185.7000;0.4436;0.0545;
-185.4000;0.4436;0.0545;
-185.1000;0.4444;0.0619;
-184.8000;0.4436;0.0619;
-184.5000;0.4436;0.0619;
-184.2000;0.4444;0.0570;
-183.9000;0.4420;0.0619;
-183.6000;0.4453;0.0718;
-183.3000;0.4444;0.0644;
-183.0000;0.4420;0.0545;
-182.7000;0.4444;0.0520;
-182.4000;0.4453;0.0495;
-182.1000;0.4436;0.0446;
-181.8000;0.4444;0.0396;
-181.5000;0.4444;0.0297;
-181.2000;0.4444;0.0347;
-180.9000;0.4461;0.0371;
-180.6000;0.4436;0.0248;
-180.3000;0.4436;0.0297;
-180.0000;0.4436;0.0297;
-179.7000;0.4444;0.0248;
-179.4000;0.4428;0.0322;
-179.1000;0.4363;0.0173;
-178.8000;0.4436;0.0347;
-178.5000;0.4444;0.0297;
-178.2000;0.4444;0.0272;
-177.9000;0.4420;0.0198;
-177.6000;0.4436;0.0198;
-177.3000;0.4436;0.0248;
-177.0000;0.4453;0.0322;
-176.7000;0.4444;0.0272;
-176.4000;0.4436;0.0297;
-176.1000;0.4444;0.0347;
-175.8000;0.4453;0.0371;
-175.5000;0.4453;0.0446;
-175.2000;0.4453;0.0421;
-174.9000;0.4453;0.0446;
-174.6000;0.4444;0.0371;
-174.3000;0.4444;0.0371;
-174.0000;0.4444;0.0371;
-173.7000;0.4444;0.0347;
-173.4000;0.4453;0.0396;
-173.1000;0.4436;0.0446;
-172.8000;0.4428;0.0446;
-172.5000;0.4428;0.0396;
-172.2000;0.4453;0.0421;
-171.9000;0.4453;0.0446;
-171.6000;0.4444;0.0421;
-171.3000;0.4444;0.0470;
-171.0000;0.4436;0.0322;
-170.7000;0.4436;0.0272;
-170.4000;0.4453;0.0297;
-170.1000;0.4444;0.0297;
-169.8000;0.4436;0.0248;
-169.5000;0.4444;0.0297;
-169.2000;0.4420;0.0223;
-168.9000;0.4428;0.0272;
-168.6000;0.4453;0.0272;
-168.3000;0.4420;0.0173;
-168.0000;0.4453;0.0198;
-167.7000;0.4436;0.0149;
-167.4000;0.4436;0.0124;
-167.1000;0.4387;0.0099;
-166.8000;0.4428;0.0198;
-166.5000;0.4444;0.0297;
-166.2000;0.4436;0.0248;
-165.9000;0.4428;0.0272;
-165.6000;0.4436;0.0198;
-165.3000;0.4436;0.0173;
-165.0000;0.4428;0.0248;
-164.7000;0.4444;0.0297;
-164.4000;0.4461;0.0322;
-164.1000;0.4453;0.0272;
-163.8000;0.4444;0.0272;
-163.5000;0.4436;0.0248;
-163.2000;0.4444;0.0421;
-162.9000;0.4436;0.0396;
-162.6000;0.4444;0.0421;
-162.3000;0.4428;0.0446;
-162.0000;0.4444;0.0446;
-161.7000;0.4436;0.0570;
-161.4000;0.4444;0.0520;
-161.1000;0.4387;0.0322;
-160.8000;0.4436;0.0470;
-160.5000;0.4444;0.0446;
-160.2000;0.4461;0.0421;
-159.9000;0.4420;0.0297;
-159.6000;0.4444;0.0396;
-159.3000;0.4469;0.0545;
-159.0000;0.4436;0.0520;
-158.7000;0.4469;0.0594;
-158.4000;0.4444;0.0520;
-158.1000;0.4444;0.0495;
-157.8000;0.4444;0.0520;
-157.5000;0.4444;0.0520;
-157.2000;0.4428;0.0446;
-156.9000;0.4444;0.0446;
-156.6000;0.4444;0.0470;
-156.3000;0.4444;0.0545;
-156.0000;0.4428;0.0570;
-155.7000;0.4420;0.0495;
-155.4000;0.4436;0.0594;
-155.1000;0.4379;0.0470;
-154.8000;0.4436;0.0644;
-154.5000;0.4436;0.0669;
-154.2000;0.4453;0.0693;
-153.9000;0.4412;0.0619;
-153.6000;0.4444;0.0718;
-153.3000;0.4453;0.0594;
-153.0000;0.4461;0.0545;
-152.7000;0.4461;0.0644;
-152.4000;0.4436;0.0570;
-152.1000;0.4444;0.0520;
-151.8000;0.4387;0.0347;
-151.5000;0.4428;0.0421;
-151.2000;0.4420;0.0396;
-150.9000;0.4428;0.0322;
-150.6000;0.4453;0.0272;
-150.3000;0.4469;0.0371;
-150.0000;0.4477;0.0421;
-149.7000;0.4436;0.0322;
-149.4000;0.4453;0.0396;
-149.1000;0.4444;0.0396;
-148.8000;0.4461;0.0396;
-148.5000;0.4428;0.0421;
-148.2000;0.4444;0.0396;
-147.9000;0.4412;0.0322;
-147.6000;0.4444;0.0371;
-147.3000;0.4436;0.0322;
-147.0000;0.4420;0.0272;
-146.7000;0.4428;0.0297;
-146.4000;0.4436;0.0297;
-146.1000;0.4428;0.0322;
-145.8000;0.4477;0.0470;
-145.5000;0.4428;0.0371;
-145.2000;0.4436;0.0446;
-144.9000;0.4444;0.0619;
-144.6000;0.4510;0.0817;
-144.3000;0.4428;0.0644;
-144.0000;0.4453;0.0718;
-143.7000;0.4444;0.0669;
-143.4000;0.4436;0.0545;
-143.1000;0.4428;0.0470;
-142.8000;0.4428;0.0421;
-142.5000;0.4412;0.0347;
-142.2000;0.4436;0.0421;
-141.9000;0.4469;0.0396;
-141.6000;0.4428;0.0297;
-141.3000;0.4436;0.0421;
-141.0000;0.4444;0.0371;
-140.7000;0.4347;0.0173;
-140.4000;0.4444;0.0446;
-140.1000;0.4420;0.0371;
-139.8000;0.4444;0.0421;
-139.5000;0.4444;0.0396;
-139.2000;0.4436;0.0446;
-138.9000;0.4461;0.0470;
-138.6000;0.4444;0.0470;
-138.3000;0.4444;0.0545;
-138.0000;0.4436;0.0669;
-137.7000;0.4436;0.0693;
-137.4000;0.4420;0.0619;
-137.1000;0.4444;0.0644;
-136.8000;0.4469;0.0669;
-136.5000;0.4428;0.0644;
-136.2000;0.4444;0.0644;
-135.9000;0.4436;0.0570;
-135.6000;0.4420;0.0545;
-135.3000;0.4436;0.0594;
-135.0000;0.4526;0.0842;
-134.7000;0.4436;0.0619;
-134.4000;0.4436;0.0619;
-134.1000;0.4436;0.0693;
-133.8000;0.4436;0.0594;
-133.5000;0.4493;0.0669;
-133.2000;0.4444;0.0570;
-132.9000;0.4485;0.0743;
-132.6000;0.4444;0.0619;
-132.3000;0.4428;0.0570;
-132.0000;0.4444;0.0570;
-131.7000;0.4420;0.0470;
-131.4000;0.4436;0.0446;
-131.1000;0.4444;0.0421;
-130.8000;0.4444;0.0520;
-130.5000;0.4436;0.0520;
-130.2000;0.4453;0.0570;
-129.9000;0.4436;0.0545;
-129.6000;0.4444;0.0644;
-129.3000;0.4444;0.0693;
-129.0000;0.4428;0.0619;
-128.7000;0.4444;0.0619;
-128.4000;0.4444;0.0545;
-128.1000;0.4477;0.0570;
-127.8000;0.4444;0.0570;
-127.5000;0.4420;0.0619;
-127.2000;0.4453;0.0669;
-126.9000;0.4436;0.0669;
-126.6000;0.4428;0.0718;
-126.3000;0.4396;0.0570;
-126.0000;0.4428;0.0619;
-125.7000;0.4404;0.0520;
-125.4000;0.4444;0.0644;
-125.1000;0.4420;0.0470;
-124.8000;0.4428;0.0421;
-124.5000;0.4444;0.0347;
-124.2000;0.4453;0.0322;
-123.9000;0.4420;0.0297;
-123.6000;0.4404;0.0322;
-123.3000;0.4371;0.0297;
-123.0000;0.4436;0.0396;
-122.7000;0.4453;0.0470;
-122.4000;0.4436;0.0421;
-122.1000;0.4453;0.0495;
-121.8000;0.4428;0.0495;
-121.5000;0.4453;0.0570;
-121.2000;0.4444;0.0520;
-120.9000;0.4477;0.0619;
-120.6000;0.4453;0.0495;
-120.3000;0.4444;0.0520;
-120.0000;0.4477;0.0619;
-119.7000;0.4444;0.0570;
-119.4000;0.4444;0.0644;
-119.1000;0.4436;0.0718;
-118.8000;0.4428;0.0693;
-118.5000;0.4477;0.0842;
-118.2000;0.4428;0.0594;
-117.9000;0.4469;0.0619;
-117.6000;0.4412;0.0495;
-117.3000;0.4404;0.0446;
-117.0000;0.4444;0.0520;
-116.7000;0.4444;0.0594;
-116.4000;0.4510;0.0718;
-116.1000;0.4461;0.0594;
-115.8000;0.4444;0.0495;
-115.5000;0.4461;0.0520;
-115.2000;0.4469;0.0520;
-114.9000;0.4453;0.0520;
-114.6000;0.4469;0.0570;
-114.3000;0.4436;0.0520;
-114.0000;0.4436;0.0545;
-113.7000;0.4453;0.0520;
-113.4000;0.4436;0.0495;
-113.1000;0.4453;0.0594;
-112.8000;0.4453;0.0644;
-112.5000;0.4453;0.0594;
-112.2000;0.4436;0.0570;
-111.9000;0.4420;0.0545;
-111.6000;0.4428;0.0520;
-111.3000;0.4453;0.0520;
-111.0000;0.4436;0.0520;
-110.7000;0.4485;0.0768;
-110.4000;0.4453;0.0743;
-110.1000;0.4461;0.0669;
-109.8000;0.4387;0.0396;
-109.5000;0.4420;0.0470;
-109.2000;0.4436;0.0545;
-108.9000;0.4436;0.0619;
-108.6000;0.4453;0.0669;
-108.3000;0.4444;0.0619;
-108.0000;0.4436;0.0570;
-107.7000;0.4420;0.0545;
-107.4000;0.4444;0.0594;
-107.1000;0.4428;0.0545;
-106.8000;0.4469;0.0644;
-106.5000;0.4436;0.0545;
-106.2000;0.4444;0.0570;
-105.9000;0.4436;0.0669;
-105.6000;0.4436;0.0743;
-105.3000;0.4436;0.0718;
-105.0000;0.4493;0.0817;
-104.7000;0.4469;0.0743;
-104.4000;0.4453;0.0669;
-104.1000;0.4436;0.0644;
-103.8000;0.4363;0.0396;
-103.5000;0.4453;0.0644;
-103.2000;0.4444;0.0570;
-102.9000;0.4453;0.0644;
-102.6000;0.4444;0.0619;
-102.3000;0.4501;0.0743;
-102.0000;0.4428;0.0570;
-101.7000;0.4436;0.0520;
-101.4000;0.4420;0.0470;
-101.1000;0.4428;0.0495;
-100.8000;0.4404;0.0470;
-100.5000;0.4469;0.0619;
-100.2000;0.4436;0.0520;
-99.9000;0.4412;0.0371;
-99.6000;0.4436;0.0470;
-99.3000;0.4444;0.0396;
-99.0000;0.4404;0.0297;
-98.7000;0.4420;0.0371;
-98.4000;0.4444;0.0396;
-98.1000;0.4436;0.0297;
-97.8000;0.4461;0.0322;
-97.5000;0.4444;0.0272;
-97.2000;0.4420;0.0272;
-96.9000;0.4436;0.0347;
-96.6000;0.4436;0.0446;
-96.3000;0.4428;0.0446;
-96.0000;0.4453;0.0545;
-95.7000;0.4396;0.0470;
-95.4000;0.4436;0.0619;
-95.1000;0.4420;0.0545;
-94.8000;0.4396;0.0470;
-94.5000;0.4477;0.0545;
-94.2000;0.4428;0.0495;
-93.9000;0.4461;0.0520;
-93.6000;0.4436;0.0446;
-93.3000;0.4428;0.0470;
-93.0000;0.4461;0.0644;
-92.7000;0.4436;0.0619;
-92.4000;0.4404;0.0644;
-92.1000;0.4436;0.0693;
-91.8000;0.4420;0.0594;
-91.5000;0.4436;0.0570;
-91.2000;0.4436;0.0495;
-90.9000;0.4444;0.0520;
-90.6000;0.4461;0.0545;
-90.3000;0.4428;0.0495;
-90.0000;0.4444;0.0495;
-89.7000;0.4428;0.0545;
-89.4000;0.4485;0.0842;
-89.1000;0.4444;0.0768;
-88.8000;0.4436;0.0743;
-88.5000;0.4444;0.0792;
-88.2000;0.4444;0.0768;
-87.9000;0.4477;0.0867;
-87.6000;0.4412;0.0718;
-87.3000;0.4436;0.0768;
-87.0000;0.4420;0.0693;
-86.7000;0.4453;0.0693;
-86.4000;0.4444;0.0594;
-86.1000;0.4453;0.0594;
-85.8000;0.4420;0.0421;
-85.5000;0.4420;0.0470;
-85.2000;0.4436;0.0495;
-84.9000;0.4428;0.0495;
-84.6000;0.4428;0.0495;
-84.3000;0.4436;0.0520;
-84.0000;0.4444;0.0594;
-83.7000;0.4477;0.0693;
-83.4000;0.4436;0.0545;
-83.1000;0.4436;0.0545;
-82.8000;0.4428;0.0545;
-82.5000;0.4453;0.0470;
-82.2000;0.4404;0.0371;
-81.9000;0.4493;0.0594;
-81.6000;0.4420;0.0446;
-81.3000;0.4436;0.0495;
-81.0000;0.4436;0.0470;
-80.7000;0.4379;0.0322;
-80.4000;0.4436;0.0570;
-80.1000;0.4428;0.0619;
-79.8000;0.4428;0.0470;
-79.5000;0.4436;0.0446;
-79.2000;0.4436;0.0520;
-78.9000;0.4444;0.0520;
-78.6000;0.4444;0.0446;
-78.3000;0.4444;0.0446;
-78.0000;0.4428;0.0446;
-77.7000;0.4444;0.0570;
-77.4000;0.4436;0.0520;
-77.1000;0.4428;0.0520;
-76.8000;0.4436;0.0570;
-76.5000;0.4420;0.0520;
-76.2000;0.4436;0.0495;
-75.9000;0.4428;0.0396;
-75.6000;0.4461;0.0470;
-75.3000;0.4420;0.0396;
-75.0000;0.4396;0.0322;
-74.7000;0.4420;0.0470;
-74.4000;0.4412;0.0421;
-74.1000;0.4428;0.0520;
-73.8000;0.4436;0.0545;
-73.5000;0.4436;0.0470;
-73.2000;0.4428;0.0371;
-72.9000;0.4428;0.0371;
-72.6000;0.4453;0.0421;
-72.3000;0.4453;0.0322;
-72.0000;0.4444;0.0272;
-71.7000;0.4436;0.0297;
-71.4000;0.4453;0.0371;
-71.1000;0.4461;0.0470;
-70.8000;0.4444;0.0371;
-70.5000;0.4469;0.0570;
-70.2000;0.4493;0.0594;
-69.9000;0.4453;0.0545;
-69.6000;0.4453;0.0545;
-69.3000;0.4436;0.0470;
-69.0000;0.4461;0.0495;
-68.7000;0.4461;0.0545;
-68.4000;0.4436;0.0594;
-68.1000;0.4412;0.0545;
-67.8000;0.4444;0.0520;
-67.5000;0.4436;0.0520;
-67.2000;0.4444;0.0495;
-66.9000;0.4396;0.0371;
-66.6000;0.4428;0.0446;
-66.3000;0.4453;0.0396;
-66.0000;0.4444;0.0446;
-65.7000;0.4444;0.0421;
-65.4000;0.4428;0.0347;
-65.1000;0.4420;0.0322;
-64.8000;0.4428;0.0470;
-64.5000;0.4453;0.0545;
-64.2000;0.4444;0.0495;
-63.9000;0.4436;0.0495;
-63.6000;0.4396;0.0396;
-63.3000;0.4444;0.0495;
-63.0000;0.4355;0.0297;
-62.7000;0.4420;0.0594;
-62.4000;0.4469;0.0693;
-62.1000;0.4444;0.0545;
-61.8000;0.4436;0.0470;
-61.5000;0.4420;0.0446;
-61.2000;0.4436;0.0470;
-60.9000;0.4436;0.0495;
-60.6000;0.4412;0.0446;
-60.3000;0.4453;0.0545;
-60.0000;0.4444;0.0495;
-59.7000;0.4461;0.0470;
-59.4000;0.4461;0.0396;
-59.1000;0.4428;0.0421;
-58.8000;0.4436;0.0495;
-58.5000;0.4420;0.0421;
-58.2000;0.4453;0.0495;
-57.9000;0.4436;0.0570;
-57.6000;0.4428;0.0545;
-57.3000;0.4453;0.0594;
-57.0000;0.4428;0.0570;
-56.7000;0.4428;0.0718;
-56.4000;0.4436;0.0743;
-56.1000;0.4436;0.0792;
-55.8000;0.4453;0.0817;
-55.5000;0.4444;0.0842;
-55.2000;0.4501;0.0991;
-54.9000;0.4412;0.0867;
-54.6000;0.4436;0.0817;
-54.3000;0.4444;0.0842;
-54.0000;0.4428;0.0768;
-53.7000;0.4420;0.0743;
-53.4000;0.4436;0.0792;
-53.1000;0.4436;0.0768;
-52.8000;0.4436;0.0718;
-52.5000;0.4428;0.0644;
-52.2000;0.4428;0.0644;
-51.9000;0.4444;0.0718;
-51.6000;0.4420;0.0669;
-51.3000;0.4436;0.0743;
-51.0000;0.4428;0.0693;
-50.7000;0.4444;0.0693;
-50.4000;0.4444;0.0594;
-50.1000;0.4444;0.0619;
-49.8000;0.4461;0.0743;
-49.5000;0.4453;0.0817;
-49.2000;0.4444;0.0817;
-48.9000;0.4436;0.0792;
-48.6000;0.4404;0.0619;
-48.3000;0.4436;0.0693;
-48.0000;0.4477;0.0768;
-47.7000;0.4493;0.0842;
-47.4000;0.4428;0.0619;
-47.1000;0.4461;0.0693;
-46.8000;0.4444;0.0619;
-46.5000;0.4444;0.0594;
-46.2000;0.4444;0.0619;
-45.9000;0.4436;0.0644;
-45.6000;0.4436;0.0669;
-45.3000;0.4436;0.0619;
-45.0000;0.4453;0.0669;
-44.7000;0.4453;0.0693;
-44.4000;0.4453;0.0545;
-44.1000;0.4453;0.0619;
-43.8000;0.4428;0.0594;
-43.5000;0.4461;0.0594;
-43.2000;0.4444;0.0520;
-42.9000;0.4428;0.0495;
-42.6000;0.4444;0.0470;
-42.3000;0.4453;0.0470;
-42.0000;0.4436;0.0421;
-41.7000;0.4436;0.0347;
-41.4000;0.4444;0.0446;
-41.1000;0.4428;0.0396;
-40.8000;0.4444;0.0446;
-40.5000;0.4412;0.0446;
-40.2000;0.4453;0.0495;
-39.9000;0.4444;0.0520;
-39.6000;0.4477;0.0669;
-39.3000;0.4444;0.0570;
-39.0000;0.4436;0.0644;
-38.7000;0.4436;0.0644;
-38.4000;0.4444;0.0570;
-38.1000;0.4428;0.0545;
-37.8000;0.4444;0.0570;
-37.5000;0.4453;0.0520;
-37.2000;0.4436;0.0446;
-36.9000;0.4420;0.0520;
-36.6000;0.4461;0.0718;
-36.3000;0.4436;0.0594;
-36.0000;0.4444;0.0470;
-35.7000;0.4444;0.0545;
-35.4000;0.4436;0.0570;
-35.1000;0.4485;0.0817;
-34.8000;0.4444;0.0644;
-34.5000;0.4436;0.0570;
-34.2000;0.4444;0.0545;
-33.9000;0.4444;0.0545;
-33.6000;0.4396;0.0446;
-33.3000;0.4444;0.0644;
-33.0000;0.4436;0.0669;
-32.7000;0.4387;0.0570;
-32.4000;0.4444;0.0669;
-32.1000;0.4420;0.0594;
-31.8000;0.4420;0.0693;
-31.5000;0.4436;0.0693;
-31.2000;0.4412;0.0570;
-30.9000;0.4444;0.0693;
-30.6000;0.4461;0.0743;
-30.3000;0.4444;0.0619;
-30.0000;0.4453;0.0619;
-29.7000;0.4379;0.0520;
-29.4000;0.4436;0.0718;
-29.1000;0.4428;0.0669;
-28.8000;0.4436;0.0718;
-28.5000;0.4436;0.0693;
-28.2000;0.4436;0.0669;
-27.9000;0.4420;0.0520;
-27.6000;0.4436;0.0520;
-27.3000;0.4436;0.0570;
-27.0000;0.4444;0.0594;
-26.7000;0.4469;0.0669;
-26.4000;0.4420;0.0520;
-26.1000;0.4444;0.0619;
-25.8000;0.4444;0.0570;
-25.5000;0.4420;0.0495;
-25.2000;0.4420;0.0495;
-24.9000;0.4420;0.0470;
-24.6000;0.4436;0.0619;
-24.3000;0.4428;0.0669;
-24.0000;0.4420;0.0594;
-23.7000;0.4436;0.0594;
-23.4000;0.4444;0.0570;
-23.1000;0.4436;0.0570;
-22.8000;0.4444;0.0619;
-22.5000;0.4428;0.0594;
-22.2000;0.4436;0.0619;
-21.9000;0.4436;0.0570;
-21.6000;0.4436;0.0570;
-21.3000;0.4436;0.0619;
-21.0000;0.4428;0.0669;
-20.7000;0.4444;0.0619;
-20.4000;0.4412;0.0520;
-20.1000;0.4436;0.0594;
-19.8000;0.4436;0.0520;
-19.5000;0.4428;0.0495;
-19.2000;0.4453;0.0470;
-18.9000;0.4428;0.0470;
-18.6000;0.4444;0.0446;
-18.3000;0.4453;0.0421;
-18.0000;0.4371;0.0248;
-17.7000;0.4428;0.0421;
-17.4000;0.4420;0.0396;
-17.1000;0.4428;0.0446;
-16.8000;0.4420;0.0446;
-16.5000;0.4428;0.0421;
-16.2000;0.4436;0.0371;
-15.9000;0.4420;0.0495;
-15.6000;0.4444;0.0545;
-15.3000;0.4428;0.0520;
-15.0000;0.4412;0.0495;
-14.7000;0.4444;0.0545;
-14.4000;0.4444;0.0619;
-14.1000;0.4444;0.0545;
-13.8000;0.4420;0.0495;
-13.5000;0.4436;0.0594;
-13.2000;0.4444;0.0644;
-12.9000;0.4453;0.0619;
-12.6000;0.4444;0.0644;
-12.3000;0.4444;0.0644;
-12.0000;0.4444;0.0619;
-11.7000;0.4453;0.0594;
-11.4000;0.4428;0.0520;
-11.1000;0.4428;0.0470;
-10.8000;0.4436;0.0495;
-10.5000;0.4444;0.0520;
-10.2000;0.4420;0.0470;
-9.9000;0.4428;0.0421;
-9.6000;0.4436;0.0347;
-9.3000;0.4444;0.0396;
-9.0000;0.4444;0.0421;
-8.7000;0.4379;0.0248;
-8.4000;0.4428;0.0446;
-8.1000;0.4412;0.0470;
-7.8000;0.4436;0.0669;
-7.5000;0.4436;0.0669;
-7.2000;0.4436;0.0545;
-6.9000;0.4469;0.0718;
-6.6000;0.4453;0.0693;
-6.3000;0.4444;0.0718;
-6.0000;0.4453;0.0644;
-5.7000;0.4444;0.0570;
-5.4000;0.4436;0.0619;
-5.1000;0.4444;0.0644;
-4.8000;0.4453;0.0669;
-4.5000;0.4412;0.0644;
-4.2000;0.4436;0.0520;
-3.9000;0.4461;0.0545;
-3.6000;0.4436;0.0421;
-3.3000;0.4412;0.0322;
-3.0000;0.4444;0.0297;
-2.7000;0.4436;0.0272;
-2.4000;0.4461;0.0223;
-2.1000;0.4444;0.0272;
-1.8000;0.4420;0.0322;
-1.5000;0.4387;0.0272;
-1.2000;0.4444;0.0396;
-0.9000;0.4412;0.0272;
-0.6000;0.4420;0.0297;
-0.3000;0.4444;0.0371;
0.0000;0.4444;0.0371;
0.3000;0.4444;0.0000;
0.6000;0.4436;0.0248;
0.9000;0.4420;0.0322;
1.2000;0.4412;0.0495;
1.5000;0.4420;0.0594;
1.8000;0.4396;0.0669;
2.1000;0.4412;0.0718;
2.4000;0.4412;0.0768;
2.7000;0.4420;0.0792;
3.0000;0.4396;0.0842;
3.3000;0.4412;0.0941;
3.6000;0.4404;0.1065;
3.9000;0.4436;0.1263;
4.2000;0.4412;0.1288;
4.5000;0.4404;0.1263;
4.8000;0.4412;0.1362;
5.1000;0.4404;0.1362;
5.4000;0.4477;0.1610;
5.7000;0.4420;0.1486;
6.0000;0.4428;0.1436;
6.3000;0.4420;0.1411;
6.6000;0.4404;0.1387;
6.9000;0.4396;0.1312;
7.2000;0.4428;0.1436;
7.5000;0.4428;0.1436;
7.8000;0.4428;0.1362;
8.1000;0.4412;0.1362;
8.4000;0.4428;0.1560;
8.7000;0.4436;0.1511;
9.0000;0.4428;0.1535;
9.3000;0.4428;0.1535;
9.6000;0.4428;0.1659;
9.9000;0.4461;0.1758;
10.2000;0.4453;0.1733;
10.5000;0.4444;0.1634;
10.8000;0.4412;0.1560;
11.1000;0.4444;0.1585;
11.4000;0.4453;0.1634;
11.7000;0.4420;0.1535;
12.0000;0.4436;0.1659;
12.3000;0.4436;0.1659;
12.6000;0.4444;0.1585;
12.9000;0.4453;0.1535;
13.2000;0.4453;0.1535;
13.5000;0.4461;0.1585;
13.8000;0.4412;0.1535;
14.1000;0.4444;0.1585;
14.4000;0.4453;0.1733;
14.7000;0.4428;0.1585;
15.0000;0.4436;0.1610;
15.3000;0.4428;0.1535;
15.6000;0.4453;0.1585;
15.9000;0.4444;0.1511;
16.2000;0.4444;0.1511;
16.5000;0.4453;0.1610;
16.8000;0.4453;0.1758;
17.1000;0.4453;0.1709;
17.4000;0.4453;0.1733;
17.7000;0.4444;0.1709;
18.0000;0.4444;0.1709;
18.3000;0.4461;0.1610;
18.6000;0.4469;0.1634;
18.9000;0.4469;0.1585;
19.2000;0.4469;0.1684;
19.5000;0.4461;0.1659;
19.8000;0.4444;0.1733;
20.1000;0.4461;0.1733;
20.4000;0.4453;0.1758;
20.7000;0.4428;0.1659;
21.0000;0.4453;0.1733;
21.3000;0.4444;0.1733;
21.6000;0.4461;0.1783;
21.9000;0.4444;0.1659;
22.2000;0.4469;0.1684;
22.5000;0.4477;0.1684;
22.8000;0.4461;0.1610;
23.1000;0.4469;0.1659;
23.4000;0.4444;0.1709;
23.7000;0.4436;0.1684;
24.0000;0.4444;0.1659;
24.3000;0.4453;0.1634;
24.6000;0.4444;0.1659;
24.9000;0.4453;0.1634;
25.2000;0.4436;0.1684;
25.5000;0.4461;0.1684;
25.8000;0.4469;0.1684;
26.1000;0.4485;0.1733;
26.4000;0.4469;0.1783;
26.7000;0.4477;0.1709;
27.0000;0.4485;0.1659;
27.3000;0.4469;0.1610;
27.6000;0.4493;0.1585;
27.9000;0.4461;0.1585;
28.2000;0.4469;0.1634;
28.5000;0.4469;0.1783;
28.8000;0.4461;0.1733;
29.1000;0.4461;0.1808;
29.4000;0.4477;0.1808;
29.7000;0.4469;0.1832;
30.0000;0.4469;0.1882;
30.3000;0.4444;0.1857;
30.6000;0.4518;0.2031;
30.9000;0.4485;0.1931;
31.2000;0.4469;0.1981;
31.5000;0.4461;0.1832;
31.8000;0.4461;0.1882;
32.1000;0.4469;0.1907;
32.4000;0.4469;0.1907;
32.7000;0.4485;0.1832;
33.0000;0.4453;0.1709;
33.3000;0.4477;0.1783;
33.6000;0.4469;0.1832;
33.9000;0.4477;0.1907;
34.2000;0.4469;0.1981;
34.5000;0.4469;0.1981;
34.8000;0.4477;0.1956;
35.1000;0.4477;0.1956;
35.4000;0.4469;0.1931;
35.7000;0.4412;0.1709;
36.0000;0.4485;0.1956;
36.3000;0.4485;0.1981;
36.6000;0.4485;0.1981;
36.9000;0.4485;0.1981;
37.2000;0.4510;0.1931;
37.5000;0.4493;0.1882;
37.8000;0.4469;0.1808;
38.1000;0.4453;0.1832;
38.4000;0.4501;0.1956;
38.7000;0.4469;0.1907;
39.0000;0.4477;0.1832;
39.3000;0.4444;0.1634;
39.6000;0.4453;0.1634;
39.9000;0.4534;0.1758;
40.2000;0.4477;0.1709;
40.5000;0.4461;0.1659;
40.8000;0.4469;0.1684;
41.1000;0.4453;0.1684;
41.4000;0.4444;0.1733;
41.7000;0.4461;0.1758;
42.0000;0.4534;0.1907;
42.3000;0.4469;0.1634;
42.6000;0.4501;0.1659;
42.9000;0.4477;0.1634;
43.2000;0.4461;0.1560;
43.5000;0.4485;0.1486;
43.8000;0.4477;0.1436;
44.1000;0.4485;0.1511;
44.4000;0.4477;0.1560;
44.7000;0.4461;0.1535;
45.0000;0.4493;0.1610;
45.3000;0.4477;0.1610;
45.6000;0.4461;0.1659;
45.9000;0.4453;0.1585;
46.2000;0.4461;0.1560;
46.5000;0.4469;0.1560;
46.8000;0.4453;0.1511;
47.1000;0.4461;0.1560;
47.4000;0.4428;0.1486;
47.7000;0.4477;0.1684;
48.0000;0.4461;0.1634;
48.3000;0.4477;0.1585;
48.6000;0.4477;0.1585;
48.9000;0.4469;0.1634;
49.2000;0.4477;0.1585;
49.5000;0.4485;0.1659;
49.8000;0.4477;0.1733;
50.1000;0.4485;0.1659;
50.4000;0.4444;0.1610;
50.7000;0.4477;0.1684;
51.0000;0.4469;0.1709;
51.3000;0.4493;0.1709;
51.6000;0.4518;0.1733;
51.9000;0.4485;0.1634;
52.2000;0.4493;0.1610;
52.5000;0.4420;0.1387;
52.8000;0.4485;0.1585;
53.1000;0.4477;0.1610;
53.4000;0.4477;0.1733;
53.7000;0.4461;0.1733;
54.0000;0.4477;0.1758;
54.3000;0.4477;0.1783;
54.6000;0.4485;0.1634;
54.9000;0.4469;0.1560;
55.2000;0.4485;0.1659;
55.5000;0.4461;0.1585;
55.8000;0.4485;0.1585;
56.1000;0.4501;0.1610;
56.4000;0.4477;0.1486;
56.7000;0.4477;0.1461;
57.0000;0.4485;0.1411;
57.3000;0.4493;0.1511;
57.6000;0.4485;0.1461;
57.9000;0.4444;0.1312;
58.2000;0.4477;0.1486;
58.5000;0.4485;0.1560;
58.8000;0.4469;0.1560;
59.1000;0.4444;0.1461;
59.4000;0.4453;0.1511;
59.7000;0.4469;0.1511;
60.0000;0.4428;0.1411;
60.3000;0.4477;0.1436;
60.6000;0.4485;0.1411;
60.9000;0.4477;0.1511;
61.2000;0.4461;0.1535;
61.5000;0.4477;0.1486;
61.8000;0.4461;0.1511;
62.1000;0.4501;0.1610;
62.4000;0.4477;0.1560;
62.7000;0.4469;0.1511;
63.0000;0.4469;0.1560;
63.3000;0.4469;0.1634;
63.6000;0.4469;0.1610;
63.9000;0.4477;0.1560;
64.2000;0.4477;0.1560;
64.5000;0.4493;0.1610;
64.8000;0.4534;0.1684;
65.1000;0.4510;0.1560;
65.4000;0.4485;0.1535;
65.7000;0.4469;0.1535;
66.0000;0.4485;0.1560;
66.3000;0.4453;0.1511;
66.6000;0.4420;0.1411;
66.9000;0.4477;0.1610;
67.2000;0.4526;0.1758;
67.5000;0.4428;0.1461;
67.8000;0.4469;0.1634;
68.1000;0.4436;0.1535;
68.4000;0.4453;0.1535;
68.7000;0.4453;0.1585;
69.0000;0.4477;0.1634;
69.3000;0.4469;0.1560;
69.6000;0.4428;0.1312;
69.9000;0.4477;0.1461;
70.2000;0.4485;0.1387;
70.5000;0.4477;0.1387;
70.8000;0.4477;0.1411;
71.1000;0.4477;0.1436;
71.4000;0.4485;0.1486;
71.7000;0.4485;0.1486;
72.0000;0.4477;0.1486;
72.3000;0.4493;0.1511;
72.6000;0.4501;0.1560;
72.9000;0.4477;0.1610;
73.2000;0.4501;0.1684;
73.5000;0.4583;0.1857;
73.8000;0.4485;0.1659;
74.1000;0.4485;0.1659;
74.4000;0.4501;0.1659;
74.7000;0.4485;0.1634;
75.0000;0.4493;0.1634;
75.3000;0.4477;0.1585;
75.6000;0.4453;0.1560;
75.9000;0.4493;0.1585;
76.2000;0.4444;0.1511;
76.5000;0.4477;0.1585;
76.8000;0.4477;0.1610;
77.1000;0.4453;0.1461;
77.4000;0.4477;0.1560;
77.7000;0.4477;0.1560;
78.0000;0.4477;0.1585;
78.3000;0.4453;0.1634;
78.6000;0.4477;0.1709;
78.9000;0.4485;0.1783;
79.2000;0.4485;0.1733;
79.5000;0.4461;0.1659;
79.8000;0.4469;0.1684;
80.1000;0.4493;0.1709;
80.4000;0.4477;0.1659;
80.7000;0.4485;0.1659;
81.0000;0.4469;0.1709;
81.3000;0.4477;0.1684;
81.6000;0.4485;0.1560;
81.9000;0.4469;0.1486;
82.2000;0.4477;0.1387;
82.5000;0.4477;0.1387;
82.8000;0.4469;0.1436;
83.1000;0.4477;0.1411;
83.4000;0.4461;0.1436;
83.7000;0.4469;0.1486;
84.0000;0.4485;0.1461;
84.3000;0.4469;0.1362;
84.6000;0.4461;0.1436;
84.9000;0.4477;0.1461;
85.2000;0.4477;0.1411;
85.5000;0.4469;0.1511;
85.8000;0.4526;0.1610;
86.1000;0.4444;0.1387;
86.4000;0.4485;0.1535;
86.7000;0.4477;0.1535;
87.0000;0.4477;0.1585;
87.3000;0.4461;0.1535;
87.6000;0.4493;0.1585;
87.9000;0.4477;0.1585;
88.2000;0.4461;0.1535;
88.5000;0.4461;0.1535;
88.8000;0.4444;0.1486;
89.1000;0.4477;0.1511;
89.4000;0.4477;0.1511;
89.7000;0.4453;0.1461;
90.0000;0.4469;0.1585;
90.3000;0.4493;0.1560;
90.6000;0.4485;0.1535;
90.9000;0.4469;0.1486;
91.2000;0.4469;0.1560;
91.5000;0.4420;0.1387;
91.8000;0.4477;0.1560;
92.1000;0.4469;0.1486;
92.4000;0.4518;0.1535;
92.7000;0.4420;0.1263;
93.0000;0.4469;0.1411;
93.3000;0.4469;0.1387;
93.6000;0.4444;0.1288;
93.9000;0.4493;0.1461;
94.2000;0.4469;0.1362;
94.5000;0.4567;0.1585;
94.8000;0.4477;0.1387;
95.1000;0.4453;0.1362;
95.4000;0.4453;0.1387;
95.7000;0.4477;0.1436;
96.0000;0.4428;0.1288;
96.3000;0.4469;0.1511;
96.6000;0.4477;0.1511;
96.9000;0.4469;0.1486;
97.2000;0.4461;0.1486;
97.5000;0.4461;0.1535;
97.8000;0.4461;0.1486;
98.1000;0.4485;0.1511;
98.4000;0.4485;0.1585;
98.7000;0.4469;0.1535;
99.0000;0.4436;0.1411;
99.3000;0.4477;0.1362;
99.6000;0.4477;0.1288;
99.9000;0.4461;0.1189;
100.2000;0.4469;0.1337;
100.5000;0.4469;0.1387;
100.8000;0.4493;0.1387;
101.1000;0.4469;0.1312;
101.4000;0.4493;0.1337;
101.7000;0.4469;0.1238;
102.0000;0.4469;0.1288;
102.3000;0.4485;0.1337;
102.6000;0.4461;0.1411;
102.9000;0.4469;0.1411;
103.2000;0.4444;0.1312;
103.5000;0.4477;0.1312;
103.8000;0.4477;0.1387;
104.1000;0.4493;0.1387;
104.4000;0.4485;0.1337;
104.7000;0.4485;0.1362;
105.0000;0.4461;0.1238;
105.3000;0.4469;0.1213;
105.6000;0.4477;0.1288;
105.9000;0.4485;0.1362;
106.2000;0.4428;0.1263;
106.5000;0.4469;0.1387;
106.8000;0.4469;0.1411;
107.1000;0.4412;0.1238;
107.4000;0.4469;0.1337;
107.7000;0.4453;0.1263;
108.0000;0.4485;0.1362;
108.3000;0.4461;0.1238;
108.6000;0.4501;0.1337;
108.9000;0.4477;0.1263;
109.2000;0.4485;0.1337;
109.5000;0.4469;0.1387;
109.8000;0.4485;0.1486;
110.1000;0.4485;0.1436;
110.4000;0.4493;0.1436;
110.7000;0.4469;0.1436;
111.0000;0.4485;0.1411;
111.3000;0.4493;0.1411;
111.6000;0.4493;0.1362;
111.9000;0.4501;0.1387;
112.2000;0.4477;0.1387;
112.5000;0.4485;0.1411;
112.8000;0.4477;0.1387;
113.1000;0.4461;0.1511;
113.4000;0.4469;0.1560;
113.7000;0.4493;0.1659;
114.0000;0.4461;0.1659;
114.3000;0.4469;0.1659;
114.6000;0.4477;0.1560;
114.9000;0.4477;0.1585;
115.2000;0.4469;0.1560;
115.5000;0.4485;0.1585;
115.8000;0.4469;0.1461;
116.1000;0.4485;0.1486;
116.4000;0.4461;0.1461;
116.7000;0.4453;0.1436;
117.0000;0.4453;0.1436;
117.3000;0.4477;0.1511;
117.6000;0.4453;0.1387;
117.9000;0.4444;0.1436;
118.2000;0.4436;0.1486;
118.5000;0.4469;0.1486;
118.8000;0.4453;0.1461;
119.1000;0.4461;0.1461;
119.4000;0.4461;0.1486;
119.7000;0.4461;0.1387;
120.0000;0.4477;0.1461;
120.3000;0.4469;0.1535;
120.6000;0.4453;0.1436;
120.9000;0.4485;0.1535;
121.2000;0.4477;0.1486;
121.5000;0.4485;0.1535;
121.8000;0.4461;0.1535;
122.1000;0.4526;0.1684;
122.4000;0.4453;0.1560;
122.7000;0.4477;0.1585;
123.0000;0.4453;0.1436;
123.3000;0.4461;0.1511;
123.6000;0.4510;0.1560;
123.9000;0.4477;0.1585;
124.2000;0.4453;0.1511;
124.5000;0.4493;0.1634;
124.8000;0.4477;0.1535;
125.1000;0.4534;0.1733;
125.4000;0.4550;0.1733;
125.7000;0.4469;0.1362;
126.0000;0.4477;0.1312;
126.3000;0.4469;0.1312;
126.6000;0.4469;0.1288;
126.9000;0.4469;0.1288;
127.2000;0.4518;0.1436;
127.5000;0.4477;0.1337;
127.8000;0.4477;0.1387;
128.1000;0.4477;0.1411;
128.4000;0.4453;0.1486;
128.7000;0.4453;0.1436;
129.0000;0.4428;0.1337;
129.3000;0.4469;0.1387;
129.6000;0.4477;0.1461;
129.9000;0.4461;0.1362;
130.2000;0.4477;0.1387;
130.5000;0.4469;0.1288;
130.8000;0.4469;0.1288;
131.1000;0.4469;0.1288;
131.4000;0.4477;0.1238;
131.7000;0.4461;0.1362;
132.0000;0.4469;0.1312;
132.3000;0.4510;0.1411;
132.6000;0.4453;0.1263;
132.9000;0.4469;0.1288;
133.2000;0.4510;0.1436;
133.5000;0.4453;0.1337;
133.8000;0.4477;0.1387;
134.1000;0.4485;0.1411;
134.4000;0.4469;0.1337;
134.7000;0.4493;0.1411;
135.0000;0.4501;0.1486;
135.3000;0.4485;0.1411;
135.6000;0.4469;0.1436;
135.9000;0.4469;0.1511;
136.2000;0.4477;0.1486;
136.5000;0.4436;0.1337;
136.8000;0.4469;0.1411;
137.1000;0.4526;0.1560;
137.4000;0.4453;0.1411;
137.7000;0.4469;0.1411;
138.0000;0.4444;0.1387;
138.3000;0.4477;0.1387;
138.6000;0.4485;0.1436;
138.9000;0.4485;0.1411;
139.2000;0.4444;0.1312;
139.5000;0.4469;0.1337;
139.8000;0.4453;0.1312;
140.1000;0.4453;0.1263;
140.4000;0.4461;0.1362;
140.7000;0.4469;0.1436;
141.0000;0.4461;0.1411;
141.3000;0.4469;0.1461;
141.6000;0.4461;0.1337;
141.9000;0.4477;0.1263;
142.2000;0.4477;0.1312;
142.5000;0.4477;0.1337;
142.8000;0.4469;0.1213;
143.1000;0.4477;0.1213;
143.4000;0.4510;0.1337;
143.7000;0.4469;0.1288;
144.0000;0.4477;0.1362;
144.3000;0.4461;0.1312;
144.6000;0.4526;0.1461;
144.9000;0.4493;0.1288;
145.2000;0.4477;0.1312;
145.5000;0.4542;0.1436;
145.8000;0.4485;0.1362;
146.1000;0.4477;0.1436;
146.4000;0.4436;0.1387;
146.7000;0.4501;0.1511;
147.0000;0.4461;0.1486;
147.3000;0.4485;0.1511;
147.6000;0.4469;0.1560;
147.9000;0.4469;0.1511;
148.2000;0.4453;0.1436;
148.5000;0.4436;0.1362;
148.8000;0.4461;0.1436;
149.1000;0.4510;0.1535;
149.4000;0.4453;0.1312;
149.7000;0.4485;0.1362;
150.0000;0.4469;0.1288;
150.3000;0.4469;0.1238;
150.6000;0.4461;0.1288;
150.9000;0.4485;0.1461;
151.2000;0.4444;0.1461;
151.5000;0.4461;0.1411;
151.8000;0.4461;0.1511;
152.1000;0.4477;0.1511;
152.4000;0.4477;0.1511;
152.7000;0.4461;0.1610;
153.0000;0.4461;0.1535;
153.3000;0.4477;0.1585;
153.6000;0.4469;0.1634;
153.9000;0.4469;0.1560;
154.2000;0.4542;0.1684;
154.5000;0.4461;0.1411;
154.8000;0.4477;0.1461;
155.1000;0.4469;0.1511;
155.4000;0.4461;0.1560;
155.7000;0.4436;0.1436;
156.0000;0.4444;0.1461;
156.3000;0.4477;0.1560;
156.6000;0.4477;0.1560;
156.9000;0.4477;0.1560;
157.2000;0.4477;0.1560;
157.5000;0.4493;0.1535;
157.8000;0.4485;0.1610;
158.1000;0.4444;0.1560;
158.4000;0.4461;0.1560;
158.7000;0.4477;0.1560;
159.0000;0.4477;0.1610;
159.3000;0.4485;0.1610;
159.6000;0.4493;0.1585;
159.9000;0.4469;0.1585;
160.2000;0.4436;0.1560;
160.5000;0.4461;0.1560;
160.8000;0.4461;0.1535;
161.1000;0.4461;0.1560;
161.4000;0.4469;0.1585;
161.7000;0.4469;0.1634;
162.0000;0.4469;0.1659;
162.3000;0.4461;0.1758;
162.6000;0.4461;0.1733;
162.9000;0.4485;0.1709;
163.2000;0.4493;0.1684;
163.5000;0.4469;0.1659;
163.8000;0.4469;0.1684;
164.1000;0.4477;0.1659;
164.4000;0.4461;0.1585;
164.7000;0.4469;0.1560;
165.0000;0.4493;0.1659;
165.3000;0.4420;0.1535;
165.6000;0.4485;0.1783;
165.9000;0.4477;0.1733;
166.2000;0.4461;0.1684;
166.5000;0.4469;0.1758;
166.8000;0.4453;0.1733;
167.1000;0.4501;0.1709;
167.4000;0.4444;0.1560;
167.7000;0.4461;0.1610;
168.0000;0.4453;0.1535;
168.3000;0.4485;0.1610;
168.6000;0.4469;0.1610;
168.9000;0.4477;0.1758;
169.2000;0.4469;0.1709;
169.5000;0.4444;0.1659;
169.8000;0.4461;0.1610;
170.1000;0.4436;0.1634;
170.4000;0.4461;0.1684;
170.7000;0.4469;0.1684;
171.0000;0.4493;0.1758;
171.3000;0.4461;0.1585;
171.6000;0.4461;0.1585;
171.9000;0.4461;0.1535;
172.2000;0.4461;0.1560;
172.5000;0.4436;0.1535;
172.8000;0.4453;0.1511;
173.1000;0.4477;0.1486;
173.4000;0.4501;0.1461;
173.7000;0.4469;0.1461;
174.0000;0.4477;0.1535;
174.3000;0.4485;0.1610;
174.6000;0.4477;0.1709;
174.9000;0.4469;0.1733;
175.2000;0.4453;0.1684;
175.5000;0.4461;0.1634;
175.8000;0.4477;0.1585;
176.1000;0.4461;0.1486;
176.4000;0.4420;0.1436;
176.7000;0.4461;0.1511;
177.0000;0.4469;0.1585;
177.3000;0.4461;0.1486;
177.6000;0.4461;0.1560;
177.9000;0.4469;0.1634;
178.2000;0.4453;0.1560;
178.5000;0.4469;0.1585;
178.8000;0.4510;0.1585;
179.1000;0.4461;0.1585;
179.4000;0.4477;0.1684;
179.7000;0.4485;0.1709;
180.0000;0.4485;0.1684;
180.3000;0.4469;0.1511;
180.6000;0.4469;0.1535;
180.9000;0.4469;0.1610;
181.2000;0.4461;0.1659;
181.5000;0.4461;0.1610;
181.8000;0.4493;0.1758;
182.1000;0.4453;0.1709;
182.4000;0.4501;0.1758;
182.7000;0.4493;0.1709;
183.0000;0.4420;0.1560;
183.3000;0.4412;0.1535;
183.6000;0.4461;0.1560;
183.9000;0.4461;0.1511;
184.2000;0.4469;0.1411;
184.5000;0.4469;0.1362;
184.8000;0.4469;0.1362;
185.1000;0.4469;0.1411;
185.4000;0.4477;0.1511;
185.7000;0.4469;0.1511;
186.0000;0.4469;0.1511;
186.3000;0.4428;0.1486;
186.6000;0.4469;0.1585;
186.9000;0.4453;0.1634;
187.2000;0.4436;0.1511;
187.5000;0.4477;0.1585;
187.8000;0.4485;0.1560;
188.1000;0.4469;0.1610;
188.4000;0.4461;0.1560;
188.7000;0.4485;0.1585;
189.0000;0.4477;0.1659;
189.3000;0.4444;0.1610;
189.6000;0.4461;0.1610;
189.9000;0.4469;0.1733;
190.2000;0.4469;0.1733;
190.5000;0.4477;0.1758;
190.8000;0.4461;0.1758;
191.1000;0.4453;0.1733;
191.4000;0.4477;0.1857;
191.7000;0.4469;0.1733;
192.0000;0.4453;0.1733;
192.3000;0.4469;0.1709;
192.6000;0.4469;0.1659;
192.9000;0.4453;0.1535;
193.2000;0.4485;0.1560;
193.5000;0.4461;0.1387;
193.8000;0.4453;0.1436;
194.1000;0.4477;0.1486;
194.4000;0.4461;0.1461;
194.7000;0.4453;0.1461;
195.0000;0.4469;0.1560;
195.3000;0.4444;0.1560;
195.6000;0.4453;0.1585;
195.9000;0.4453;0.1634;
196.2000;0.4461;0.1684;
196.5000;0.4453;0.1659;
196.8000;0.4461;0.1634;
197.1000;0.4444;0.1585;
197.4000;0.4444;0.1585;
197.7000;0.4444;0.1535;
198.0000;0.4469;0.1560;
198.3000;0.4469;0.1585;
198.6000;0.4453;0.1511;
198.9000;0.4485;0.1709;
199.2000;0.4526;0.1783;
199.5000;0.4461;0.1634;
199.8000;0.4485;0.1610;
200.1000;0.4477;0.1659;
200.4000;0.4493;0.1659;
200.7000;0.4461;0.1535;
201.0000;0.4485;0.1634;
201.3000;0.4469;0.1709;
201.6000;0.4485;0.1659;
201.9000;0.4469;0.1610;
202.2000;0.4461;0.1461;
202.5000;0.4461;0.1486;
202.8000;0.4493;0.1461;
203.1000;0.4477;0.1511;
203.4000;0.4444;0.1436;
203.7000;0.4501;0.1659;
204.0000;0.4461;0.1560;
204.3000;0.4461;0.1585;
204.6000;0.4461;0.1560;
204.9000;0.4461;0.1535;
205.2000;0.4477;0.1535;
205.5000;0.4469;0.1560;
205.8000;0.4550;0.1882;
206.1000;0.4477;0.1634;
206.4000;0.4469;0.1709;
206.7000;0.4477;0.1684;
207.0000;0.4453;0.1659;
207.3000;0.4461;0.1659;
207.6000;0.4477;0.1634;
207.9000;0.4453;0.1758;
208.2000;0.4461;0.1783;
208.5000;0.4501;0.1808;
208.8000;0.4461;0.1684;
209.1000;0.4461;0.1659;
209.4000;0.4469;0.1585;
209.7000;0.4453;0.1560;
210.0000;0.4469;0.1535;
210.3000;0.4461;0.1560;
210.6000;0.4461;0.1560;
210.9000;0.4477;0.1486;
211.2000;0.4469;0.1436;
211.5000;0.4461;0.1436;
211.8000;0.4453;0.1387;
212.1000;0.4477;0.1411;
212.4000;0.4477;0.1461;
212.7000;0.4469;0.1610;
213.0000;0.4477;0.1758;
213.3000;0.4469;0.1808;
213.6000;0.4469;0.1758;
213.9000;0.4453;0.1634;
214.2000;0.4469;0.1634;
214.5000;0.4461;0.1560;
214.8000;0.4461;0.1535;
215.1000;0.4453;0.1535;
215.4000;0.4453;0.1585;
215.7000;0.4469;0.1560;
216.0000;0.4461;0.1535;
216.3000;0.4453;0.1461;
216.6000;0.4453;0.1387;
216.9000;0.4453;0.1337;
217.2000;0.4485;0.1387;
217.5000;0.4461;0.1337;
217.8000;0.4469;0.1387;
218.1000;0.4436;0.1387;
218.4000;0.4453;0.1362;
218.7000;0.4444;0.1312;
219.0000;0.4453;0.1337;
219.3000;0.4477;0.1362;
219.6000;0.4469;0.1461;
219.9000;0.4477;0.1511;
220.2000;0.4461;0.1511;
220.5000;0.4453;0.1535;
220.8000;0.4461;0.1560;
221.1000;0.4477;0.1535;
221.4000;0.4461;0.1511;
221.7000;0.4453;0.1486;
222.0000;0.4453;0.1511;
222.3000;0.4444;0.1461;
222.6000;0.4453;0.1535;
222.9000;0.4469;0.1560;
223.2000;0.4469;0.1535;
223.5000;0.4461;0.1436;
223.8000;0.4444;0.1387;
224.1000;0.4469;0.1511;
224.4000;0.4501;0.1560;
224.7000;0.4469;0.1461;
225.0000;0.4412;0.1263;
225.3000;0.4469;0.1486;
225.6000;0.4461;0.1461;
225.9000;0.4485;0.1560;
226.2000;0.4444;0.1585;
226.5000;0.4453;0.1560;
226.8000;0.4428;0.1411;
227.1000;0.4453;0.1535;
227.4000;0.4453;0.1535;
227.7000;0.4461;0.1535;
228.0000;0.4444;0.1610;
228.3000;0.4436;0.1659;
228.6000;0.4453;0.1659;
228.9000;0.4469;0.1634;
229.2000;0.4396;0.1486;
229.5000;0.4461;0.1684;
229.8000;0.4461;0.1684;
230.1000;0.4469;0.1709;
230.4000;0.4477;0.1733;
230.7000;0.4461;0.1783;
231.0000;0.4453;0.1808;
231.3000;0.4453;0.1758;
231.6000;0.4444;0.1709;
231.9000;0.4420;0.1610;
232.2000;0.4444;0.1634;
232.5000;0.4436;0.1585;
232.8000;0.4444;0.1610;
233.1000;0.4444;0.1634;
233.4000;0.4453;0.1634;
233.7000;0.4469;0.1585;
234.0000;0.4485;0.1585;
234.3000;0.4477;0.1560;
234.6000;0.4469;0.1511;
234.9000;0.4461;0.1560;
235.2000;0.4477;0.1634;
235.5000;0.4477;0.1634;
235.8000;0.4453;0.1585;
236.1000;0.4396;0.1461;
236.4000;0.4485;0.1634;
236.7000;0.4469;0.1610;
237.0000;0.4469;0.1610;
237.3000;0.4444;0.1486;
237.6000;0.4453;0.1486;
237.9000;0.4453;0.1411;
238.2000;0.4428;0.1288;
238.5000;0.4477;0.1337;
238.8000;0.4461;0.1288;
239.1000;0.4453;0.1263;
239.4000;0.4412;0.1263;
239.7000;0.4453;0.1288;
240.0000;0.4461;0.1189;
240.3000;0.4469;0.1288;
240.6000;0.4469;0.1387;
240.9000;0.4453;0.1411;
241.2000;0.4469;0.1535;
241.5000;0.4396;0.1263;
241.8000;0.4461;0.1461;
242.1000;0.4461;0.1560;
242.4000;0.4534;0.1758;
242.7000;0.4453;0.1659;
243.0000;0.4493;0.1758;
243.3000;0.4501;0.1733;
243.6000;0.4469;0.1659;
243.9000;0.4461;0.1610;
244.2000;0.4485;0.1709;
244.5000;0.4477;0.1733;
244.8000;0.4453;0.1808;
245.1000;0.4453;0.1733;
245.4000;0.4453;0.1684;
245.7000;0.4469;0.1709;
246.0000;0.4461;0.1634;
246.3000;0.4404;0.1486;
246.6000;0.4461;0.1560;
246.9000;0.4453;0.1659;
247.2000;0.4453;0.1585;
247.5000;0.4436;0.1560;
247.8000;0.4461;0.1585;
248.1000;0.4461;0.1610;
248.4000;0.4453;0.1634;
248.7000;0.4469;0.1634;
249.0000;0.4444;0.1610;
249.3000;0.4453;0.1585;
249.6000;0.4461;0.1634;
249.9000;0.4461;0.1709;
250.2000;0.4469;0.1808;
250.5000;0.4444;0.1733;
250.8000;0.4461;0.1709;
251.1000;0.4444;0.1684;
251.4000;0.4444;0.1733;
251.7000;0.4453;0.1808;
252.0000;0.4420;0.1808;
252.3000;0.4436;0.1857;
252.6000;0.4461;0.1931;
252.9000;0.4469;0.1907;
253.2000;0.4444;0.1733;
253.5000;0.4461;0.1709;
253.8000;0.4469;0.1733;
254.1000;0.4485;0.1709;
254.4000;0.4453;0.1684;
254.7000;0.4453;0.1585;
255.0000;0.4436;0.1511;
255.3000;0.4461;0.1585;
255.6000;0.4526;0.1709;
255.9000;0.4436;0.1560;
256.2000;0.4461;0.1659;
256.5000;0.4493;0.1684;
256.8000;0.4461;0.1758;
257.1000;0.4469;0.1733;
257.4000;0.4461;0.1709;
257.7000;0.4444;0.1560;
258.0000;0.4404;0.1411;
258.3000;0.4444;0.1387;
258.6000;0.4501;0.1436;
258.9000;0.4461;0.1411;
259.2000;0.4436;0.1461;
259.5000;0.4428;0.1511;
259.8000;0.4436;0.1486;
260.1000;0.4420;0.1411;
260.4000;0.4469;0.1436;
260.7000;0.4469;0.1560;
261.0000;0.4436;0.1511;
261.3000;0.4461;0.1511;
261.6000;0.4461;0.1535;
261.9000;0.4461;0.1535;
262.2000;0.4485;0.1610;
262.5000;0.4501;0.1585;
262.8000;0.4453;0.1486;
263.1000;0.4453;0.1511;
263.4000;0.4493;0.1585;
263.7000;0.4461;0.1535;
264.0000;0.4444;0.1511;
264.3000;0.4428;0.1461;
264.6000;0.4420;0.1511;
264.9000;0.4469;0.1659;
265.2000;0.4477;0.1684;
265.5000;0.4453;0.1684;
265.8000;0.4453;0.1808;
266.1000;0.4518;0.2055;
266.4000;0.4453;0.1808;
266.7000;0.4453;0.1733;
267.0000;0.4477;0.1783;
267.3000;0.4461;0.1758;
267.6000;0.4461;0.1808;
267.9000;0.4461;0.1857;
268.2000;0.4453;0.1808;
268.5000;0.4469;0.1758;
268.8000;0.4477;0.1783;
269.1000;0.4453;0.1733;
269.4000;0.4453;0.1758;
269.7000;0.4461;0.1709;
270.0000;0.4461;0.1733;
270.3000;0.4444;0.1758;
270.6000;0.4453;0.1832;
270.9000;0.4453;0.1931;
271.2000;0.4461;0.1931;
271.5000;0.4461;0.1956;
271.8000;0.4453;0.1931;
272.1000;0.4469;0.1882;
272.4000;0.4444;0.1783;
272.7000;0.4469;0.1808;
273.0000;0.4469;0.1783;
273.3000;0.4453;0.1758;
273.6000;0.4453;0.1808;
273.9000;0.4477;0.1808;
274.2000;0.4477;0.1783;
274.5000;0.4453;0.1709;
274.8000;0.4461;0.1659;
275.1000;0.4453;0.1610;
275.4000;0.4453;0.1560;
275.7000;0.4453;0.1634;
276.0000;0.4444;0.1709;
276.3000;0.4461;0.1733;
276.6000;0.4477;0.1709;
276.9000;0.4461;0.1659;
277.2000;0.4461;0.1634;
277.5000;0.4461;0.1610;
277.8000;0.4469;0.1610;
278.1000;0.4428;0.1610;
278.4000;0.4428;0.1610;
278.7000;0.4412;0.1535;
279.0000;0.4469;0.1684;
279.3000;0.4485;0.1733;
279.6000;0.4485;0.1585;
279.9000;0.4444;0.1535;
280.2000;0.4404;0.1535;
280.5000;0.4420;0.1585;
280.8000;0.4444;0.1585;
281.1000;0.4404;0.1436;
281.4000;0.4444;0.1511;
281.7000;0.4501;0.1733;
282.0000;0.4444;0.1634;
282.3000;0.4453;0.1610;
282.6000;0.4453;0.1684;
282.9000;0.4444;0.1684;
283.2000;0.4534;0.1907;
283.5000;0.4461;0.1832;
283.8000;0.4461;0.1931;
284.1000;0.4469;0.2031;
284.4000;0.4453;0.1981;
284.7000;0.4453;0.2031;
285.0000;0.4453;0.2006;
285.3000;0.4420;0.2006;
285.6000;0.4453;0.2055;
285.9000;0.4444;0.2080;
286.2000;0.4477;0.2055;
286.5000;0.4453;0.1907;
286.8000;0.4453;0.1857;
287.1000;0.4485;0.1981;
287.4000;0.4453;0.1956;
287.7000;0.4461;0.1882;
288.0000;0.4444;0.1808;
288.3000;0.4453;0.1783;
288.6000;0.4453;0.1832;
288.9000;0.4444;0.1783;
289.2000;0.4444;0.1709;
289.5000;0.4469;0.1758;
289.8000;0.4469;0.1783;
290.1000;0.4485;0.1857;
290.4000;0.4444;0.1857;
290.7000;0.4453;0.1857;
291.0000;0.4453;0.1907;
291.3000;0.4444;0.1907;
291.6000;0.4444;0.1882;
291.9000;0.4453;0.1832;
292.2000;0.4444;0.1808;
292.5000;0.4461;0.1808;
292.8000;0.4436;0.1808;
293.1000;0.4461;0.1907;
293.4000;0.4461;0.1931;
293.7000;0.4485;0.1956;
294.0000;0.4453;0.1907;
294.3000;0.4469;0.1882;
294.6000;0.4444;0.1857;
294.9000;0.4461;0.1832;
295.2000;0.4444;0.1733;
295.5000;0.4453;0.1709;
295.8000;0.4461;0.1733;
296.1000;0.4485;0.1808;
296.4000;0.4420;0.1709;
296.7000;0.4444;0.1709;
297.0000;0.4469;0.1684;
297.3000;0.4501;0.1733;
297.6000;0.4444;0.1610;
297.9000;0.4436;0.1535;
298.2000;0.4501;0.1634;
298.5000;0.4453;0.1486;
298.8000;0.4461;0.1610;
299.1000;0.4461;0.1659;
299.4000;0.4444;0.1659;
299.7000;0.4444;0.1560;
300.0000;0.4461;0.1560;
300.3000;0.4436;0.1535;
300.6000;0.4444;0.1634;
300.9000;0.4461;0.1610;
301.2000;0.4469;0.1684;
301.5000;0.4444;0.1659;
301.8000;0.4444;0.1634;
302.1000;0.4444;0.1610;
302.4000;0.4444;0.1659;
302.7000;0.4444;0.1709;
303.0000;0.4444;0.1733;
303.3000;0.4444;0.1733;
303.6000;0.4485;0.1783;
303.9000;0.4469;0.1783;
304.2000;0.4477;0.1808;
304.5000;0.4485;0.1808;
304.8000;0.4469;0.1882;
305.1000;0.4469;0.1832;
305.4000;0.4493;0.1808;
305.7000;0.4453;0.1684;
306.0000;0.4461;0.1733;
306.3000;0.4493;0.1758;
306.6000;0.4444;0.1684;
306.9000;0.4453;0.1659;
307.2000;0.4477;0.1733;
307.5000;0.4469;0.1709;
307.8000;0.4453;0.1659;
308.1000;0.4436;0.1659;
308.4000;0.4461;0.1659;
308.7000;0.4453;0.1585;
309.0000;0.4444;0.1585;
309.3000;0.4461;0.1610;
309.6000;0.4444;0.1535;
309.9000;0.4444;0.1511;
310.2000;0.4461;0.1535;
310.5000;0.4461;0.1511;
310.8000;0.4396;0.1337;
311.1000;0.4461;0.1585;
311.4000;0.4461;0.1634;
311.7000;0.4453;0.1684;
312.0000;0.4461;0.1709;
312.3000;0.4436;0.1808;
312.6000;0.4444;0.1857;
312.9000;0.4461;0.1882;
313.2000;0.4493;0.1931;
313.5000;0.4436;0.1808;
313.8000;0.4453;0.1882;
314.1000;0.4428;0.1808;
314.4000;0.4453;0.1857;
314.7000;0.4436;0.1783;
315.0000;0.4453;0.1808;
315.3000;0.4461;0.1783;
315.6000;0.4444;0.1733;
315.9000;0.4453;0.1709;
316.2000;0.4453;0.1733;
316.5000;0.4469;0.1783;
316.8000;0.4453;0.1832;
317.1000;0.4461;0.1783;
317.4000;0.4461;0.1758;
317.7000;0.4453;0.1832;
318.0000;0.4444;0.1684;
318.3000;0.4404;0.1585;
318.6000;0.4436;0.1783;
318.9000;0.4444;0.1882;
319.2000;0.4444;0.1882;
319.5000;0.4453;0.1931;
319.8000;0.4453;0.1931;
320.1000;0.4428;0.1931;
320.4000;0.4444;0.1857;
320.7000;0.4436;0.1709;
321.0000;0.4444;0.1684;
321.3000;0.4387;0.1511;
321.6000;0.4453;0.1634;
321.9000;0.4461;0.1535;
322.2000;0.4461;0.1486;
322.5000;0.4436;0.1436;
322.8000;0.4436;0.1511;
323.1000;0.4453;0.1610;
323.4000;0.4453;0.1634;
323.7000;0.4444;0.1585;
324.0000;0.4436;0.1461;
324.3000;0.4436;0.1511;
324.6000;0.4461;0.1560;
324.9000;0.4436;0.1560;
325.2000;0.4436;0.1585;
325.5000;0.4436;0.1585;
325.8000;0.4436;0.1585;
326.1000;0.4444;0.1560;
326.4000;0.4444;0.1535;
326.7000;0.4444;0.1486;
327.0000;0.4461;0.1585;
327.3000;0.4461;0.1560;
327.6000;0.4444;0.1486;
327.9000;0.4461;0.1511;
328.2000;0.4477;0.1610;
328.5000;0.4453;0.1610;
328.8000;0.4453;0.1634;
329.1000;0.4453;0.1634;
329.4000;0.4453;0.1659;
329.7000;0.4453;0.1684;
330.0000;0.4453;0.1709;
330.3000;0.4436;0.1659;
330.6000;0.4436;0.1684;
330.9000;0.4461;0.1684;
331.2000;0.4469;0.1684;
331.5000;0.4444;0.1585;
331.8000;0.4436;0.1560;
332.1000;0.4453;0.1535;
332.4000;0.4461;0.1560;
332.7000;0.4453;0.1585;
333.0000;0.4453;0.1560;
333.3000;0.4453;0.1511;
333.6000;0.4461;0.1560;
333.9000;0.4469;0.1585;
334.2000;0.4412;0.1461;
334.5000;0.4453;0.1535;
334.8000;0.4461;0.1560;
335.1000;0.4444;0.1560;
335.4000;0.4444;0.1511;
335.7000;0.4436;0.1535;
336.0000;0.4453;0.1634;
336.3000;0.4412;0.1387;
336.6000;0.4461;0.1486;
336.9000;0.4444;0.1486;
337.2000;0.4444;0.1436;
337.5000;0.4453;0.1610;
337.8000;0.4453;0.1610;
338.1000;0.4436;0.1535;
338.4000;0.4453;0.1585;
338.7000;0.4461;0.1511;
339.0000;0.4453;0.1535;
339.3000;0.4444;0.1486;
339.6000;0.4444;0.1486;
339.9000;0.4436;0.1560;
340.2000;0.4412;0.1461;
340.5000;0.4444;0.1461;
340.8000;0.4453;0.1486;
341.1000;0.4444;0.1461;
341.4000;0.4444;0.1511;
341.7000;0.4436;0.1511;
342.0000;0.4355;0.1288;
342.3000;0.4436;0.1511;
342.6000;0.4347;0.1337;
342.9000;0.4420;0.1585;
343.2000;0.4436;0.1610;
343.5000;0.4453;0.1560;
343.8000;0.4477;0.1610;
344.1000;0.4444;0.1486;
344.4000;0.4436;0.1436;
344.7000;0.4453;0.1411;
345.0000;0.4453;0.1461;
345.3000;0.4469;0.1535;
345.6000;0.4387;0.1387;
345.9000;0.4428;0.1511;
346.2000;0.4444;0.1560;
346.5000;0.4461;0.1560;
346.8000;0.4444;0.1486;
347.1000;0.4412;0.1387;
347.4000;0.4444;0.1511;
347.7000;0.4453;0.1511;
348.0000;0.4444;0.1535;
348.3000;0.4453;0.1535;
348.6000;0.4453;0.1634;
348.9000;0.4428;0.1585;
349.2000;0.4436;0.1560;
349.5000;0.4444;0.1610;
349.8000;0.4444;0.1535;
350.1000;0.4444;0.1560;
350.4000;0.4444;0.1535;
350.7000;0.4444;0.1634;
351.0000;0.4412;0.1560;
351.3000;0.4436;0.1560;
351.6000;0.4444;0.1585;
351.9000;0.4428;0.1535;
352.2000;0.4444;0.1585;
352.5000;0.4420;0.1511;
352.8000;0.4469;0.1585;
353.1000;0.4453;0.1461;
353.4000;0.4526;0.1659;
353.7000;0.4444;0.1511;
354.0000;0.4453;0.1461;
354.3000;0.4461;0.1511;
354.6000;0.4444;0.1585;
354.9000;0.4444;0.1634;
355.2000;0.4461;0.1684;
355.5000;0.4453;0.1659;
355.8000;0.4469;0.1659;
356.1000;0.4461;0.1585;
356.4000;0.4461;0.1560;
356.7000;0.4444;0.1560;
357.0000;0.4453;0.1634;
357.3000;0.4444;0.1659;
357.6000;0.4453;0.1634;
357.9000;0.4444;0.1610;
358.2000;0.4453;0.1560;
358.5000;0.4444;0.1659;
358.8000;0.4444;0.1585;
359.1000;0.4428;0.1461;
359.4000;0.4453;0.1511;
359.7000;0.4453;0.1486;
360.0000;0.4436;0.1436;
360.3000;0.4444;0.1461;
360.6000;0.4461;0.1511;
360.9000;0.4453;0.1535;
361.2000;0.4485;0.1610;
361.5000;0.4428;0.1560;
361.8000;0.4461;0.1610;
362.1000;0.4453;0.1684;
362.4000;0.4453;0.1684;
362.7000;0.4436;0.1659;
363.0000;0.4444;0.1709;
363.3000;0.4453;0.1610;
363.6000;0.4436;0.1535;
363.9000;0.4436;0.1511;
364.2000;0.4444;0.1486;
364.5000;0.4469;0.1560;
364.8000;0.4444;0.1560;
365.1000;0.4404;0.1436;
365.4000;0.4444;0.1486;
365.7000;0.4469;0.1535;
366.0000;0.4436;0.1585;
366.3000;0.4453;0.1634;
366.6000;0.4453;0.1634;
366.9000;0.4428;0.1659;
367.2000;0.4444;0.1733;
367.5000;0.4444;0.1659;
367.8000;0.4444;0.1610;
368.1000;0.4428;0.1461;
368.4000;0.4363;0.1263;
368.7000;0.4428;0.1511;
369.0000;0.4444;0.1634;
369.3000;0.4436;0.1659;
369.6000;0.4436;0.1709;
369.9000;0.4436;0.1709;
370.2000;0.4453;0.1733;
370.5000;0.4420;0.1634;
370.8000;0.4453;0.1634;
371.1000;0.4444;0.1634;
371.4000;0.4453;0.1634;
371.7000;0.4453;0.1758;
372.0000;0.4461;0.1783;
372.3000;0.4461;0.1808;
372.6000;0.4444;0.1783;
372.9000;0.4444;0.1832;
373.2000;0.4453;0.1808;
373.5000;0.4444;0.1808;
373.8000;0.4444;0.1808;
374.1000;0.4428;0.1758;
374.4000;0.4396;0.1684;
374.7000;0.4404;0.1709;
375.0000;0.4444;0.1832;
375.3000;0.4477;0.1931;
375.6000;0.4436;0.1882;
375.9000;0.4436;0.1907;
376.2000;0.4436;0.1882;
376.5000;0.4485;0.2031;
376.8000;0.4444;0.1907;
377.1000;0.4461;0.1882;
377.4000;0.4444;0.1808;
377.7000;0.4444;0.1783;
378.0000;0.4436;0.1659;
378.3000;0.4444;0.1684;
378.6000;0.4436;0.1783;
378.9000;0.4444;0.1709;
379.2000;0.4493;0.1709;
379.5000;0.4436;0.1511;
379.8000;0.4436;0.1585;
380.1000;0.4485;0.1684;
380.4000;0.4444;0.1560;
380.7000;0.4436;0.1535;
381.0000;0.4444;0.1585;
381.3000;0.4453;0.1585;
381.6000;0.4444;0.1535;
381.9000;0.4453;0.1535;
382.2000;0.4412;0.1486;
382.5000;0.4436;0.1560;
382.8000;0.4453;0.1560;
383.1000;0.4436;0.1511;
383.4000;0.4453;0.1560;
383.7000;0.4436;0.1560;
384.0000;0.4412;0.1411;
384.3000;0.4453;0.1511;
384.6000;0.4420;0.1486;
384.9000;0.4428;0.1436;
385.2000;0.4396;0.1411;
385.5000;0.4444;0.1585;
385.8000;0.4379;0.1461;
386.1000;0.4436;0.1610;
386.4000;0.4461;0.1659;
386.7000;0.4453;0.1610;
387.0000;0.4461;0.1684;
387.3000;0.4436;0.1684;
387.6000;0.4436;0.1659;
387.9000;0.4461;0.1758;
388.2000;0.4428;0.1610;
388.5000;0.4428;0.1585;
388.8000;0.4444;0.1560;
389.1000;0.4436;0.1560;
389.4000;0.4444;0.1585;
389.7000;0.4444;0.1585;
390.0000;0.4453;0.1560;
390.3000;0.4444;0.1511;
390.6000;0.4477;0.1560;
390.9000;0.4436;0.1486;
391.2000;0.4396;0.1362;
391.5000;0.4444;0.1461;
391.8000;0.4477;0.1511;
392.1000;0.4436;0.1535;
392.4000;0.4436;0.1511;
392.7000;0.4420;0.1411;
393.0000;0.4453;0.1461;
393.3000;0.4477;0.1560;
393.6000;0.4428;0.1486;
393.9000;0.4436;0.1511;
394.2000;0.4444;0.1585;
394.5000;0.4420;0.1560;
394.8000;0.4469;0.1585;
395.1000;0.4436;0.1585;
395.4000;0.4444;0.1610;
395.7000;0.4436;0.1585;
396.0000;0.4436;0.1585;
396.3000;0.4436;0.1610;
396.6000;0.4444;0.1634;
396.9000;0.4444;0.1610;
397.2000;0.4436;0.1610;
397.5000;0.4469;0.1560;
397.8000;0.4477;0.1709;
398.1000;0.4453;0.1709;
398.4000;0.4453;0.1709;
398.7000;0.4444;0.1610;
399.0000;0.4453;0.1634;
399.3000;0.4461;0.1684;
399.6000;0.4436;0.1659;
399.9000;0.4469;0.1684;
400.2000;0.4436;0.1585;
400.5000;0.4420;0.1535;
400.8000;0.4444;0.1585;
401.1000;0.4444;0.1535;
401.4000;0.4428;0.1511;
401.7000;0.4436;0.1535;
402.0000;0.4428;0.1560;
402.3000;0.4404;0.1511;
402.6000;0.4436;0.1659;
402.9000;0.4436;0.1684;
403.2000;0.4453;0.1684;
403.5000;0.4444;0.1610;
403.8000;0.4444;0.1585;
404.1000;0.4436;0.1486;
404.4000;0.4444;0.1511;
404.7000;0.4461;0.1560;
405.0000;0.4453;0.1610;
405.3000;0.4436;0.1511;
405.6000;0.4436;0.1436;
405.9000;0.4469;0.1486;
406.2000;0.4396;0.1312;
406.5000;0.4444;0.1535;
406.8000;0.4436;0.1560;
407.1000;0.4436;0.1634;
407.4000;0.4428;0.1560;
407.7000;0.4453;0.1585;
408.0000;0.4436;0.1560;
408.3000;0.4428;0.1461;
408.6000;0.4428;0.1535;
408.9000;0.4404;0.1535;
409.2000;0.4436;0.1684;
409.5000;0.4436;0.1709;
409.8000;0.4453;0.1709;
410.1000;0.4420;0.1659;
410.4000;0.4436;0.1610;
410.7000;0.4444;0.1659;
411.0000;0.4453;0.1709;
411.3000;0.4444;0.1634;
411.6000;0.4436;0.1610;
411.9000;0.4444;0.1560;
412.2000;0.4453;0.1585;
412.5000;0.4444;0.1511;
412.8000;0.4453;0.1634;
413.1000;0.4436;0.1684;
413.4000;0.4420;0.1610;
413.7000;0.4379;0.1486;
414.0000;0.4436;0.1560;
414.3000;0.4436;0.1535;
414.6000;0.4404;0.1436;
414.9000;0.4444;0.1634;
415.2000;0.4428;0.1610;
415.5000;0.4461;0.1610;
415.8000;0.4444;0.1585;
416.1000;0.4453;0.1709;
416.4000;0.4461;0.1659;
416.7000;0.4444;0.1659;
417.0000;0.4461;0.1659;
417.3000;0.4493;0.1758;
417.6000;0.4420;0.1610;
417.9000;0.4436;0.1659;
418.2000;0.4436;0.1634;
418.5000;0.4404;0.1535;
418.8000;0.4469;0.1709;
419.1000;0.4461;0.1610;
419.4000;0.4444;0.1585;
419.7000;0.4461;0.1610;
420.0000;0.4453;0.1585;
420.3000;0.4436;0.1585;
420.6000;0.4461;0.1684;
420.9000;0.4404;0.1535;
421.2000;0.4444;0.1585;
421.5000;0.4469;0.1758;
421.8000;0.4461;0.1733;
422.1000;0.4444;0.1659;
422.4000;0.4444;0.1684;
422.7000;0.4404;0.1610;
423.0000;0.4477;0.1808;
423.3000;0.4444;0.1634;
423.6000;0.4436;0.1634;
423.9000;0.4444;0.1733;
424.2000;0.4412;0.1659;
424.5000;0.4428;0.1610;
424.8000;0.4428;0.1560;
425.1000;0.4444;0.1709;
425.4000;0.4444;0.1733;
425.7000;0.4453;0.1808;
426.0000;0.4453;0.1857;
426.3000;0.4477;0.1857;
426.6000;0.4453;0.1733;
426.9000;0.4412;0.1634;
427.2000;0.4412;0.1758;
427.5000;0.4436;0.1808;
427.8000;0.4436;0.1758;
428.1000;0.4436;0.1783;
428.4000;0.4444;0.1733;
428.7000;0.4428;0.1634;
429.0000;0.4444;0.1659;
429.3000;0.4453;0.1733;
429.6000;0.4444;0.1610;
429.9000;0.4453;0.1684;
430.2000;0.4461;0.1733;
430.5000;0.4444;0.1808;
430.8000;0.4444;0.1783;
431.1000;0.4444;0.1659;
431.4000;0.4428;0.1684;
431.7000;0.4469;0.1783;
432.0000;0.4444;0.1733;
432.3000;0.4444;0.1733;
432.6000;0.4428;0.1634;
432.9000;0.4436;0.1585;
433.2000;0.4453;0.1634;
433.5000;0.4436;0.1634;
433.8000;0.4436;0.1659;
434.1000;0.4444;0.1733;
434.4000;0.4420;0.1783;
434.7000;0.4436;0.1907;
435.0000;0.4428;0.1832;
435.3000;0.4453;0.1907;
435.6000;0.4436;0.1857;
435.9000;0.4436;0.1832;
436.2000;0.4453;0.1832;
436.5000;0.4420;0.1709;
436.8000;0.4444;0.1709;
437.1000;0.4453;0.1709;
437.4000;0.4469;0.1684;
437.7000;0.4436;0.1610;
438.0000;0.4501;0.1857;
438.3000;0.4428;0.1634;
438.6000;0.4444;0.1634;
438.9000;0.4461;0.1684;
439.2000;0.4453;0.1709;
439.5000;0.4453;0.1709;
439.8000;0.4461;0.1684;
440.1000;0.4444;0.1684;
440.4000;0.4436;0.1659;
440.7000;0.4453;0.1733;
441.0000;0.4444;0.1758;
441.3000;0.4444;0.1783;
441.6000;0.4436;0.1758;
441.9000;0.4444;0.1808;
442.2000;0.4453;0.1783;
442.5000;0.4444;0.1684;
442.8000;0.4436;0.1659;
443.1000;0.4444;0.1634;
443.4000;0.4453;0.1634;
443.7000;0.4436;0.1486;
444.0000;0.4436;0.1436;
444.3000;0.4436;0.1436;
444.6000;0.4444;0.1486;
444.9000;0.4436;0.1486;
445.2000;0.4428;0.1511;
445.5000;0.4420;0.1535;
445.8000;0.4444;0.1610;
446.1000;0.4436;0.1560;
446.4000;0.4444;0.1634;
446.7000;0.4436;0.1709;
447.0000;0.4444;0.1758;
447.3000;0.4444;0.1808;
447.6000;0.4436;0.1832;
447.9000;0.4453;0.1758;
448.2000;0.4444;0.1783;
448.5000;0.4444;0.1709;
448.8000;0.4444;0.1758;
449.1000;0.4428;0.1684;
449.4000;0.4436;0.1709;
449.7000;0.4469;0.1808;
450.0000;0.4436;0.1733;
450.3000;0.4453;0.1709;
450.6000;0.4444;0.1783;
450.9000;0.4453;0.1907;
451.2000;0.4453;0.2006;
451.5000;0.4436;0.2006;
451.8000;0.4404;0.1857;
452.1000;0.4461;0.1956;
452.4000;0.4444;0.1783;
452.7000;0.4436;0.1758;
453.0000;0.4436;0.1783;
453.3000;0.4404;0.1709;
453.6000;0.4436;0.1783;
453.9000;0.4453;0.1808;
454.2000;0.4493;0.1931;
454.5000;0.4436;0.1733;
454.8000;0.4428;0.1709;
455.1000;0.4453;0.1733;
455.4000;0.4444;0.1684;
455.7000;0.4428;0.1634;
456.0000;0.4436;0.1684;
456.3000;0.4444;0.1634;
456.6000;0.4436;0.1585;
456.9000;0.4428;0.1560;
457.2000;0.4404;0.1535;
457.5000;0.4428;0.1610;
457.8000;0.4436;0.1560;
458.1000;0.4453;0.1535;
458.4000;0.4453;0.1560;
458.7000;0.4436;0.1684;
459.0000;0.4444;0.1684;
459.3000;0.4444;0.1659;
459.6000;0.4485;0.1634;
459.9000;0.4444;0.1634;
460.2000;0.4436;0.1634;
460.5000;0.4428;0.1585;
460.8000;0.4428;0.1659;
461.1000;0.4444;0.1634;
461.4000;0.4469;0.1758;
461.7000;0.4428;0.1634;
462.0000;0.4436;0.1634;
462.3000;0.4444;0.1634;
462.6000;0.4396;0.1560;
462.9000;0.4436;0.1709;
463.2000;0.4436;0.1758;
463.5000;0.4493;0.1907;
463.8000;0.4444;0.1733;
464.1000;0.4436;0.1709;
464.4000;0.4436;0.1684;
464.7000;0.4461;0.1709;
465.0000;0.4444;0.1585;
465.3000;0.4428;0.1511;
465.6000;0.4387;0.1436;
465.9000;0.4428;0.1659;
466.2000;0.4428;0.1733;
466.5000;0.4461;0.1808;
466.8000;0.4444;0.1783;
467.1000;0.4436;0.1832;
467.4000;0.4396;0.1733;
467.7000;0.4469;0.1907;
468.0000;0.4436;0.1857;
468.3000;0.4461;0.1857;
468.6000;0.4436;0.1783;
468.9000;0.4444;0.1857;
469.2000;0.4453;0.1857;
469.5000;0.4420;0.1684;
469.8000;0.4453;0.1832;
470.1000;0.4420;0.1758;
470.4000;0.4428;0.1758;
470.7000;0.4444;0.1758;
471.0000;0.4428;0.1659;
471.3000;0.4420;0.1684;
471.6000;0.4428;0.1808;
471.9000;0.4420;0.1783;
472.2000;0.4420;0.1733;
472.5000;0.4428;0.1733;
472.8000;0.4428;0.1709;
473.1000;0.4461;0.1758;
473.4000;0.4485;0.1857;
473.7000;0.4436;0.1733;
474.0000;0.4436;0.1783;
474.3000;0.4477;0.1857;
474.6000;0.4453;0.1783;
474.9000;0.4453;0.1783;
475.2000;0.4436;0.1758;
475.5000;0.4436;0.1709;
475.8000;0.4444;0.1709;
476.1000;0.4453;0.1758;
476.4000;0.4436;0.1758;
476.7000;0.4436;0.1832;
477.0000;0.4436;0.1783;
477.3000;0.4428;0.1758;
477.6000;0.4436;0.1733;
477.9000;0.4444;0.1709;
478.2000;0.4453;0.1733;
478.5000;0.4453;0.1684;
478.8000;0.4436;0.1733;
479.1000;0.4428;0.1709;
479.4000;0.4428;0.1634;
479.7000;0.4461;0.1758;
480.0000;0.4436;0.1733;
480.3000;0.4428;0.1684;
480.6000;0.4428;0.1709;
480.9000;0.4436;0.1832;
481.2000;0.4436;0.1882;
481.5000;0.4428;0.1882;
481.8000;0.4420;0.1808;
482.1000;0.4444;0.1808;
482.4000;0.4428;0.1783;
482.7000;0.4453;0.1882;
483.0000;0.4420;0.1808;
483.3000;0.4436;0.1808;
483.6000;0.4428;0.1783;
483.9000;0.4493;0.2006;
484.2000;0.4436;0.1857;
484.5000;0.4355;0.1634;
484.8000;0.4436;0.1684;
485.1000;0.4428;0.1733;
485.4000;0.4461;0.1733;
485.7000;0.4444;0.1610;
486.0000;0.4436;0.1585;
486.3000;0.4420;0.1585;
486.6000;0.4420;0.1684;
486.9000;0.4436;0.1684;
487.2000;0.4436;0.1733;
487.5000;0.4444;0.1709;
487.8000;0.4453;0.1634;
488.1000;0.4420;0.1560;
488.4000;0.4469;0.1709;
488.7000;0.4428;0.1610;
489.0000;0.4428;0.1659;
489.3000;0.4453;0.1733;
489.6000;0.4436;0.1758;
489.9000;0.4428;0.1709;
490.2000;0.4444;0.1832;
490.5000;0.4347;0.1585;
490.8000;0.4444;0.1832;
491.1000;0.4444;0.1832;
491.4000;0.4461;0.1907;
491.7000;0.4396;0.1783;
492.0000;0.4404;0.1808;
492.3000;0.4453;0.1907;
492.6000;0.4444;0.1907;
492.9000;0.4436;0.1882;
493.2000;0.4436;0.1882;
493.5000;0.4518;0.2006;
493.8000;0.4420;0.1783;
494.1000;0.4444;0.1832;
494.4000;0.4420;0.1758;
494.7000;0.4412;0.1709;
495.0000;0.4436;0.1832;
495.3000;0.4428;0.1832;
495.6000;0.4436;0.1857;
495.9000;0.4404;0.1808;
496.2000;0.4412;0.1758;
496.5000;0.4436;0.1709;
496.8000;0.4428;0.1709;
497.1000;0.4420;0.1758;
497.4000;0.4412;0.1684;
497.7000;0.4420;0.1610;
498.0000;0.4436;0.1585;
498.3000;0.4493;0.1684;
498.6000;0.4436;0.1610;
498.9000;0.4428;0.1684;
499.2000;0.4461;0.1733;
499.5000;0.4428;0.1634;
499.8000;0.4444;0.1610;
500.1000;0.4428;0.1585;
500.4000;0.4436;0.1659;
500.7000;0.4444;0.1733;
501.0000;0.4428;0.1684;
501.3000;0.4428;0.1684;
501.6000;0.4428;0.1758;
501.9000;0.4412;0.1733;
502.2000;0.4436;0.1783;
502.5000;0.4444;0.1733;
502.8000;0.4461;0.1783;
503.1000;0.4444;0.1857;
503.4000;0.4436;0.1882;
503.7000;0.4428;0.1758;
504.0000;0.4444;0.1733;
504.3000;0.4453;0.1733;
504.6000;0.4428;0.1758;
504.9000;0.4404;0.1709;
505.2000;0.4444;0.1758;
505.5000;0.4428;0.1733;
505.8000;0.4436;0.1684;
506.1000;0.4404;0.1634;
506.4000;0.4428;0.1585;
506.7000;0.4420;0.1610;
507.0000;0.4428;0.1709;
507.3000;0.4404;0.1733;
507.6000;0.4420;0.1709;
507.9000;0.4428;0.1733;
508.2000;0.4412;0.1733;
508.5000;0.4444;0.1758;
508.8000;0.4444;0.1758;
509.1000;0.4420;0.1684;
509.4000;0.4371;0.1634;
509.7000;0.4412;0.1758;
510.0000;0.4420;0.1758;
510.3000;0.4428;0.1758;
510.6000;0.4436;0.1733;
510.9000;0.4444;0.1684;
511.2000;0.4444;0.1709;
511.5000;0.4436;0.1783;
511.8000;0.4444;0.1857;
512.1000;0.4453;0.1808;
512.4000;0.4420;0.1659;
512.7000;0.4436;0.1684;
513.0000;0.4436;0.1758;
513.3000;0.4453;0.1832;
513.6000;0.4461;0.1907;
513.9000;0.4436;0.1907;
514.2000;0.4444;0.1907;
514.5000;0.4542;0.2130;
514.8000;0.4444;0.1882;
515.1000;0.4428;0.1808;
515.4000;0.4428;0.1758;
515.7000;0.4436;0.1758;
516.0000;0.4428;0.1758;
516.3000;0.4428;0.1709;
516.6000;0.4428;0.1733;
516.9000;0.4420;0.1684;
517.2000;0.4469;0.1709;
517.5000;0.4428;0.1634;
517.8000;0.4412;0.1610;
518.1000;0.4453;0.1634;
518.4000;0.4436;0.1436;
518.7000;0.4436;0.1337;
519.0000;0.4436;0.1337;
519.3000;0.4436;0.1337;
519.6000;0.4444;0.1387;
519.9000;0.4453;0.1362;
520.2000;0.4461;0.1387;
520.5000;0.4453;0.1337;
520.8000;0.4436;0.1362;
521.1000;0.4428;0.1436;
521.4000;0.4428;0.1486;
521.7000;0.4420;0.1486;
522.0000;0.4428;0.1560;
522.3000;0.4428;0.1610;
522.6000;0.4428;0.1535;
522.9000;0.4444;0.1535;
523.2000;0.4428;0.1387;
523.5000;0.4428;0.1436;
523.8000;0.4428;0.1436;
524.1000;0.4428;0.1461;
524.4000;0.4428;0.1411;
524.7000;0.4436;0.1411;
525.0000;0.4444;0.1411;
525.3000;0.4461;0.1436;
525.6000;0.4436;0.1436;
525.9000;0.4428;0.1486;
526.2000;0.4428;0.1511;
526.5000;0.4436;0.1585;
526.8000;0.4436;0.1585;
527.1000;0.4412;0.1560;
527.4000;0.4428;0.1585;
527.7000;0.4428;0.1585;
528.0000;0.4420;0.1610;
528.3000;0.4428;0.1684;
528.6000;0.4428;0.1659;
528.9000;0.4444;0.1709;
529.2000;0.4436;0.1610;
529.5000;0.4420;0.1560;
529.8000;0.4436;0.1659;
530.1000;0.4436;0.1709;
530.4000;0.4420;0.1659;
530.7000;0.4428;0.1758;
531.0000;0.4412;0.1758;
531.3000;0.4436;0.1709;
531.6000;0.4436;0.1709;
531.9000;0.4420;0.1659;
532.2000;0.4420;0.1634;
532.5000;0.4436;0.1684;
532.8000;0.4444;0.1659;
533.1000;0.4436;0.1585;
533.4000;0.4453;0.1610;
533.7000;0.4436;0.1634;
534.0000;0.4436;0.1659;
534.3000;0.4461;0.1659;
534.6000;0.4436;0.1684;
534.9000;0.4420;0.1684;
535.2000;0.4453;0.1733;
535.5000;0.4436;0.1659;
535.8000;0.4436;0.1610;
536.1000;0.4428;0.1634;
536.4000;0.4444;0.1709;
536.7000;0.4444;0.1634;
537.0000;0.4436;0.1560;
537.3000;0.4420;0.1535;
537.6000;0.4436;0.1511;
537.9000;0.4436;0.1511;
538.2000;0.4396;0.1411;
538.5000;0.4436;0.1511;
538.8000;0.4436;0.1436;
539.1000;0.4396;0.1387;
539.4000;0.4428;0.1486;
539.7000;0.4444;0.1585;
540.0000;0.4436;0.1610;
540.3000;0.4444;0.1709;
540.6000;0.4436;0.1783;
540.9000;0.4412;0.1709;
541.2000;0.4436;0.1733;
541.5000;0.4485;0.1882;
541.8000;0.4436;0.1684;
542.1000;0.4428;0.1709;
542.4000;0.4412;0.1684;
542.7000;0.4420;0.1659;
543.0000;0.4436;0.1634;
543.3000;0.4420;0.1560;
543.6000;0.4428;0.1610;
543.9000;0.4428;0.1684;
544.2000;0.4412;0.1610;
544.5000;0.4428;0.1659;
544.8000;0.4420;0.1610;
545.1000;0.4453;0.1709;
545.4000;0.4412;0.1659;
545.7000;0.4428;0.1634;
546.0000;0.4428;0.1684;
546.3000;0.4469;0.1832;
546.6000;0.4428;0.1783;
546.9000;0.4444;0.1808;
547.2000;0.4420;0.1783;
547.5000;0.4428;0.1709;
547.8000;0.4436;0.1783;
548.1000;0.4412;0.1783;
548.4000;0.4453;0.1931;
548.7000;0.4420;0.1832;
549.0000;0.4428;0.1783;
549.3000;0.4469;0.1931;
549.6000;0.4444;0.1882;
549.9000;0.4444;0.1808;
550.2000;0.4412;0.1832;
550.5000;0.4412;0.1907;
550.8000;0.4436;0.1907;
551.1000;0.4436;0.1733;
551.4000;0.4436;0.1634;
551.7000;0.4428;0.1535;
552.0000;0.4477;0.1585;
552.3000;0.4428;0.1486;
552.6000;0.4469;0.1535;
552.9000;0.4412;0.1436;
553.2000;0.4428;0.1486;
553.5000;0.4469;0.1535;
553.8000;0.4428;0.1535;
554.1000;0.4412;0.1535;
554.4000;0.4355;0.1411;
554.7000;0.4412;0.1560;
555.0000;0.4436;0.1634;
555.3000;0.4396;0.1535;
555.6000;0.4420;0.1634;
555.9000;0.4436;0.1634;
556.2000;0.4453;0.1610;
556.5000;0.4404;0.1585;
556.8000;0.4428;0.1610;
557.1000;0.4453;0.1733;
557.4000;0.4501;0.1857;
557.7000;0.4428;0.1610;
558.0000;0.4444;0.1634;
558.3000;0.4436;0.1610;
558.6000;0.4453;0.1610;
558.9000;0.4436;0.1610;
559.2000;0.4428;0.1535;
559.5000;0.4461;0.1684;
559.8000;0.4436;0.1610;
560.1000;0.4428;0.1585;
560.4000;0.4412;0.1486;
560.7000;0.4436;0.1486;
561.0000;0.4436;0.1486;
561.3000;0.4420;0.1511;
561.6000;0.4420;0.1511;
561.9000;0.4412;0.1511;
562.2000;0.4404;0.1610;
562.5000;0.4412;0.1610;
562.8000;0.4428;0.1634;
563.1000;0.4412;0.1610;
563.4000;0.4420;0.1684;
563.7000;0.4444;0.1709;
564.0000;0.4420;0.1709;
564.3000;0.4412;0.1684;
564.6000;0.4436;0.1733;
564.9000;0.4428;0.1783;
565.2000;0.4477;0.1857;
565.5000;0.4485;0.1857;
565.8000;0.4412;0.1659;
566.1000;0.4420;0.1659;
566.4000;0.4420;0.1684;
566.7000;0.4412;0.1585;
567.0000;0.4404;0.1486;
567.3000;0.4461;0.1585;
567.6000;0.4436;0.1436;
567.9000;0.4444;0.1436;
568.2000;0.4404;0.1411;
568.5000;0.4444;0.1535;
568.8000;0.4444;0.1610;
569.1000;0.4428;0.1486;
569.4000;0.4444;0.1461;
569.7000;0.4428;0.1486;
570.0000;0.4428;0.1387;
570.3000;0.4436;0.1486;
570.6000;0.4436;0.1511;
570.9000;0.4420;0.1511;
571.2000;0.4420;0.1560;
571.5000;0.4436;0.1634;
571.8000;0.4420;0.1585;
572.1000;0.4404;0.1560;
572.4000;0.4428;0.1684;
572.7000;0.4444;0.1684;
573.0000;0.4444;0.1610;
573.3000;0.4436;0.1610;
573.6000;0.4453;0.1684;
573.9000;0.4428;0.1659;
574.2000;0.4444;0.1585;
574.5000;0.4428;0.1560;
574.8000;0.4428;0.1610;
575.1000;0.4428;0.1634;
575.4000;0.4412;0.1610;
575.7000;0.4436;0.1610;
576.0000;0.4436;0.1535;
576.3000;0.4428;0.1535;
576.6000;0.4428;0.1560;
576.9000;0.4428;0.1585;
577.2000;0.4412;0.1535;
577.5000;0.4444;0.1585;
577.8000;0.4412;0.1560;
578.1000;0.4404;0.1610;
578.4000;0.4428;0.1634;
578.7000;0.4420;0.1610;
579.0000;0.4420;0.1634;
579.3000;0.4412;0.1585;
579.6000;0.4396;0.1610;
579.9000;0.4444;0.1634;
580.2000;0.4444;0.1585;
580.5000;0.4428;0.1511;
580.8000;0.4412;0.1337;
581.1000;0.4461;0.1461;
581.4000;0.4412;0.1238;
581.7000;0.4412;0.1312;
582.0000;0.4412;0.1337;
582.3000;0.4420;0.1387;
582.6000;0.4444;0.1511;
582.9000;0.4379;0.1411;
583.2000;0.4420;0.1511;
583.5000;0.4428;0.1461;
583.8000;0.4404;0.1560;
584.1000;0.4420;0.1684;
584.4000;0.4477;0.1783;
584.7000;0.4518;0.1832;
585.0000;0.4436;0.1634;
585.3000;0.4428;0.1535;
585.6000;0.4428;0.1486;
585.9000;0.4412;0.1387;
586.2000;0.4339;0.1139;
586.5000;0.4412;0.1288;
586.8000;0.4436;0.1436;
587.1000;0.4396;0.1263;
587.4000;0.4347;0.1139;
587.7000;0.4485;0.1461;
588.0000;0.4420;0.1312;
588.3000;0.4444;0.1337;
588.6000;0.4404;0.1263;
588.9000;0.4428;0.1337;
589.2000;0.4420;0.1312;
589.5000;0.4477;0.1511;
589.8000;0.4469;0.1486;
590.1000;0.4428;0.1288;
590.4000;0.4444;0.1337;
590.7000;0.4379;0.1263;
591.0000;0.4436;0.1411;
591.3000;0.4436;0.1486;
591.6000;0.4420;0.1461;
591.9000;0.4363;0.1312;
592.2000;0.4428;0.1486;
592.5000;0.4428;0.1461;
592.8000;0.4436;0.1411;
593.1000;0.4436;0.1411;
593.4000;0.4436;0.1312;
593.7000;0.4436;0.1288;
594.0000;0.4436;0.1288;
594.3000;0.4428;0.1288;
594.6000;0.4444;0.1436;
594.9000;0.4420;0.1436;
595.2000;0.4412;0.1511;
595.5000;0.4436;0.1560;
595.8000;0.4428;0.1511;
596.1000;0.4420;0.1436;
596.4000;0.4420;0.1411;
596.7000;0.4420;0.1337;
597.0000;0.4420;0.1362;
597.3000;0.4436;0.1213;
597.6000;0.4436;0.1213;
597.9000;0.4436;0.1288;
598.2000;0.4436;0.1312;
598.5000;0.4428;0.1387;
598.8000;0.4444;0.1461;
599.1000;0.4436;0.1387;
599.4000;0.4371;0.1263;
599.7000;0.4485;0.1535;
600.0000;0.4428;0.1486;
600.3000;0.4428;0.1461;
600.6000;0.4436;0.1312;
600.9000;0.4387;0.1139;
601.2000;0.4420;0.1139;
601.5000;0.4404;0.0941;
601.8000;0.4379;0.0867;
602.1000;0.4347;0.0792;
602.4000;0.4347;0.0768;
602.7000;0.4298;0.0644;
603.0000;0.4233;0.0396;
603.3000;0.4265;0.0396;
603.6000;0.4233;0.0198;
603.9000;0.4208;0.0149;
604.2000;0.4200;0.0173;
604.5000;0.4160;0.0099;
604.8000;0.4143;0.0124;
605.1000;0.4135;0.0124;
605.4000;0.4119;0.0025;
605.7000;0.4111;0.0000;
606.0000;0.4111;-0.0025;
606.3000;0.4127;-0.0025;
606.6000;0.4103;0.0000;
606.9000;0.4054;0.0025;
607.2000;0.4013;-0.0074;
607.5000;0.4005;-0.0149;
607.8000;0.4037;-0.0050;
608.1000;0.3997;-0.0074;
608.4000;0.3997;-0.0198;
608.7000;0.3956;-0.0297;
609.0000;0.3964;-0.0248;
609.3000;0.3932;-0.0248;
609.6000;0.3964;-0.0149;
609.9000;0.3956;-0.0198;
610.2000;0.3932;-0.0198;
610.5000;0.3858;-0.0347;
610.8000;0.3915;-0.0223;
611.1000;0.3956;-0.0074;
611.4000;0.3899;-0.0223;
611.7000;0.3842;-0.0347;
612.0000;0.3850;-0.0297;
612.3000;0.3842;-0.0396;
612.6000;0.3858;-0.0347;
612.9000;0.3858;-0.0297;
613.2000;0.3826;-0.0322;
613.5000;0.3834;-0.0297;
613.8000;0.3777;-0.0396;
614.1000;0.3818;-0.0297;
614.4000;0.3818;-0.0371;
614.7000;0.3744;-0.0470;
615.0000;0.3777;-0.0371;
615.3000;0.3785;-0.0446;
615.6000;0.3777;-0.0545;
615.9000;0.3704;-0.0693;
616.2000;0.3753;-0.0520;
616.5000;0.3744;-0.0520;
616.8000;0.3744;-0.0545;
617.1000;0.3744;-0.0446;
617.4000;0.3736;-0.0421;
617.7000;0.3712;-0.0371;
618.0000;0.3712;-0.0371;
618.3000;0.3720;-0.0396;
618.6000;0.3712;-0.0446;
618.9000;0.3704;-0.0446;
619.2000;0.3655;-0.0594;
619.5000;0.3696;-0.0470;
619.8000;0.3679;-0.0570;
620.1000;0.3671;-0.0669;
620.4000;0.3696;-0.0570;
620.7000;0.3671;-0.0545;
621.0000;0.3655;-0.0520;
621.3000;0.3647;-0.0594;
621.6000;0.3647;-0.0594;
621.9000;0.3639;-0.0495;
622.2000;0.3647;-0.0495;
622.5000;0.3663;-0.0470;
622.8000;0.3663;-0.0421;
623.1000;0.3639;-0.0470;
623.4000;0.3582;-0.0594;
623.7000;0.3630;-0.0495;
624.0000;0.3598;-0.0495;
624.3000;0.3622;-0.0421;
624.6000;0.3582;-0.0396;
624.9000;0.3614;-0.0322;
625.2000;0.3565;-0.0347;
625.5000;0.3582;-0.0297;
625.8000;0.3582;-0.0347;
626.1000;0.3549;-0.0446;
626.4000;0.3622;-0.0149;
626.7000;0.3549;-0.0371;
627.0000;0.3573;-0.0421;
627.3000;0.3557;-0.0545;
627.6000;0.3565;-0.0619;
627.9000;0.3557;-0.0619;
628.2000;0.3549;-0.0520;
628.5000;0.3557;-0.0347;
628.8000;0.3541;-0.0396;
629.1000;0.3541;-0.0396;
629.4000;0.3508;-0.0421;
629.7000;0.3525;-0.0297;
630.0000;0.3476;-0.0421;
630.3000;0.3525;-0.0322;
630.6000;0.3476;-0.0421;
630.9000;0.3598;-0.0198;
631.2000;0.3484;-0.0446;
631.5000;0.3484;-0.0470;
631.8000;0.3500;-0.0446;
632.1000;0.3484;-0.0421;
632.4000;0.3468;-0.0396;
632.7000;0.3492;-0.0322;
633.0000;0.3443;-0.0446;
633.3000;0.3460;-0.0322;
633.6000;0.3476;-0.0322;
633.9000;0.3460;-0.0371;
634.2000;0.3468;-0.0297;
634.5000;0.3460;-0.0347;
634.8000;0.3451;-0.0347;
635.1000;0.3443;-0.0470;
635.4000;0.3451;-0.0520;
635.7000;0.3427;-0.0570;
636.0000;0.3435;-0.0470;
636.3000;0.3403;-0.0470;
636.6000;0.3411;-0.0347;
636.9000;0.3411;-0.0347;
637.2000;0.3419;-0.0347;
637.5000;0.3419;-0.0446;
637.8000;0.3403;-0.0520;
638.1000;0.3386;-0.0470;
638.4000;0.3419;-0.0446;
638.7000;0.3411;-0.0396;
639.0000;0.3403;-0.0446;
639.3000;0.3378;-0.0371;
639.6000;0.3394;-0.0396;
639.9000;0.3394;-0.0470;
640.2000;0.3346;-0.0644;
640.5000;0.3386;-0.0495;
640.8000;0.3370;-0.0495;
641.1000;0.3378;-0.0545;
641.4000;0.3370;-0.0644;
641.7000;0.3370;-0.0669;
642.0000;0.3370;-0.0594;
642.3000;0.3346;-0.0545;
642.6000;0.3354;-0.0495;
642.9000;0.3354;-0.0520;
643.2000;0.3362;-0.0495;
643.5000;0.3354;-0.0421;
643.8000;0.3362;-0.0470;
644.1000;0.3346;-0.0446;
644.4000;0.3346;-0.0470;
644.7000;0.3337;-0.0347;
645.0000;0.3386;-0.0297;
645.3000;0.3337;-0.0297;
645.6000;0.3346;-0.0396;
645.9000;0.3321;-0.0594;
646.2000;0.3305;-0.0718;
646.5000;0.3329;-0.0619;
646.8000;0.3305;-0.0693;
647.1000;0.3313;-0.0693;
647.4000;0.3411;-0.0446;
647.7000;0.3321;-0.0768;
648.0000;0.3313;-0.0718;
648.3000;0.3321;-0.0768;
648.6000;0.3305;-0.0867;
648.9000;0.3305;-0.0891;
649.2000;0.3305;-0.0867;
649.5000;0.3297;-0.0768;
649.8000;0.3305;-0.0743;
650.1000;0.3305;-0.0669;
650.4000;0.3297;-0.0743;
650.7000;0.3289;-0.0693;
651.0000;0.3272;-0.0644;
651.3000;0.3297;-0.0570;
651.6000;0.3289;-0.0545;
651.9000;0.3313;-0.0495;
652.2000;0.3272;-0.0669;
652.5000;0.3289;-0.0644;
652.8000;0.3297;-0.0594;
653.1000;0.3272;-0.0669;
653.4000;0.3256;-0.0693;
653.7000;0.3264;-0.0743;
654.0000;0.3264;-0.0718;
654.3000;0.3256;-0.0718;
654.6000;0.3248;-0.0768;
654.9000;0.3264;-0.0693;
655.2000;0.3264;-0.0594;
655.5000;0.3248;-0.0570;
655.8000;0.3256;-0.0545;
656.1000;0.3264;-0.0495;
656.4000;0.3272;-0.0470;
656.7000;0.3248;-0.0470;
657.0000;0.3223;-0.0520;
657.3000;0.3240;-0.0520;
657.6000;0.3232;-0.0594;
657.9000;0.3240;-0.0669;
658.2000;0.3248;-0.0594;
658.5000;0.3232;-0.0594;
658.8000;0.3232;-0.0594;
659.1000;0.3199;-0.0594;
659.4000;0.3240;-0.0470;
659.7000;0.3215;-0.0594;
660.0000;0.3223;-0.0619;
660.3000;0.3223;-0.0520;
660.6000;0.3215;-0.0545;
660.9000;0.3223;-0.0520;
661.2000;0.3240;-0.0594;
661.5000;0.3199;-0.0669;
661.8000;0.3207;-0.0594;
662.1000;0.3223;-0.0619;
662.4000;0.3215;-0.0619;
662.7000;0.3207;-0.0718;
663.0000;0.3223;-0.0669;
663.3000;0.3191;-0.0693;
663.6000;0.3199;-0.0644;
663.9000;0.3183;-0.0669;
664.2000;0.3191;-0.0718;
664.5000;0.3191;-0.0743;
664.8000;0.3199;-0.0669;
665.1000;0.3215;-0.0693;
665.4000;0.3191;-0.0768;
665.7000;0.3150;-0.0867;
666.0000;0.3199;-0.0792;
666.3000;0.3191;-0.0718;
666.6000;0.3191;-0.0594;
666.9000;0.3199;-0.0520;
667.2000;0.3199;-0.0470;
667.5000;0.3199;-0.0396;
667.8000;0.3199;-0.0421;
668.1000;0.3199;-0.0347;
668.4000;0.3175;-0.0347;
668.7000;0.3183;-0.0446;
669.0000;0.3175;-0.0570;
669.3000;0.3183;-0.0545;
669.6000;0.3175;-0.0545;
669.9000;0.3158;-0.0421;
670.2000;0.3142;-0.0495;
670.5000;0.3166;-0.0470;
670.8000;0.3175;-0.0371;
671.1000;0.3191;-0.0371;
671.4000;0.3142;-0.0470;
671.7000;0.3158;-0.0446;
672.0000;0.3150;-0.0421;
672.3000;0.3166;-0.0396;
672.6000;0.3142;-0.0446;
672.9000;0.3150;-0.0470;
673.2000;0.3150;-0.0545;
673.5000;0.3134;-0.0545;
673.8000;0.3166;-0.0470;
674.1000;0.3150;-0.0446;
674.4000;0.3118;-0.0495;
674.7000;0.3134;-0.0371;
675.0000;0.3191;-0.0198;
675.3000;0.3118;-0.0421;
675.6000;0.3126;-0.0446;
675.9000;0.3134;-0.0446;
676.2000;0.3126;-0.0371;
676.5000;0.3118;-0.0396;
676.8000;0.3134;-0.0347;
677.1000;0.3118;-0.0396;
677.4000;0.3118;-0.0495;
677.7000;0.3150;-0.0322;
678.0000;0.3199;-0.0124;
678.3000;0.3118;-0.0297;
678.6000;0.3158;-0.0149;
678.9000;0.3118;-0.0223;
679.2000;0.3069;-0.0371;
679.5000;0.3126;-0.0297;
679.8000;0.3126;-0.0248;
680.1000;0.3101;-0.0322;
680.4000;0.3126;-0.0272;
680.7000;0.3142;-0.0198;
681.0000;0.3118;-0.0297;
681.3000;0.3118;-0.0371;
681.6000;0.3109;-0.0421;
681.9000;0.3101;-0.0371;
682.2000;0.3085;-0.0371;
682.5000;0.3101;-0.0421;
682.8000;0.3069;-0.0446;
683.1000;0.3118;-0.0272;
683.4000;0.3134;-0.0297;
683.7000;0.3093;-0.0396;
684.0000;0.3085;-0.0421;
684.3000;0.3085;-0.0446;
684.6000;0.3109;-0.0347;
684.9000;0.3093;-0.0297;
685.2000;0.3101;-0.0297;
685.5000;0.3101;-0.0396;
685.8000;0.3101;-0.0470;
686.1000;0.3053;-0.0520;
686.4000;0.3093;-0.0396;
686.7000;0.3077;-0.0297;
687.0000;0.3085;-0.0272;
687.3000;0.3069;-0.0322;
687.6000;0.3077;-0.0347;
687.9000;0.3085;-0.0297;
688.2000;0.3053;-0.0396;
688.5000;0.3093;-0.0272;
688.8000;0.3077;-0.0347;
689.1000;0.3126;-0.0272;
689.4000;0.3077;-0.0495;
689.7000;0.3061;-0.0570;
690.0000;0.3093;-0.0495;
690.3000;0.3093;-0.0446;
690.6000;0.3085;-0.0470;
690.9000;0.3061;-0.0520;
691.2000;0.3053;-0.0545;
691.5000;0.3069;-0.0470;
691.8000;0.3077;-0.0470;
692.1000;0.3077;-0.0421;
692.4000;0.3061;-0.0421;
692.7000;0.3061;-0.0347;
693.0000;0.3077;-0.0272;
693.3000;0.3069;-0.0347;
693.6000;0.3061;-0.0322;
693.9000;0.3044;-0.0446;
694.2000;0.3061;-0.0446;
694.5000;0.3061;-0.0495;
694.8000;0.3044;-0.0545;
695.1000;0.3077;-0.0470;
695.4000;0.3061;-0.0495;
695.7000;0.2987;-0.0594;
696.0000;0.3061;-0.0347;
696.3000;0.3036;-0.0396;
696.6000;0.3044;-0.0347;
696.9000;0.3020;-0.0446;
697.2000;0.3093;-0.0322;
697.5000;0.3044;-0.0446;
697.8000;0.3053;-0.0470;
698.1000;0.3044;-0.0470;
698.4000;0.3044;-0.0470;
698.7000;0.3044;-0.0396;
699.0000;0.3036;-0.0446;
699.3000;0.3069;-0.0347;
699.6000;0.3028;-0.0470;
699.9000;0.3028;-0.0396;
700.2000;0.3044;-0.0371;
700.5000;0.3020;-0.0470;
700.8000;0.3077;-0.0371;
701.1000;0.3053;-0.0495;
701.4000;0.3028;-0.0570;
701.7000;0.3020;-0.0520;
702.0000;0.3028;-0.0520;
702.3000;0.3012;-0.0396;
702.6000;0.3012;-0.0347;
702.9000;0.3012;-0.0396;
703.2000;0.3028;-0.0371;
703.5000;0.2987;-0.0669;
703.8000;0.3036;-0.0619;
704.1000;0.2947;-0.0891;
704.4000;0.3036;-0.0594;
704.7000;0.3028;-0.0545;
705.0000;0.3036;-0.0570;
705.3000;0.3020;-0.0570;
705.6000;0.2996;-0.0644;
705.9000;0.3036;-0.0669;
706.2000;0.3020;-0.0669;
706.5000;0.3012;-0.0669;
706.8000;0.3036;-0.0545;
707.1000;0.3028;-0.0570;
707.4000;0.3036;-0.0570;
707.7000;0.3020;-0.0570;
708.0000;0.3012;-0.0495;
708.3000;0.3036;-0.0446;
708.6000;0.3053;-0.0446;
708.9000;0.3012;-0.0594;
709.2000;0.3012;-0.0644;
709.5000;0.3020;-0.0594;
709.8000;0.3020;-0.0570;
710.1000;0.3028;-0.0570;
710.4000;0.3028;-0.0545;
710.7000;0.3020;-0.0545;
711.0000;0.3028;-0.0570;
711.3000;0.3020;-0.0693;
711.6000;0.3020;-0.0669;
711.9000;0.3020;-0.0693;
712.2000;0.3020;-0.0644;
712.5000;0.3028;-0.0446;
712.8000;0.3004;-0.0396;
713.1000;0.3012;-0.0446;
713.4000;0.3004;-0.0446;
713.7000;0.3012;-0.0446;
714.0000;0.2979;-0.0470;
714.3000;0.3012;-0.0470;
714.6000;0.3004;-0.0520;
714.9000;0.3012;-0.0545;
715.2000;0.2996;-0.0570;
715.5000;0.2996;-0.0545;
715.8000;0.3028;-0.0421;
716.1000;0.3020;-0.0446;
716.4000;0.3004;-0.0396;
716.7000;0.3004;-0.0421;
717.0000;0.3004;-0.0396;
717.3000;0.2996;-0.0371;
717.6000;0.2996;-0.0322;
717.9000;0.3061;-0.0149;
718.2000;0.2979;-0.0297;
718.5000;0.3053;-0.0223;
718.8000;0.3028;-0.0347;
719.1000;0.3004;-0.0520;
719.4000;0.2906;-0.0718;
719.7000;0.2930;-0.0644;
720.0000;0.3012;-0.0371;
720.3000;0.3004;-0.0470;
720.6000;0.2987;-0.0570;
720.9000;0.3012;-0.0470;
721.2000;0.2987;-0.0570;
721.5000;0.3012;-0.0421;
721.8000;0.2955;-0.0570;
722.1000;0.2979;-0.0470;
722.4000;0.3012;-0.0446;
722.7000;0.2996;-0.0470;
723.0000;0.2996;-0.0371;
723.3000;0.2987;-0.0446;
723.6000;0.3012;-0.0446;
723.9000;0.3004;-0.0520;
724.2000;0.2971;-0.0520;
724.5000;0.3020;-0.0371;
724.8000;0.3004;-0.0396;
725.1000;0.2987;-0.0421;
725.4000;0.2979;-0.0421;
725.7000;0.2987;-0.0371;
726.0000;0.2987;-0.0421;
726.3000;0.2987;-0.0570;
726.6000;0.2971;-0.0545;
726.9000;0.2979;-0.0446;
727.2000;0.2890;-0.0619;
727.5000;0.2996;-0.0371;
727.8000;0.2987;-0.0396;
728.1000;0.2979;-0.0446;
728.4000;0.2987;-0.0446;
728.7000;0.2987;-0.0421;
729.0000;0.2979;-0.0347;
729.3000;0.2979;-0.0421;
729.6000;0.2947;-0.0495;
729.9000;0.2987;-0.0421;
730.2000;0.2947;-0.0470;
730.5000;0.2979;-0.0421;
730.8000;0.2987;-0.0347;
731.1000;0.2979;-0.0371;
731.4000;0.2996;-0.0371;
731.7000;0.2979;-0.0322;
732.0000;0.2955;-0.0322;
732.3000;0.3020;-0.0248;
732.6000;0.2963;-0.0520;
732.9000;0.3004;-0.0446;
733.2000;0.2979;-0.0446;
733.5000;0.2963;-0.0446;
733.8000;0.2996;-0.0371;
734.1000;0.2963;-0.0371;
734.4000;0.2955;-0.0371;
734.7000;0.2963;-0.0322;
735.0000;0.2963;-0.0347;
735.3000;0.2987;-0.0347;
735.6000;0.2963;-0.0371;
735.9000;0.2987;-0.0396;
736.2000;0.2971;-0.0347;
736.5000;0.2979;-0.0322;
736.8000;0.2963;-0.0396;
737.1000;0.2922;-0.0520;
737.4000;0.2987;-0.0297;
737.7000;0.2971;-0.0347;
738.0000;0.2947;-0.0470;
738.3000;0.2963;-0.0396;
738.6000;0.2987;-0.0322;
738.9000;0.2922;-0.0421;
739.2000;0.2987;-0.0198;
739.5000;0.2947;-0.0248;
739.8000;0.2963;-0.0223;
740.1000;0.2947;-0.0223;
740.4000;0.2922;-0.0347;
740.7000;0.2963;-0.0371;
741.0000;0.2930;-0.0470;
741.3000;0.2947;-0.0470;
741.6000;0.2939;-0.0421;
741.9000;0.2987;-0.0347;
742.2000;0.2939;-0.0421;
742.5000;0.2947;-0.0396;
742.8000;0.2947;-0.0371;
743.1000;0.2930;-0.0470;
743.4000;0.2914;-0.0570;
743.7000;0.2971;-0.0495;
744.0000;0.2963;-0.0495;
744.3000;0.2898;-0.0570;
744.6000;0.2963;-0.0495;
744.9000;0.2955;-0.0495;
745.2000;0.2955;-0.0495;
745.5000;0.2987;-0.0396;
745.8000;0.2922;-0.0594;
746.1000;0.2971;-0.0421;
746.4000;0.2947;-0.0446;
746.7000;0.2947;-0.0371;
747.0000;0.2947;-0.0446;
747.3000;0.2947;-0.0520;
747.6000;0.2939;-0.0495;
747.9000;0.2939;-0.0495;
748.2000;0.2922;-0.0520;
748.5000;0.2922;-0.0520;
748.8000;0.2947;-0.0520;
749.1000;0.2947;-0.0470;
749.4000;0.2947;-0.0446;
749.7000;0.2922;-0.0545;
750.0000;0.3020;-0.0347;
750.3000;0.2930;-0.0470;
750.6000;0.2963;-0.0371;
750.9000;0.2939;-0.0396;
751.2000;0.2930;-0.0446;
751.5000;0.2939;-0.0520;
751.8000;0.2930;-0.0495;
752.1000;0.2939;-0.0396;
752.4000;0.2955;-0.0272;
752.7000;0.2930;-0.0421;
753.0000;0.2939;-0.0446;
753.3000;0.2947;-0.0371;
753.6000;0.2930;-0.0446;
753.9000;0.2930;-0.0371;
754.2000;0.2947;-0.0248;
754.5000;0.2922;-0.0248;
754.8000;0.2922;-0.0223;
755.1000;0.2955;-0.0198;
755.4000;0.2930;-0.0297;
755.7000;0.2922;-0.0322;
756.0000;0.2939;-0.0272;
756.3000;0.2955;-0.0322;
756.6000;0.2955;-0.0347;
756.9000;0.2898;-0.0421;
757.2000;0.2930;-0.0446;
757.5000;0.2930;-0.0446;
757.8000;0.2939;-0.0446;
758.1000;0.2906;-0.0495;
758.4000;0.2898;-0.0495;
758.7000;0.2930;-0.0347;
759.0000;0.2914;-0.0322;
759.3000;0.2939;-0.0371;
759.6000;0.2898;-0.0371;
759.9000;0.2930;-0.0297;
760.2000;0.2922;-0.0371;
760.5000;0.2947;-0.0248;
760.8000;0.2955;-0.0198;
761.1000;0.2930;-0.0223;
761.4000;0.2939;-0.0248;
761.7000;0.2914;-0.0347;
762.0000;0.2922;-0.0421;
762.3000;0.2930;-0.0421;
762.6000;0.2930;-0.0520;
762.9000;0.2939;-0.0396;
763.2000;0.2898;-0.0470;
763.5000;0.2939;-0.0421;
763.8000;0.2930;-0.0520;
764.1000;0.2930;-0.0495;
764.4000;0.2882;-0.0619;
764.7000;0.2922;-0.0470;
765.0000;0.2922;-0.0520;
765.3000;0.2939;-0.0520;
765.6000;0.2939;-0.0570;
765.9000;0.2922;-0.0545;
766.2000;0.2963;-0.0371;
766.5000;0.2930;-0.0446;
766.8000;0.2922;-0.0495;
767.1000;0.2914;-0.0446;
767.4000;0.2906;-0.0495;
767.7000;0.2987;-0.0297;
768.0000;0.2922;-0.0421;
768.3000;0.2898;-0.0470;
768.6000;0.2914;-0.0421;
768.9000;0.2930;-0.0446;
769.2000;0.2930;-0.0470;
769.5000;0.2922;-0.0495;
769.8000;0.2906;-0.0520;
770.1000;0.2906;-0.0470;
770.4000;0.2922;-0.0470;
770.7000;0.2922;-0.0470;
771.0000;0.2971;-0.0371;
771.3000;0.2947;-0.0520;
771.6000;0.2939;-0.0520;
771.9000;0.2890;-0.0520;
772.2000;0.2914;-0.0470;
772.5000;0.2890;-0.0594;
772.8000;0.2898;-0.0619;
773.1000;0.2922;-0.0520;
773.4000;0.2890;-0.0644;
773.7000;0.2906;-0.0446;
774.0000;0.2922;-0.0495;
774.3000;0.2914;-0.0545;
774.6000;0.2898;-0.0669;
774.9000;0.2898;-0.0743;
775.2000;0.2898;-0.0768;
775.5000;0.2947;-0.0619;
775.8000;0.2939;-0.0693;
776.1000;0.2914;-0.0594;
776.4000;0.2914;-0.0570;
776.7000;0.2939;-0.0520;
777.0000;0.2882;-0.0718;
777.3000;0.2898;-0.0619;
777.6000;0.2922;-0.0619;
777.9000;0.2906;-0.0619;
778.2000;0.2898;-0.0644;
778.5000;0.2914;-0.0693;
778.8000;0.2906;-0.0718;
779.1000;0.2882;-0.0792;
779.4000;0.2857;-0.0842;
779.7000;0.2906;-0.0693;
780.0000;0.2922;-0.0619;
780.3000;0.2849;-0.0718;
780.6000;0.2914;-0.0545;
780.9000;0.2841;-0.0545;
781.2000;0.2922;-0.0322;
781.5000;0.2890;-0.0371;
781.8000;0.2849;-0.0470;
782.1000;0.2930;-0.0198;
782.4000;0.2898;-0.0272;
782.7000;0.2890;-0.0347;
783.0000;0.2906;-0.0446;
783.3000;0.2906;-0.0446;
783.6000;0.2930;-0.0297;
783.9000;0.2890;-0.0446;
784.2000;0.2939;-0.0371;
784.5000;0.2914;-0.0371;
784.8000;0.2906;-0.0347;
785.1000;0.2890;-0.0371;
785.4000;0.2873;-0.0421;
785.7000;0.2898;-0.0396;
786.0000;0.2898;-0.0470;
786.3000;0.2890;-0.0520;
786.6000;0.2890;-0.0495;
786.9000;0.2930;-0.0371;
787.2000;0.2898;-0.0371;
787.5000;0.2890;-0.0470;
787.8000;0.2890;-0.0545;
788.1000;0.2890;-0.0495;
788.4000;0.2979;-0.0248;
788.7000;0.2922;-0.0396;
789.0000;0.2898;-0.0421;
789.3000;0.2914;-0.0371;
789.6000;0.2890;-0.0446;
789.9000;0.2882;-0.0446;
790.2000;0.2890;-0.0421;
790.5000;0.2922;-0.0347;
790.8000;0.2849;-0.0495;
791.1000;0.2906;-0.0421;
791.4000;0.2914;-0.0347;
791.7000;0.2865;-0.0371;
792.0000;0.2898;-0.0248;
792.3000;0.2914;-0.0248;
792.6000;0.2906;-0.0322;
792.9000;0.2800;-0.0669;
793.2000;0.2898;-0.0446;
793.5000;0.2898;-0.0446;
793.8000;0.2890;-0.0421;
794.1000;0.2882;-0.0446;
794.4000;0.2906;-0.0421;
794.7000;0.2841;-0.0619;
795.0000;0.2825;-0.0619;
795.3000;0.2890;-0.0446;
795.6000;0.2898;-0.0520;
795.9000;0.2898;-0.0495;
796.2000;0.2849;-0.0570;
796.5000;0.2914;-0.0347;
796.8000;0.2873;-0.0495;
797.1000;0.2882;-0.0495;
797.4000;0.2890;-0.0446;
797.7000;0.2922;-0.0371;
798.0000;0.2898;-0.0396;
798.3000;0.2914;-0.0297;
798.6000;0.2882;-0.0371;
798.9000;0.2890;-0.0223;
799.2000;0.2882;-0.0173;
799.5000;0.2898;-0.0223;
799.8000;0.2930;-0.0223;
800.1000;0.2882;-0.0347;
800.4000;0.2873;-0.0470;
800.7000;0.2882;-0.0446;
801.0000;0.2865;-0.0594;
801.3000;0.2890;-0.0446;
801.6000;0.2882;-0.0446;
801.9000;0.2882;-0.0371;
802.2000;0.2865;-0.0347;
802.5000;0.2890;-0.0396;
802.8000;0.2898;-0.0421;
803.1000;0.2890;-0.0545;
803.4000;0.2890;-0.0520;
803.7000;0.2890;-0.0421;
804.0000;0.2898;-0.0446;
804.3000;0.2882;-0.0446;
804.6000;0.2890;-0.0421;
804.9000;0.2882;-0.0396;
805.2000;0.2890;-0.0421;
805.5000;0.2898;-0.0520;
805.8000;0.2898;-0.0495;
806.1000;0.2922;-0.0347;
806.4000;0.2882;-0.0396;
806.7000;0.2898;-0.0396;
807.0000;0.2882;-0.0421;
807.3000;0.2890;-0.0396;
807.6000;0.2882;-0.0396;
807.9000;0.2873;-0.0421;
808.2000;0.2882;-0.0347;
808.5000;0.2890;-0.0248;
808.8000;0.2922;-0.0149;
809.1000;0.2898;-0.0173;
809.4000;0.2906;-0.0198;
809.7000;0.2890;-0.0297;
810.0000;0.2873;-0.0322;
810.3000;0.2873;-0.0272;
810.6000;0.2873;-0.0297;
810.9000;0.2890;-0.0322;
811.2000;0.2865;-0.0371;
811.5000;0.2890;-0.0347;
811.8000;0.2882;-0.0272;
812.1000;0.2890;-0.0322;
812.4000;0.2898;-0.0272;
812.7000;0.2882;-0.0371;
813.0000;0.2849;-0.0545;
813.3000;0.2873;-0.0545;
813.6000;0.2898;-0.0470;
813.9000;0.2816;-0.0718;
814.2000;0.2882;-0.0594;
814.5000;0.2906;-0.0495;
814.8000;0.2865;-0.0570;
815.1000;0.2882;-0.0570;
815.4000;0.2987;-0.0223;
815.7000;0.2865;-0.0470;
816.0000;0.2898;-0.0396;
816.3000;0.2873;-0.0470;
816.6000;0.2873;-0.0421;
816.9000;0.2833;-0.0520;
817.2000;0.2930;-0.0272;
817.5000;0.2865;-0.0446;
817.8000;0.2841;-0.0545;
818.1000;0.2882;-0.0470;
818.4000;0.2873;-0.0545;
818.7000;0.2898;-0.0570;
819.0000;0.2816;-0.0718;
819.3000;0.2906;-0.0446;
819.6000;0.2873;-0.0446;
819.9000;0.2865;-0.0421;
820.2000;0.2873;-0.0446;
820.5000;0.2873;-0.0396;
820.8000;0.2873;-0.0347;
821.1000;0.2873;-0.0347;
821.4000;0.2882;-0.0347;
821.7000;0.2873;-0.0421;
822.0000;0.2841;-0.0470;
822.3000;0.2873;-0.0446;
822.6000;0.2865;-0.0470;
822.9000;0.2914;-0.0396;
823.2000;0.2865;-0.0570;
823.5000;0.2882;-0.0545;
823.8000;0.2873;-0.0594;
824.1000;0.2865;-0.0495;
824.4000;0.2841;-0.0545;
824.7000;0.2890;-0.0371;
825.0000;0.2873;-0.0322;
825.3000;0.2873;-0.0223;
825.6000;0.2857;-0.0272;
825.9000;0.2890;-0.0223;
826.2000;0.2865;-0.0050;
826.5000;0.2857;-0.0050;
826.8000;0.2849;-0.0099;
827.1000;0.2898;-0.0074;
827.4000;0.2898;-0.0124;
827.7000;0.2865;-0.0149;
828.0000;0.2922;-0.0050;
828.3000;0.2865;-0.0198;
828.6000;0.2906;-0.0124;
828.9000;0.2865;-0.0198;
829.2000;0.2882;-0.0272;
829.5000;0.2857;-0.0371;
829.8000;0.2873;-0.0322;
830.1000;0.2841;-0.0396;
830.4000;0.2882;-0.0223;
830.7000;0.2882;-0.0198;
831.0000;0.2882;-0.0248;
831.3000;0.2833;-0.0446;
831.6000;0.2865;-0.0297;
831.9000;0.2865;-0.0297;
832.2000;0.2882;-0.0272;
832.5000;0.2873;-0.0198;
832.8000;0.2865;-0.0248;
833.1000;0.2882;-0.0223;
833.4000;0.2882;-0.0173;
833.7000;0.2890;-0.0025;
834.0000;0.2873;-0.0050;
834.3000;0.2857;-0.0074;
834.6000;0.2882;-0.0050;
834.9000;0.2898;0.0000;
835.2000;0.2825;-0.0173;
835.5000;0.2906;-0.0050;
835.8000;0.2890;-0.0099;
836.1000;0.2873;-0.0173;
836.4000;0.2898;-0.0074;
836.7000;0.2865;-0.0297;
837.0000;0.2865;-0.0272;
837.3000;0.2873;-0.0248;
837.6000;0.2890;-0.0272;
837.9000;0.2873;-0.0297;
838.2000;0.2914;-0.0248;
838.5000;0.2865;-0.0272;
838.8000;0.2841;-0.0371;
839.1000;0.2882;-0.0272;
839.4000;0.2906;-0.0248;
839.7000;0.2890;-0.0371;
840.0000;0.2922;-0.0198;
840.3000;0.2849;-0.0446;
840.6000;0.2890;-0.0347;
840.9000;0.2865;-0.0446;
841.2000;0.2849;-0.0446;
841.5000;0.2873;-0.0470;
841.8000;0.2865;-0.0495;
842.1000;0.2849;-0.0520;
842.4000;0.2849;-0.0470;
842.7000;0.2849;-0.0421;
843.0000;0.2865;-0.0371;
843.3000;0.2841;-0.0371;
843.6000;0.2849;-0.0421;
843.9000;0.2873;-0.0347;
844.2000;0.2865;-0.0396;
844.5000;0.2857;-0.0470;
844.8000;0.2841;-0.0520;
845.1000;0.2841;-0.0520;
845.4000;0.2865;-0.0421;
845.7000;0.2841;-0.0470;
846.0000;0.2849;-0.0421;
846.3000;0.2841;-0.0421;
846.6000;0.2882;-0.0297;
846.9000;0.2816;-0.0520;
847.2000;0.2857;-0.0446;
847.5000;0.2865;-0.0520;
847.8000;0.2873;-0.0371;
848.1000;0.2882;-0.0396;
848.4000;0.2857;-0.0495;
848.7000;0.2865;-0.0520;
849.0000;0.2857;-0.0446;
849.3000;0.2849;-0.0322;
849.6000;0.2849;-0.0198;
849.9000;0.2857;-0.0223;
850.2000;0.2849;-0.0272;
850.5000;0.2841;-0.0297;
850.8000;0.2857;-0.0248;
851.1000;0.2873;-0.0272;
851.4000;0.2849;-0.0421;
851.7000;0.2849;-0.0371;
852.0000;0.2841;-0.0470;
852.3000;0.2825;-0.0470;
852.6000;0.2833;-0.0470;
852.9000;0.2825;-0.0421;
853.2000;0.2841;-0.0396;
853.5000;0.2882;-0.0371;
853.8000;0.2857;-0.0470;
854.1000;0.2947;-0.0248;
854.4000;0.2865;-0.0446;
854.7000;0.2882;-0.0322;
855.0000;0.2865;-0.0272;
855.3000;0.2841;-0.0223;
855.6000;0.2857;-0.0248;
855.9000;0.2825;-0.0421;
856.2000;0.2873;-0.0371;
856.5000;0.2833;-0.0470;
856.8000;0.2849;-0.0371;
857.1000;0.2857;-0.0272;
857.4000;0.2930;-0.0124;
857.7000;0.2841;-0.0421;
858.0000;0.2857;-0.0421;
858.3000;0.2873;-0.0371;
858.6000;0.2873;-0.0396;
858.9000;0.2825;-0.0619;
859.2000;0.2898;-0.0396;
859.5000;0.2849;-0.0520;
859.8000;0.2816;-0.0644;
860.1000;0.2849;-0.0470;
860.4000;0.2833;-0.0545;
860.7000;0.2857;-0.0446;
861.0000;0.2857;-0.0421;
861.3000;0.2808;-0.0470;
861.6000;0.2833;-0.0495;
861.9000;0.2800;-0.0520;
862.2000;0.2857;-0.0347;
862.5000;0.2857;-0.0347;
862.8000;0.2865;-0.0297;
863.1000;0.2841;-0.0322;
863.4000;0.2849;-0.0272;
863.7000;0.2841;-0.0297;
864.0000;0.2865;-0.0223;
864.3000;0.2857;-0.0272;
864.6000;0.2849;-0.0297;
864.9000;0.2922;-0.0099;
865.2000;0.2865;-0.0248;
865.5000;0.2857;-0.0248;
865.8000;0.2841;-0.0198;
866.1000;0.2857;-0.0347;
866.4000;0.2857;-0.0421;
866.7000;0.2841;-0.0421;
867.0000;0.2857;-0.0495;
867.3000;0.2849;-0.0644;
867.6000;0.2865;-0.0470;
867.9000;0.2841;-0.0495;
868.2000;0.2841;-0.0421;
868.5000;0.2841;-0.0371;
868.8000;0.2857;-0.0421;
869.1000;0.2906;-0.0297;
869.4000;0.2849;-0.0594;
869.7000;0.2849;-0.0520;
870.0000;0.2849;-0.0545;
870.3000;0.2849;-0.0446;
870.6000;0.2841;-0.0421;
870.9000;0.2833;-0.0347;
871.2000;0.2849;-0.0297;
871.5000;0.2865;-0.0322;
871.8000;0.2849;-0.0421;
872.1000;0.2865;-0.0421;
872.4000;0.2873;-0.0495;
872.7000;0.2849;-0.0545;
873.0000;0.2857;-0.0446;
873.3000;0.2865;-0.0421;
873.6000;0.2857;-0.0396;
873.9000;0.2857;-0.0396;
874.2000;0.2890;-0.0347;
874.5000;0.2849;-0.0470;
874.8000;0.2898;-0.0347;
875.1000;0.2825;-0.0470;
875.4000;0.2865;-0.0446;
875.7000;0.2833;-0.0520;
876.0000;0.2841;-0.0470;
876.3000;0.2849;-0.0421;
876.6000;0.2833;-0.0446;
876.9000;0.2849;-0.0322;
877.2000;0.2816;-0.0396;
877.5000;0.2906;-0.0198;
877.8000;0.2873;-0.0371;
878.1000;0.2849;-0.0371;
878.4000;0.2865;-0.0371;
878.7000;0.2833;-0.0495;
879.0000;0.2906;-0.0421;
879.3000;0.2857;-0.0470;
879.6000;0.2857;-0.0495;
879.9000;0.2841;-0.0421;
880.2000;0.2849;-0.0322;
880.5000;0.2865;-0.0322;
880.8000;0.2857;-0.0371;
881.1000;0.2849;-0.0396;
881.4000;0.2857;-0.0371;
881.7000;0.2841;-0.0446;
882.0000;0.2898;-0.0322;
882.3000;0.2849;-0.0421;
882.6000;0.2849;-0.0446;
882.9000;0.2849;-0.0470;
883.2000;0.2849;-0.0495;
883.5000;0.2833;-0.0594;
883.8000;0.2833;-0.0520;
884.1000;0.2849;-0.0421;
884.4000;0.2857;-0.0396;
884.7000;0.2833;-0.0470;
885.0000;0.2841;-0.0470;
885.3000;0.2849;-0.0470;
885.6000;0.2882;-0.0396;
885.9000;0.2841;-0.0495;
886.2000;0.2841;-0.0470;
886.5000;0.2849;-0.0446;
886.8000;0.2751;-0.0669;
887.1000;0.2849;-0.0396;
887.4000;0.2857;-0.0371;
887.7000;0.2849;-0.0421;
888.0000;0.2833;-0.0470;
888.3000;0.2833;-0.0470;
888.6000;0.2849;-0.0520;
888.9000;0.2865;-0.0396;
889.2000;0.2841;-0.0371;
889.5000;0.2857;-0.0248;
889.8000;0.2841;-0.0322;
890.1000;0.2784;-0.0545;
890.4000;0.2857;-0.0297;
890.7000;0.2857;-0.0297;
891.0000;0.2882;-0.0248;
891.3000;0.2841;-0.0322;
891.6000;0.2841;-0.0223;
891.9000;0.2833;-0.0198;
892.2000;0.2849;-0.0272;
892.5000;0.2833;-0.0297;
892.8000;0.2849;-0.0297;
893.1000;0.2825;-0.0396;
893.4000;0.2849;-0.0446;
893.7000;0.2833;-0.0495;
894.0000;0.2841;-0.0446;
894.3000;0.2857;-0.0421;
894.6000;0.2849;-0.0446;
894.9000;0.2833;-0.0545;
895.2000;0.2849;-0.0545;
895.5000;0.2825;-0.0495;
895.8000;0.2865;-0.0396;
896.1000;0.2849;-0.0470;
896.4000;0.2865;-0.0396;
896.7000;0.2849;-0.0520;
897.0000;0.2865;-0.0570;
897.3000;0.2841;-0.0644;
897.6000;0.2865;-0.0570;
897.9000;0.2841;-0.0545;
898.2000;0.2841;-0.0520;
898.5000;0.2857;-0.0495;
898.8000;0.2865;-0.0446;
899.1000;0.2825;-0.0594;
899.4000;0.2825;-0.0545;
899.7000;0.2792;-0.0644;
900.0000;0.2841;-0.0520;
900.3000;0.2759;-0.0718;
900.6000;0.2841;-0.0495;
900.9000;0.2849;-0.0446;
901.2000;0.2849;-0.0495;
901.5000;0.2849;-0.0446;
901.8000;0.2833;-0.0570;
902.1000;0.2833;-0.0619;
902.4000;0.2857;-0.0594;
902.7000;0.2841;-0.0520;
903.0000;0.2833;-0.0520;
903.3000;0.2857;-0.0446;
903.6000;0.2849;-0.0545;
903.9000;0.2857;-0.0495;
904.2000;0.2833;-0.0495;
904.5000;0.2857;-0.0495;
904.8000;0.2857;-0.0545;
905.1000;0.2841;-0.0619;
905.4000;0.2841;-0.0594;
905.7000;0.2865;-0.0619;
906.0000;0.2873;-0.0594;
906.3000;0.2841;-0.0718;
906.6000;0.2898;-0.0545;
906.9000;0.2833;-0.0644;
907.2000;0.2849;-0.0644;
907.5000;0.2849;-0.0570;
907.8000;0.2833;-0.0545;
908.1000;0.2857;-0.0570;
908.4000;0.2849;-0.0619;
908.7000;0.2849;-0.0644;
909.0000;0.2873;-0.0570;
909.3000;0.2825;-0.0545;
909.6000;0.2849;-0.0545;
909.9000;0.2930;-0.0322;
910.2000;0.2833;-0.0520;
910.5000;0.2825;-0.0545;
910.8000;0.2816;-0.0520;
911.1000;0.2825;-0.0495;
911.4000;0.2833;-0.0421;
911.7000;0.2833;-0.0297;
912.0000;0.2808;-0.0421;
912.3000;0.2816;-0.0520;
912.6000;0.2833;-0.0421;
912.9000;0.2833;-0.0371;
913.2000;0.2833;-0.0396;
913.5000;0.2833;-0.0470;
913.8000;0.2841;-0.0470;
914.1000;0.2849;-0.0421;
914.4000;0.2841;-0.0421;
914.7000;0.2833;-0.0446;
915.0000;0.2825;-0.0495;
915.3000;0.2833;-0.0545;
915.6000;0.2833;-0.0570;
915.9000;0.2833;-0.0545;
916.2000;0.2808;-0.0594;
916.5000;0.2841;-0.0470;
916.8000;0.2841;-0.0495;
917.1000;0.2857;-0.0495;
917.4000;0.2816;-0.0669;
917.7000;0.2841;-0.0743;
918.0000;0.2865;-0.0718;
918.3000;0.2865;-0.0693;
918.6000;0.2841;-0.0718;
918.9000;0.2841;-0.0669;
919.2000;0.2833;-0.0570;
919.5000;0.2841;-0.0495;
919.8000;0.2841;-0.0520;
920.1000;0.2857;-0.0470;
920.4000;0.2816;-0.0594;
920.7000;0.2825;-0.0570;
921.0000;0.2841;-0.0495;
921.3000;0.2833;-0.0520;
921.6000;0.2849;-0.0371;
921.9000;0.2833;-0.0421;
922.2000;0.2849;-0.0347;
922.5000;0.2841;-0.0322;
922.8000;0.2833;-0.0297;
923.1000;0.2833;-0.0421;
923.4000;0.2825;-0.0470;
923.7000;0.2825;-0.0470;
924.0000;0.2857;-0.0297;
924.3000;0.2849;-0.0322;
924.6000;0.2816;-0.0421;
924.9000;0.2816;-0.0371;
925.2000;0.2914;-0.0099;
925.5000;0.2833;-0.0347;
925.8000;0.2890;-0.0297;
926.1000;0.2800;-0.0520;
926.4000;0.2841;-0.0495;
926.7000;0.2825;-0.0545;
927.0000;0.2833;-0.0495;
927.3000;0.2825;-0.0396;
927.6000;0.2849;-0.0396;
927.9000;0.2841;-0.0421;
928.2000;0.2857;-0.0371;
928.5000;0.2808;-0.0495;
928.8000;0.2833;-0.0421;
929.1000;0.2922;-0.0099;
929.4000;0.2841;-0.0322;
929.7000;0.2833;-0.0446;
930.0000;0.2873;-0.0347;
930.3000;0.2833;-0.0470;
930.6000;0.2849;-0.0371;
930.9000;0.2865;-0.0347;
931.2000;0.2776;-0.0570;
931.5000;0.2833;-0.0446;
931.8000;0.2873;-0.0272;
932.1000;0.2833;-0.0371;
932.4000;0.2873;-0.0272;
932.7000;0.2784;-0.0470;
933.0000;0.2890;-0.0173;
933.3000;0.2865;-0.0248;
933.6000;0.2816;-0.0297;
933.9000;0.2719;-0.0495;
934.2000;0.2816;-0.0124;
934.5000;0.2841;-0.0074;
934.8000;0.2841;-0.0124;
935.1000;0.2816;-0.0173;
935.4000;0.2841;-0.0198;
935.7000;0.2841;-0.0223;
936.0000;0.2849;-0.0322;
936.3000;0.2857;-0.0396;
936.6000;0.2841;-0.0396;
936.9000;0.2833;-0.0322;
937.2000;0.2825;-0.0297;
937.5000;0.2833;-0.0371;
937.8000;0.2865;-0.0421;
938.1000;0.2784;-0.0545;
938.4000;0.2825;-0.0421;
938.7000;0.2800;-0.0470;
939.0000;0.2825;-0.0470;
939.3000;0.2833;-0.0520;
939.6000;0.2841;-0.0396;
939.9000;0.2833;-0.0371;
940.2000;0.2816;-0.0446;
940.5000;0.2841;-0.0371;
940.8000;0.2841;-0.0421;
941.1000;0.2841;-0.0371;
941.4000;0.2833;-0.0272;
941.7000;0.2833;-0.0248;
942.0000;0.2825;-0.0297;
942.3000;0.2808;-0.0347;
942.6000;0.2833;-0.0347;
942.9000;0.2816;-0.0347;
943.2000;0.2841;-0.0272;
943.5000;0.2882;-0.0223;
943.8000;0.2833;-0.0396;
944.1000;0.2833;-0.0421;
944.4000;0.2833;-0.0396;
944.7000;0.2833;-0.0396;
945.0000;0.2825;-0.0396;
945.3000;0.2825;-0.0421;
945.6000;0.2833;-0.0446;
945.9000;0.2857;-0.0347;
946.2000;0.2808;-0.0495;
946.5000;0.2833;-0.0396;
946.8000;0.2841;-0.0322;
947.1000;0.2841;-0.0322;
947.4000;0.2825;-0.0396;
947.7000;0.2833;-0.0371;
948.0000;0.2808;-0.0396;
948.3000;0.2816;-0.0347;
948.6000;0.2833;-0.0322;
948.9000;0.2816;-0.0322;
949.2000;0.2784;-0.0371;
949.5000;0.2833;-0.0297;
949.8000;0.2816;-0.0470;
950.1000;0.2825;-0.0446;
950.4000;0.2816;-0.0470;
950.7000;0.2816;-0.0545;
951.0000;0.2849;-0.0470;
951.3000;0.2825;-0.0495;
951.6000;0.2808;-0.0495;
951.9000;0.2833;-0.0495;
952.2000;0.2784;-0.0644;
952.5000;0.2865;-0.0446;
952.8000;0.2833;-0.0446;
953.1000;0.2833;-0.0421;
953.4000;0.2825;-0.0347;
953.7000;0.2825;-0.0297;
954.0000;0.2833;-0.0223;
954.3000;0.2808;-0.0322;
954.6000;0.2833;-0.0248;
954.9000;0.2841;-0.0272;
955.2000;0.2833;-0.0272;
955.5000;0.2865;-0.0248;
955.8000;0.2833;-0.0421;
956.1000;0.2825;-0.0446;
956.4000;0.2841;-0.0495;
956.7000;0.2833;-0.0495;
957.0000;0.2841;-0.0520;
957.3000;0.2833;-0.0570;
957.6000;0.2825;-0.0545;
957.9000;0.2833;-0.0421;
958.2000;0.2808;-0.0421;
958.5000;0.2833;-0.0396;
958.8000;0.2808;-0.0396;
959.1000;0.2865;-0.0272;
959.4000;0.2825;-0.0520;
959.7000;0.2825;-0.0545;
960.0000;0.2825;-0.0570;
960.3000;0.2825;-0.0644;
960.6000;0.2833;-0.0570;
960.9000;0.2841;-0.0520;
961.2000;0.2825;-0.0594;
961.5000;0.2816;-0.0644;
961.8000;0.2849;-0.0545;
962.1000;0.2849;-0.0470;
962.4000;0.2841;-0.0570;
962.7000;0.2841;-0.0520;
963.0000;0.2857;-0.0421;
963.3000;0.2849;-0.0421;
963.6000;0.2841;-0.0446;
963.9000;0.2841;-0.0396;
964.2000;0.2833;-0.0446;
964.5000;0.2816;-0.0570;
964.8000;0.2833;-0.0520;
965.1000;0.2849;-0.0421;
965.4000;0.2833;-0.0470;
965.7000;0.2825;-0.0470;
966.0000;0.2865;-0.0347;
966.3000;0.2816;-0.0470;
966.6000;0.2833;-0.0322;
966.9000;0.2841;-0.0322;
967.2000;0.2873;-0.0322;
967.5000;0.2841;-0.0421;
967.8000;0.2873;-0.0421;
968.1000;0.2849;-0.0446;
968.4000;0.2841;-0.0396;
968.7000;0.2816;-0.0396;
969.0000;0.2833;-0.0347;
969.3000;0.2816;-0.0347;
969.6000;0.2816;-0.0396;
969.9000;0.2825;-0.0371;
970.2000;0.2833;-0.0297;
970.5000;0.2873;-0.0099;
970.8000;0.2825;-0.0223;
971.1000;0.2841;-0.0248;
971.4000;0.2735;-0.0470;
971.7000;0.2816;-0.0322;
972.0000;0.2841;-0.0198;
972.3000;0.2833;-0.0223;
972.6000;0.2816;-0.0198;
972.9000;0.2857;-0.0223;
973.2000;0.2816;-0.0371;
973.5000;0.2849;-0.0347;
973.8000;0.2849;-0.0371;
974.1000;0.2808;-0.0421;
974.4000;0.2816;-0.0545;
974.7000;0.2833;-0.0495;
975.0000;0.2800;-0.0545;
975.3000;0.2833;-0.0495;
975.6000;0.2792;-0.0644;
975.9000;0.2841;-0.0446;
976.2000;0.2825;-0.0396;
976.5000;0.2890;-0.0198;
976.8000;0.2841;-0.0347;
977.1000;0.2841;-0.0421;
977.4000;0.2825;-0.0470;
977.7000;0.2841;-0.0470;
978.0000;0.2833;-0.0545;
978.3000;0.2841;-0.0470;
978.6000;0.2849;-0.0421;
978.9000;0.2841;-0.0347;
979.2000;0.2841;-0.0371;
979.5000;0.2865;-0.0223;
979.8000;0.2825;-0.0223;
980.1000;0.2816;-0.0248;
980.4000;0.2816;-0.0347;
980.7000;0.2800;-0.0421;
981.0000;0.2825;-0.0371;
981.3000;0.2825;-0.0322;
981.6000;0.2841;-0.0297;
981.9000;0.2808;-0.0421;
982.2000;0.2849;-0.0272;
982.5000;0.2816;-0.0322;
982.8000;0.2833;-0.0297;
983.1000;0.2808;-0.0322;
983.4000;0.2849;-0.0223;
983.7000;0.2816;-0.0173;
984.0000;0.2768;-0.0347;
984.3000;0.2816;-0.0223;
984.6000;0.2816;-0.0272;
984.9000;0.2808;-0.0223;
985.2000;0.2841;-0.0173;
985.5000;0.2833;-0.0124;
985.8000;0.2808;-0.0248;
986.1000;0.2825;-0.0223;
986.4000;0.2849;-0.0223;
986.7000;0.2792;-0.0347;
987.0000;0.2849;-0.0198;
987.3000;0.2841;-0.0223;
987.6000;0.2857;-0.0149;
987.9000;0.2833;-0.0173;
988.2000;0.2849;-0.0173;
988.5000;0.2841;-0.0149;
988.8000;0.2816;-0.0198;
989.1000;0.2849;-0.0149;
989.4000;0.2849;-0.0173;
989.7000;0.2849;-0.0149;
990.0000;0.2825;-0.0248;
990.3000;0.2816;-0.0322;
990.6000;0.2833;-0.0347;
990.9000;0.2816;-0.0396;
991.2000;0.2873;-0.0347;
991.5000;0.2873;-0.0396;
991.8000;0.2841;-0.0396;
992.1000;0.2865;-0.0297;
992.4000;0.2857;-0.0223;
992.7000;0.2849;-0.0173;
993.0000;0.2833;-0.0248;
993.3000;0.2857;-0.0124;
993.6000;0.2816;-0.0149;
993.9000;0.2816;-0.0223;
994.2000;0.2841;-0.0223;
994.5000;0.2825;-0.0248;
994.8000;0.2768;-0.0396;
995.1000;0.2719;-0.0446;
995.4000;0.2841;-0.0173;
995.7000;0.2882;0.0025;
996.0000;0.2816;-0.0149;
996.3000;0.2816;-0.0223;
996.6000;0.2833;-0.0297;
996.9000;0.2833;-0.0297;
997.2000;0.2776;-0.0446;
997.5000;0.2857;-0.0173;
997.8000;0.2808;-0.0272;
998.1000;0.2833;-0.0248;
998.4000;0.2816;-0.0272;
998.7000;0.2816;-0.0248;
999.0000;0.2825;-0.0198;
999.3000;0.2833;-0.0248;
999.6000;0.2825;-0.0297;
999.9000;0.2825;-0.0322;
1000.2000;0.2833;-0.0297;
1000.5000;0.2808;-0.0421;
1000.8000;0.2841;-0.0371;
1001.1000;0.2825;-0.0396;
1001.4000;0.2816;-0.0396;
1001.7000;0.2816;-0.0396;
1002.0000;0.2816;-0.0470;
1002.3000;0.2816;-0.0520;
1002.6000;0.2873;-0.0396;
1002.9000;0.2808;-0.0446;
1003.2000;0.2825;-0.0347;
1003.5000;0.2825;-0.0297;
1003.8000;0.2808;-0.0347;
1004.1000;0.2792;-0.0421;
1004.4000;0.2833;-0.0347;
1004.7000;0.2825;-0.0297;
1005.0000;0.2816;-0.0371;
1005.3000;0.2808;-0.0371;
1005.6000;0.2816;-0.0371;
1005.9000;0.2808;-0.0446;
1006.2000;0.2825;-0.0371;
1006.5000;0.2825;-0.0347;
1006.8000;0.2833;-0.0297;
1007.1000;0.2816;-0.0322;
1007.4000;0.2833;-0.0173;
1007.7000;0.2816;-0.0223;
1008.0000;0.2768;-0.0297;
1008.3000;0.2841;-0.0099;
1008.6000;0.2816;-0.0149;
1008.9000;0.2816;-0.0173;
1009.2000;0.2841;-0.0124;
1009.5000;0.2833;-0.0149;
1009.8000;0.2849;-0.0173;
1010.1000;0.2841;-0.0223;
1010.4000;0.2816;-0.0272;
1010.7000;0.2816;-0.0248;
1011.0000;0.2873;-0.0124;
1011.3000;0.2816;-0.0272;
1011.6000;0.2841;-0.0198;
1011.9000;0.2833;-0.0173;
1012.2000;0.2833;-0.0248;
1012.5000;0.2833;-0.0223;
1012.8000;0.2841;-0.0198;
1013.1000;0.2816;-0.0272;
1013.4000;0.2825;-0.0297;
1013.7000;0.2833;-0.0223;
1014.0000;0.2808;-0.0272;
1014.3000;0.2857;-0.0124;
1014.6000;0.2808;-0.0124;
1014.9000;0.2833;-0.0173;
1015.2000;0.2808;-0.0272;
1015.5000;0.2825;-0.0248;
1015.8000;0.2825;-0.0272;
1016.1000;0.2816;-0.0347;
1016.4000;0.2890;-0.0223;
1016.7000;0.2825;-0.0421;
1017.0000;0.2816;-0.0421;
1017.3000;0.2833;-0.0421;
1017.6000;0.2833;-0.0520;
1017.9000;0.2816;-0.0545;
1018.2000;0.2800;-0.0520;
1018.5000;0.2882;-0.0297;
1018.8000;0.2857;-0.0371;
1019.1000;0.2825;-0.0396;
1019.4000;0.2808;-0.0371;
1019.7000;0.2841;-0.0248;
1020.0000;0.2873;-0.0149;
1020.3000;0.2808;-0.0322;
1020.6000;0.2825;-0.0297;
1020.9000;0.2808;-0.0198;
1021.2000;0.2816;-0.0124;
1021.5000;0.2800;-0.0248;
1021.8000;0.2800;-0.0347;
1022.1000;0.2833;-0.0421;
1022.4000;0.2792;-0.0545;
1022.7000;0.2833;-0.0446;
1023.0000;0.2841;-0.0371;
1023.3000;0.2841;-0.0446;
1023.6000;0.2906;-0.0248;
1023.9000;0.2816;-0.0470;
1024.2000;0.2816;-0.0470;
1024.5000;0.2816;-0.0545;
1024.8000;0.2800;-0.0619;
1025.1000;0.2825;-0.0495;
1025.4000;0.2825;-0.0520;
1025.7000;0.2808;-0.0446;
1026.0000;0.2800;-0.0421;
1026.3000;0.2816;-0.0396;
1026.6000;0.2816;-0.0347;
1026.9000;0.2833;-0.0322;
1027.2000;0.2825;-0.0396;
1027.5000;0.2833;-0.0297;
1027.8000;0.2833;-0.0347;
1028.1000;0.2849;-0.0272;
1028.4000;0.2825;-0.0347;
1028.7000;0.2816;-0.0322;
1029.0000;0.2816;-0.0421;
1029.3000;0.2816;-0.0421;
1029.6000;0.2816;-0.0371;
1029.9000;0.2808;-0.0396;
1030.2000;0.2849;-0.0272;
1030.5000;0.2816;-0.0446;
1030.8000;0.2825;-0.0371;
1031.1000;0.2808;-0.0371;
1031.4000;0.2841;-0.0297;
1031.7000;0.2825;-0.0371;
1032.0000;0.2825;-0.0421;
1032.3000;0.2825;-0.0495;
1032.6000;0.2841;-0.0545;
1032.9000;0.2816;-0.0520;
1033.2000;0.2808;-0.0446;
1033.5000;0.2800;-0.0446;
1033.8000;0.2816;-0.0446;
1034.1000;0.2825;-0.0272;
1034.4000;0.2825;-0.0322;
1034.7000;0.2808;-0.0322;
1035.0000;0.2825;-0.0272;
1035.3000;0.2825;-0.0347;
1035.6000;0.2808;-0.0446;
1035.9000;0.2816;-0.0421;
1036.2000;0.2816;-0.0347;
1036.5000;0.2816;-0.0248;
1036.8000;0.2841;-0.0149;
1037.1000;0.2816;-0.0198;
1037.4000;0.2784;-0.0272;
1037.7000;0.2825;-0.0124;
1038.0000;0.2816;-0.0173;
1038.3000;0.2833;-0.0149;
1038.6000;0.2833;-0.0124;
1038.9000;0.2816;-0.0198;
1039.2000;0.2825;-0.0173;
1039.5000;0.2816;-0.0272;
1039.8000;0.2808;-0.0248;
1040.1000;0.2800;-0.0223;
1040.4000;0.2825;-0.0099;
1040.7000;0.2882;0.0074;
1041.0000;0.2816;-0.0149;
1041.3000;0.2792;-0.0198;
1041.6000;0.2816;-0.0223;
1041.9000;0.2825;-0.0149;
1042.2000;0.2816;-0.0223;
1042.5000;0.2808;-0.0248;
1042.8000;0.2816;-0.0223;
1043.1000;0.2825;-0.0322;
1043.4000;0.2825;-0.0371;
1043.7000;0.2816;-0.0347;
1044.0000;0.2825;-0.0421;
1044.3000;0.2816;-0.0297;
1044.6000;0.2825;-0.0248;
1044.9000;0.2751;-0.0297;
1045.2000;0.2906;0.0099;
1045.5000;0.2816;-0.0099;
1045.8000;0.2808;-0.0149;
1046.1000;0.2816;-0.0248;
1046.4000;0.2857;-0.0173;
1046.7000;0.2808;-0.0322;
1047.0000;0.2808;-0.0297;
1047.3000;0.2808;-0.0223;
1047.6000;0.2808;-0.0223;
1047.9000;0.2816;-0.0198;
1048.2000;0.2825;-0.0223;
1048.5000;0.2825;-0.0223;
1048.8000;0.2833;-0.0198;
1049.1000;0.2833;-0.0124;
1049.4000;0.2792;-0.0173;
1049.7000;0.2825;-0.0074;
1050.0000;0.2825;-0.0050;
1050.3000;0.2808;-0.0099;
1050.6000;0.2816;-0.0223;
1050.9000;0.2857;0.0000;
1051.2000;0.2833;-0.0173;
1051.5000;0.2808;-0.0248;
1051.8000;0.2816;-0.0347;
1052.1000;0.2833;-0.0297;
1052.4000;0.2865;-0.0198;
1052.7000;0.2808;-0.0297;
1053.0000;0.2825;-0.0297;
1053.3000;0.2825;-0.0272;
1053.6000;0.2808;-0.0297;
1053.9000;0.2825;-0.0149;
1054.2000;0.2800;-0.0297;
1054.5000;0.2816;-0.0149;
1054.8000;0.2816;0.0000;
1055.1000;0.2768;-0.0198;
1055.4000;0.2735;-0.0347;
1055.7000;0.2825;-0.0124;
1056.0000;0.2833;-0.0173;
1056.3000;0.2808;-0.0248;
1056.6000;0.2816;-0.0272;
1056.9000;0.2808;-0.0272;
1057.2000;0.2800;-0.0322;
1057.5000;0.2816;-0.0297;
1057.8000;0.2808;-0.0322;
1058.1000;0.2816;-0.0322;
1058.4000;0.2800;-0.0272;
1058.7000;0.2808;-0.0223;
1059.0000;0.2833;-0.0198;
1059.3000;0.2816;-0.0198;
1059.6000;0.2849;-0.0198;
1059.9000;0.2808;-0.0272;
1060.2000;0.2841;-0.0223;
1060.5000;0.2800;-0.0248;
1060.8000;0.2816;-0.0149;
1061.1000;0.2800;-0.0124;
1061.4000;0.2841;-0.0074;
1061.7000;0.2816;-0.0149;
1062.0000;0.2808;-0.0198;
1062.3000;0.2849;-0.0099;
1062.6000;0.2841;-0.0198;
1062.9000;0.2825;-0.0173;
1063.2000;0.2849;-0.0124;
1063.5000;0.2833;-0.0198;
1063.8000;0.2816;-0.0198;
1064.1000;0.2825;-0.0272;
1064.4000;0.2841;-0.0223;
1064.7000;0.2808;-0.0297;
1065.0000;0.2833;-0.0223;
1065.3000;0.2816;-0.0223;
1065.6000;0.2808;-0.0248;
1065.9000;0.2841;-0.0198;
1066.2000;0.2825;-0.0272;
1066.5000;0.2865;-0.0099;
1066.8000;0.2833;-0.0198;
1067.1000;0.2808;-0.0149;
1067.4000;0.2800;-0.0099;
1067.7000;0.2833;0.0000;
1068.0000;0.2800;-0.0074;
1068.3000;0.2808;-0.0074;
1068.6000;0.2825;-0.0074;
1068.9000;0.2808;-0.0025;
1069.2000;0.2792;-0.0198;
1069.5000;0.2825;-0.0198;
1069.8000;0.2792;-0.0347;
1070.1000;0.2816;-0.0297;
1070.4000;0.2857;-0.0198;
1070.7000;0.2808;-0.0347;
1071.0000;0.2825;-0.0421;
1071.3000;0.2825;-0.0371;
1071.6000;0.2751;-0.0446;
1071.9000;0.2841;-0.0173;
1072.2000;0.2825;-0.0198;
1072.5000;0.2816;-0.0173;
1072.8000;0.2833;-0.0198;
1073.1000;0.2816;-0.0223;
1073.4000;0.2825;-0.0272;
1073.7000;0.2825;-0.0297;
1074.0000;0.2833;-0.0248;
1074.3000;0.2808;-0.0396;
1074.6000;0.2825;-0.0347;
1074.9000;0.2816;-0.0421;
1075.2000;0.2833;-0.0371;
1075.5000;0.2816;-0.0446;
1075.8000;0.2816;-0.0371;
1076.1000;0.2816;-0.0446;
1076.4000;0.2833;-0.0396;
1076.7000;0.2849;-0.0396;
1077.0000;0.2841;-0.0396;
1077.3000;0.2825;-0.0446;
1077.6000;0.2792;-0.0470;
1077.9000;0.2825;-0.0322;
1078.2000;0.2841;-0.0223;
1078.5000;0.2800;-0.0347;
1078.8000;0.2784;-0.0396;
1079.1000;0.2751;-0.0470;
1079.4000;0.2759;-0.0421;
1079.7000;0.2800;-0.0396;
1080.0000;0.2808;-0.0446;
1080.3000;0.2808;-0.0396;
1080.6000;0.2776;-0.0446;
1080.9000;0.2816;-0.0421;
1081.2000;0.2816;-0.0470;
1081.5000;0.2825;-0.0446;
1081.8000;0.2825;-0.0446;
1082.1000;0.2800;-0.0495;
1082.4000;0.2808;-0.0495;
1082.7000;0.2800;-0.0470;
1083.0000;0.2800;-0.0421;
1083.3000;0.2825;-0.0297;
1083.6000;0.2800;-0.0371;
1083.9000;0.2808;-0.0347;
1084.2000;0.2816;-0.0223;
1084.5000;0.2784;-0.0322;
1084.8000;0.2808;-0.0272;
1085.1000;0.2816;-0.0272;
1085.4000;0.2825;-0.0297;
1085.7000;0.2816;-0.0248;
1086.0000;0.2857;-0.0223;
1086.3000;0.2882;-0.0099;
1086.6000;0.2792;-0.0446;
1086.9000;0.2833;-0.0396;
1087.2000;0.2841;-0.0371;
1087.5000;0.2784;-0.0470;
1087.8000;0.2816;-0.0421;
1088.1000;0.2882;-0.0173;
1088.4000;0.2865;-0.0124;
1088.7000;0.2808;-0.0297;
1089.0000;0.2816;-0.0371;
1089.3000;0.2776;-0.0446;
1089.6000;0.2808;-0.0322;
1089.9000;0.2792;-0.0347;
1090.2000;0.2808;-0.0248;
1090.5000;0.2808;-0.0297;
1090.8000;0.2800;-0.0297;
1091.1000;0.2816;-0.0198;
1091.4000;0.2792;-0.0297;
1091.7000;0.2800;-0.0322;
1092.0000;0.2808;-0.0248;
1092.3000;0.2792;-0.0272;
1092.6000;0.2784;-0.0272;
1092.9000;0.2816;-0.0272;
1093.2000;0.2808;-0.0297;
1093.5000;0.2816;-0.0396;
1093.8000;0.2833;-0.0421;
1094.1000;0.2808;-0.0446;
1094.4000;0.2825;-0.0446;
1094.7000;0.2833;-0.0396;
1095.0000;0.2833;-0.0446;
1095.3000;0.2792;-0.0594;
1095.6000;0.2849;-0.0446;
1095.9000;0.2816;-0.0520;
1096.2000;0.2825;-0.0520;
1096.5000;0.2816;-0.0495;
1096.8000;0.2816;-0.0446;
1097.1000;0.2800;-0.0520;
1097.4000;0.2841;-0.0371;
1097.7000;0.2808;-0.0495;
1098.0000;0.2841;-0.0495;
1098.3000;0.2825;-0.0520;
1098.6000;0.2792;-0.0570;
1098.9000;0.2841;-0.0421;
1099.2000;0.2825;-0.0371;
1099.5000;0.2825;-0.0421;
1099.8000;0.2825;-0.0396;
1100.1000;0.2841;-0.0421;
1100.4000;0.2808;-0.0570;
1100.7000;0.2808;-0.0594;
1101.0000;0.2816;-0.0495;
1101.3000;0.2833;-0.0446;
1101.6000;0.2825;-0.0495;
1101.9000;0.2808;-0.0470;
1102.2000;0.2825;-0.0520;
1102.5000;0.2800;-0.0495;
1102.8000;0.2816;-0.0495;
1103.1000;0.2808;-0.0470;
1103.4000;0.2759;-0.0669;
1103.7000;0.2800;-0.0594;
1104.0000;0.2816;-0.0693;
1104.3000;0.2808;-0.0619;
1104.6000;0.2816;-0.0520;
1104.9000;0.2825;-0.0347;
1105.2000;0.2808;-0.0322;
1105.5000;0.2816;-0.0297;
1105.8000;0.2825;-0.0322;
1106.1000;0.2808;-0.0421;
1106.4000;0.2825;-0.0396;
1106.7000;0.2816;-0.0347;
1107.0000;0.2808;-0.0272;
1107.3000;0.2808;-0.0149;
1107.6000;0.2816;-0.0124;
1107.9000;0.2825;-0.0074;
1108.2000;0.2825;-0.0173;
1108.5000;0.2792;-0.0297;
1108.8000;0.2849;-0.0173;
1109.1000;0.2841;-0.0149;
1109.4000;0.2833;-0.0099;
1109.7000;0.2825;-0.0248;
1110.0000;0.2833;-0.0223;
1110.3000;0.2849;-0.0173;
1110.6000;0.2825;-0.0297;
1110.9000;0.2825;-0.0297;
1111.2000;0.2816;-0.0322;
1111.5000;0.2816;-0.0248;
1111.8000;0.2800;-0.0173;
1112.1000;0.2825;-0.0124;
1112.4000;0.2792;-0.0248;
1112.7000;0.2833;-0.0223;
1113.0000;0.2816;-0.0173;
1113.3000;0.2816;-0.0198;
1113.6000;0.2825;-0.0173;
1113.9000;0.2816;-0.0248;
1114.2000;0.2808;-0.0297;
1114.5000;0.2833;-0.0223;
1114.8000;0.2808;-0.0272;
1115.1000;0.2808;-0.0248;
1115.4000;0.2800;-0.0322;
1115.7000;0.2800;-0.0371;
1116.0000;0.2816;-0.0347;
1116.3000;0.2816;-0.0396;
1116.6000;0.2808;-0.0446;
1116.9000;0.2800;-0.0396;
1117.2000;0.2808;-0.0347;
1117.5000;0.2808;-0.0371;
1117.8000;0.2792;-0.0396;
1118.1000;0.2825;-0.0297;
1118.4000;0.2808;-0.0248;
1118.7000;0.2816;-0.0272;
1119.0000;0.2784;-0.0297;
1119.3000;0.2808;-0.0248;
1119.6000;0.2865;-0.0025;
1119.9000;0.2792;-0.0198;
1120.2000;0.2825;-0.0223;
1120.5000;0.2816;-0.0198;
1120.8000;0.2808;-0.0223;
1121.1000;0.2816;-0.0223;
1121.4000;0.2768;-0.0297;
1121.7000;0.2808;-0.0173;
1122.0000;0.2816;-0.0173;
1122.3000;0.2816;-0.0322;
1122.6000;0.2849;-0.0272;
1122.9000;0.2800;-0.0272;
1123.2000;0.2833;-0.0099;
1123.5000;0.2816;-0.0124;
1123.8000;0.2800;-0.0272;
1124.1000;0.2784;-0.0272;
1124.4000;0.2841;-0.0149;
1124.7000;0.2825;-0.0198;
1125.0000;0.2816;-0.0198;
1125.3000;0.2808;-0.0173;
1125.6000;0.2833;-0.0099;
1125.9000;0.2825;-0.0099;
1126.2000;0.2825;-0.0050;
1126.5000;0.2825;-0.0074;
1126.8000;0.2800;-0.0124;
1127.1000;0.2792;-0.0149;
1127.4000;0.2808;-0.0099;
1127.7000;0.2808;-0.0099;
1128.0000;0.2800;-0.0025;
1128.3000;0.2825;0.0025;
1128.6000;0.2816;-0.0074;
1128.9000;0.2784;-0.0223;
1129.2000;0.2784;-0.0223;
1129.5000;0.2792;-0.0198;
1129.8000;0.2825;-0.0149;
1130.1000;0.2808;-0.0198;
1130.4000;0.2808;-0.0248;
1130.7000;0.2816;-0.0173;
1131.0000;0.2825;-0.0149;
1131.3000;0.2792;-0.0248;
1131.6000;0.2808;-0.0223;
1131.9000;0.2808;-0.0173;
1132.2000;0.2825;-0.0074;
1132.5000;0.2816;-0.0149;
1132.8000;0.2808;-0.0099;
1133.1000;0.2816;-0.0074;
1133.4000;0.2816;-0.0198;
1133.7000;0.2800;-0.0347;
1134.0000;0.2816;-0.0396;
1134.3000;0.2808;-0.0421;
1134.6000;0.2776;-0.0446;
1134.9000;0.2792;-0.0396;
1135.2000;0.2808;-0.0396;
1135.5000;0.2808;-0.0396;
1135.8000;0.2800;-0.0396;
1136.1000;0.2816;-0.0322;
1136.4000;0.2816;-0.0272;
1136.7000;0.2816;-0.0272;
1137.0000;0.2833;-0.0099;
1137.3000;0.2808;-0.0173;
1137.6000;0.2882;0.0074;
1137.9000;0.2800;-0.0173;
1138.2000;0.2800;-0.0124;
1138.5000;0.2808;-0.0025;
1138.8000;0.2841;-0.0050;
1139.1000;0.2792;-0.0149;
1139.4000;0.2800;-0.0173;
1139.7000;0.2808;-0.0124;
1140.0000;0.2808;-0.0272;
1140.3000;0.2816;-0.0198;
1140.6000;0.2800;-0.0248;
1140.9000;0.2735;-0.0470;
1141.2000;0.2816;-0.0248;
1141.5000;0.2816;-0.0248;
1141.8000;0.2833;-0.0248;
1142.1000;0.2808;-0.0248;
1142.4000;0.2833;-0.0149;
1142.7000;0.2825;-0.0149;
1143.0000;0.2833;-0.0173;
1143.3000;0.2825;-0.0248;
1143.6000;0.2784;-0.0322;
1143.9000;0.2808;-0.0272;
1144.2000;0.2825;-0.0272;
1144.5000;0.2768;-0.0470;
1144.8000;0.2800;-0.0347;
1145.1000;0.2816;-0.0223;
1145.4000;0.2857;-0.0074;
1145.7000;0.2825;-0.0149;
1146.0000;0.2808;-0.0272;
1146.3000;0.2825;-0.0124;
1146.6000;0.2825;-0.0074;
1146.9000;0.2808;-0.0149;
1147.2000;0.2825;-0.0074;
1147.5000;0.2808;-0.0099;
1147.8000;0.2808;-0.0074;
1148.1000;0.2808;-0.0025;
1148.4000;0.2816;0.0025;
1148.7000;0.2768;-0.0124;
1149.0000;0.2808;-0.0025;
1149.3000;0.2792;-0.0074;
1149.6000;0.2825;-0.0050;
1149.9000;0.2808;-0.0124;
1150.2000;0.2800;-0.0124;
1150.5000;0.2800;-0.0149;
1150.8000;0.2825;-0.0173;
1151.1000;0.2808;-0.0198;
1151.4000;0.2816;-0.0149;
1151.7000;0.2816;-0.0124;
1152.0000;0.2816;-0.0173;
1152.3000;0.2792;-0.0248;
1152.6000;0.2800;-0.0248;
1152.9000;0.2800;-0.0198;
1153.2000;0.2735;-0.0371;
1153.5000;0.2800;-0.0198;
1153.8000;0.2800;-0.0198;
1154.1000;0.2816;-0.0050;
1154.4000;0.2808;-0.0074;
1154.7000;0.2784;-0.0124;
1155.0000;0.2816;-0.0099;
1155.3000;0.2768;-0.0223;
1155.6000;0.2784;-0.0223;
1155.9000;0.2808;-0.0124;
1156.2000;0.2808;-0.0173;
1156.5000;0.2857;0.0025;
1156.8000;0.2816;-0.0149;
1157.1000;0.2816;-0.0173;
1157.4000;0.2800;-0.0223;
1157.7000;0.2808;-0.0248;
1158.0000;0.2841;-0.0124;
1158.3000;0.2825;-0.0074;
1158.6000;0.2808;-0.0149;
1158.9000;0.2800;-0.0198;
1159.2000;0.2808;-0.0173;
1159.5000;0.2816;-0.0173;
1159.8000;0.2865;-0.0149;
1160.1000;0.2882;-0.0173;
1160.4000;0.2808;-0.0371;
1160.7000;0.2825;-0.0371;
1161.0000;0.2816;-0.0322;
1161.3000;0.2825;-0.0272;
1161.6000;0.2825;-0.0149;
1161.9000;0.2816;-0.0248;
1162.2000;0.2808;-0.0297;
1162.5000;0.2800;-0.0149;
1162.8000;0.2800;-0.0124;
1163.1000;0.2800;-0.0099;
1163.4000;0.2882;0.0099;
1163.7000;0.2833;-0.0050;
1164.0000;0.2800;-0.0124;
1164.3000;0.2825;-0.0074;
1164.6000;0.2800;-0.0198;
1164.9000;0.2825;-0.0223;
1165.2000;0.2808;-0.0297;
1165.5000;0.2808;-0.0322;
1165.8000;0.2808;-0.0347;
1166.1000;0.2816;-0.0446;
1166.4000;0.2825;-0.0371;
1166.7000;0.2816;-0.0421;
1167.0000;0.2808;-0.0495;
1167.3000;0.2808;-0.0446;
1167.6000;0.2808;-0.0421;
1167.9000;0.2800;-0.0421;
1168.2000;0.2825;-0.0470;
1168.5000;0.2825;-0.0446;
1168.8000;0.2825;-0.0421;
1169.1000;0.2825;-0.0446;
1169.4000;0.2784;-0.0619;
1169.7000;0.2816;-0.0470;
1170.0000;0.2816;-0.0570;
1170.3000;0.2816;-0.0594;
1170.6000;0.2833;-0.0520;
1170.9000;0.2825;-0.0446;
1171.2000;0.2906;-0.0248;
1171.5000;0.2825;-0.0446;
1171.8000;0.2825;-0.0470;
1172.1000;0.2816;-0.0470;
1172.4000;0.2816;-0.0421;
1172.7000;0.2857;-0.0248;
1173.0000;0.2808;-0.0322;
1173.3000;0.2800;-0.0371;
1173.6000;0.2825;-0.0322;
1173.9000;0.2825;-0.0347;
1174.2000;0.2792;-0.0396;
1174.5000;0.2792;-0.0347;
1174.8000;0.2816;-0.0297;
1175.1000;0.2825;-0.0198;
1175.4000;0.2816;-0.0173;
1175.7000;0.2816;-0.0149;
1176.0000;0.2808;-0.0198;
1176.3000;0.2841;-0.0149;
1176.6000;0.2816;-0.0272;
1176.9000;0.2800;-0.0371;
1177.2000;0.2768;-0.0396;
1177.5000;0.2825;-0.0371;
1177.8000;0.2808;-0.0421;
1178.1000;0.2800;-0.0371;
1178.4000;0.2825;-0.0347;
1178.7000;0.2808;-0.0396;
1179.0000;0.2825;-0.0421;
1179.3000;0.2792;-0.0470;
1179.6000;0.2808;-0.0470;
1179.9000;0.2776;-0.0470;
1180.2000;0.2784;-0.0470;
1180.5000;0.2816;-0.0297;
1180.8000;0.2808;-0.0297;
1181.1000;0.2825;-0.0322;
1181.4000;0.2825;-0.0322;
1181.7000;0.2833;-0.0347;
1182.0000;0.2808;-0.0297;
1182.3000;0.2776;-0.0421;
1182.6000;0.2833;-0.0322;
1182.9000;0.2808;-0.0421;
1183.2000;0.2808;-0.0421;
1183.5000;0.2865;-0.0297;
1183.8000;0.2751;-0.0520;
1184.1000;0.2816;-0.0371;
1184.4000;0.2816;-0.0396;
1184.7000;0.2825;-0.0446;
1185.0000;0.2808;-0.0371;
1185.3000;0.2792;-0.0396;
1185.6000;0.2808;-0.0371;
1185.9000;0.2800;-0.0421;
1186.2000;0.2825;-0.0396;
1186.5000;0.2825;-0.0396;
1186.8000;0.2800;-0.0446;
1187.1000;0.2800;-0.0446;
1187.4000;0.2792;-0.0396;
1187.7000;0.2792;-0.0421;
1188.0000;0.2808;-0.0421;
1188.3000;0.2816;-0.0446;
1188.6000;0.2784;-0.0570;
1188.9000;0.2784;-0.0495;
1189.2000;0.2800;-0.0470;
1189.5000;0.2800;-0.0520;
1189.8000;0.2808;-0.0594;
1190.1000;0.2808;-0.0594;
1190.4000;0.2816;-0.0594;
1190.7000;0.2800;-0.0718;
1191.0000;0.2816;-0.0718;
1191.3000;0.2825;-0.0669;
1191.6000;0.2833;-0.0594;
1191.9000;0.2833;-0.0545;
1192.2000;0.2816;-0.0693;
1192.5000;0.2800;-0.0718;
1192.8000;0.2833;-0.0669;
1193.1000;0.2800;-0.0693;
1193.4000;0.2808;-0.0594;
1193.7000;0.2808;-0.0495;
1194.0000;0.2784;-0.0545;
1194.3000;0.2825;-0.0520;
1194.6000;0.2825;-0.0644;
1194.9000;0.2808;-0.0693;
1195.2000;0.2816;-0.0644;
1195.5000;0.2808;-0.0594;
1195.8000;0.2816;-0.0594;
1196.1000;0.2751;-0.0842;
1196.4000;0.2800;-0.0545;
1196.7000;0.2800;-0.0520;
1197.0000;0.2841;-0.0446;
1197.3000;0.2816;-0.0520;
1197.6000;0.2825;-0.0570;
1197.9000;0.2816;-0.0570;
1198.2000;0.2792;-0.0520;
1198.5000;0.2808;-0.0520;
1198.8000;0.2816;-0.0520;
1199.1000;0.2898;-0.0248;
1199.4000;0.2800;-0.0470;
1199.7000;0.2825;-0.0396;
1200.0000;0.2800;-0.0421;
1200.3000;0.2816;-0.0470;
1200.6000;0.2816;-0.0520;
1200.9000;0.2808;-0.0545;
1201.2000;0.2743;-0.0644;
1201.5000;0.2792;-0.0421;
1201.8000;0.2800;-0.0470;
1202.1000;0.2792;-0.0495;
1202.4000;0.2816;-0.0570;
1202.7000;0.2816;-0.0594;
1203.0000;0.2808;-0.0570;
1203.3000;0.2784;-0.0520;
1203.6000;0.2825;-0.0347;
1203.9000;0.2841;-0.0297;
1204.2000;0.2816;-0.0322;
1204.5000;0.2816;-0.0470;
1204.8000;0.2825;-0.0520;
1205.1000;0.2825;-0.0520;
1205.4000;0.2800;-0.0644;
1205.7000;0.2808;-0.0619;
1206.0000;0.2792;-0.0594;
1206.3000;0.2784;-0.0669;
1206.6000;0.2816;-0.0470;
1206.9000;0.2816;-0.0520;
1207.2000;0.2816;-0.0396;
1207.5000;0.2808;-0.0495;
1207.8000;0.2808;-0.0470;
1208.1000;0.2792;-0.0495;
1208.4000;0.2816;-0.0446;
1208.7000;0.2816;-0.0520;
1209.0000;0.2816;-0.0520;
1209.3000;0.2825;-0.0520;
1209.6000;0.2800;-0.0545;
1209.9000;0.2808;-0.0446;
1210.2000;0.2800;-0.0446;
1210.5000;0.2751;-0.0594;
1210.8000;0.2816;-0.0421;
1211.1000;0.2808;-0.0495;
1211.4000;0.2808;-0.0495;
1211.7000;0.2808;-0.0446;
1212.0000;0.2800;-0.0421;
1212.3000;0.2800;-0.0495;
1212.6000;0.2816;-0.0570;
1212.9000;0.2792;-0.0570;
1213.2000;0.2808;-0.0594;
1213.5000;0.2816;-0.0570;
1213.8000;0.2816;-0.0594;
1214.1000;0.2816;-0.0594;
1214.4000;0.2808;-0.0570;
1214.7000;0.2825;-0.0495;
1215.0000;0.2833;-0.0570;
1215.3000;0.2816;-0.0594;
1215.6000;0.2808;-0.0520;
1215.9000;0.2808;-0.0594;
1216.2000;0.2800;-0.0570;
1216.5000;0.2833;-0.0470;
1216.8000;0.2816;-0.0520;
1217.1000;0.2816;-0.0470;
1217.4000;0.2808;-0.0495;
1217.7000;0.2792;-0.0520;
1218.0000;0.2784;-0.0545;
1218.3000;0.2890;-0.0322;
1218.6000;0.2808;-0.0669;
1218.9000;0.2833;-0.0644;
1219.2000;0.2849;-0.0619;
1219.5000;0.2816;-0.0669;
1219.8000;0.2800;-0.0669;
1220.1000;0.2768;-0.0842;
1220.4000;0.2825;-0.0669;
1220.7000;0.2800;-0.0718;
1221.0000;0.2776;-0.0817;
1221.3000;0.2808;-0.0768;
1221.6000;0.2808;-0.0669;
1221.9000;0.2816;-0.0743;
1222.2000;0.2882;-0.0520;
1222.5000;0.2808;-0.0743;
1222.8000;0.2800;-0.0743;
1223.1000;0.2808;-0.0743;
1223.4000;0.2865;-0.0495;
1223.7000;0.2808;-0.0545;
1224.0000;0.2792;-0.0470;
1224.3000;0.2841;-0.0421;
1224.6000;0.2808;-0.0570;
1224.9000;0.2816;-0.0570;
1225.2000;0.2825;-0.0570;
1225.5000;0.2816;-0.0594;
1225.8000;0.2816;-0.0594;
1226.1000;0.2816;-0.0520;
1226.4000;0.2808;-0.0495;
1226.7000;0.2816;-0.0570;
1227.0000;0.2833;-0.0470;
1227.3000;0.2816;-0.0446;
1227.6000;0.2816;-0.0470;
1227.9000;0.2800;-0.0495;
1228.2000;0.2816;-0.0421;
1228.5000;0.2873;-0.0248;
1228.8000;0.2816;-0.0446;
1229.1000;0.2816;-0.0545;
1229.4000;0.2816;-0.0495;
1229.7000;0.2808;-0.0520;
1230.0000;0.2825;-0.0470;
1230.3000;0.2816;-0.0396;
1230.6000;0.2808;-0.0396;
1230.9000;0.2808;-0.0371;
1231.2000;0.2800;-0.0421;
1231.5000;0.2800;-0.0446;
1231.8000;0.2808;-0.0396;
1232.1000;0.2792;-0.0495;
1232.4000;0.2808;-0.0421;
1232.7000;0.2808;-0.0421;
1233.0000;0.2792;-0.0470;
1233.3000;0.2800;-0.0446;
1233.6000;0.2808;-0.0545;
1233.9000;0.2808;-0.0594;
1234.2000;0.2792;-0.0594;
1234.5000;0.2816;-0.0545;
1234.8000;0.2816;-0.0545;
1235.1000;0.2816;-0.0570;
1235.4000;0.2816;-0.0545;
1235.7000;0.2825;-0.0446;
1236.0000;0.2825;-0.0446;
1236.3000;0.2800;-0.0446;
1236.6000;0.2849;-0.0322;
1236.9000;0.2784;-0.0570;
1237.2000;0.2825;-0.0421;
1237.5000;0.2808;-0.0371;
1237.8000;0.2808;-0.0446;
1238.1000;0.2841;-0.0446;
1238.4000;0.2816;-0.0495;
1238.7000;0.2825;-0.0470;
1239.0000;0.2800;-0.0520;
1239.3000;0.2816;-0.0570;
1239.6000;0.2849;-0.0470;
1239.9000;0.2849;-0.0421;
1240.2000;0.2816;-0.0470;
1240.5000;0.2833;-0.0421;
1240.8000;0.2816;-0.0520;
1241.1000;0.2857;-0.0396;
1241.4000;0.2808;-0.0470;
1241.7000;0.2816;-0.0371;
1242.0000;0.2776;-0.0545;
1242.3000;0.2841;-0.0347;
1242.6000;0.2784;-0.0495;
1242.9000;0.2800;-0.0520;
1243.2000;0.2825;-0.0421;
1243.5000;0.2800;-0.0495;
1243.8000;0.2816;-0.0545;
1244.1000;0.2825;-0.0570;
1244.4000;0.2792;-0.0594;
1244.7000;0.2808;-0.0520;
1245.0000;0.2808;-0.0545;
1245.3000;0.2800;-0.0545;
1245.6000;0.2792;-0.0594;
1245.9000;0.2808;-0.0619;
1246.2000;0.2808;-0.0669;
1246.5000;0.2792;-0.0693;
1246.8000;0.2808;-0.0693;
1247.1000;0.2816;-0.0669;
1247.4000;0.2816;-0.0619;
1247.7000;0.2808;-0.0644;
1248.0000;0.2808;-0.0693;
1248.3000;0.2800;-0.0669;
1248.6000;0.2800;-0.0594;
1248.9000;0.2808;-0.0495;
1249.2000;0.2816;-0.0545;
1249.5000;0.2825;-0.0495;
1249.8000;0.2825;-0.0570;
1250.1000;0.2825;-0.0545;
1250.4000;0.2816;-0.0594;
1250.7000;0.2825;-0.0545;
1251.0000;0.2833;-0.0495;
1251.3000;0.2784;-0.0619;
1251.6000;0.2816;-0.0545;
1251.9000;0.2816;-0.0520;
1252.2000;0.2816;-0.0520;
1252.5000;0.2808;-0.0594;
1252.8000;0.2792;-0.0619;
1253.1000;0.2808;-0.0545;
1253.4000;0.2800;-0.0619;
1253.7000;0.2792;-0.0644;
1254.0000;0.2792;-0.0718;
1254.3000;0.2825;-0.0619;
1254.6000;0.2792;-0.0644;
1254.9000;0.2808;-0.0520;
1255.2000;0.2808;-0.0520;
1255.5000;0.2816;-0.0396;
1255.8000;0.2882;-0.0223;
1256.1000;0.2808;-0.0446;
1256.4000;0.2816;-0.0446;
1256.7000;0.2808;-0.0421;
1257.0000;0.2825;-0.0446;
1257.3000;0.2792;-0.0644;
1257.6000;0.2816;-0.0545;
1257.9000;0.2808;-0.0570;
1258.2000;0.2808;-0.0669;
1258.5000;0.2808;-0.0718;
1258.8000;0.2800;-0.0792;
1259.1000;0.2784;-0.0842;
1259.4000;0.2808;-0.0743;
1259.7000;0.2800;-0.0693;
1260.0000;0.2825;-0.0570;
1260.3000;0.2808;-0.0619;
1260.6000;0.2808;-0.0570;
1260.9000;0.2800;-0.0644;
1261.2000;0.2808;-0.0644;
1261.5000;0.2816;-0.0669;
1261.8000;0.2825;-0.0570;
1262.1000;0.2816;-0.0619;
1262.4000;0.2816;-0.0495;
1262.7000;0.2825;-0.0446;
1263.0000;0.2890;-0.0198;
1263.3000;0.2825;-0.0396;
1263.6000;0.2833;-0.0347;
1263.9000;0.2792;-0.0520;
1264.2000;0.2833;-0.0446;
1264.5000;0.2825;-0.0470;
1264.8000;0.2808;-0.0495;
1265.1000;0.2816;-0.0545;
1265.4000;0.2800;-0.0594;
1265.7000;0.2808;-0.0594;
1266.0000;0.2808;-0.0619;
1266.3000;0.2849;-0.0495;
1266.6000;0.2800;-0.0669;
1266.9000;0.2833;-0.0619;
1267.2000;0.2841;-0.0570;
1267.5000;0.2776;-0.0817;
1267.8000;0.2825;-0.0669;
1268.1000;0.2873;-0.0619;
1268.4000;0.2784;-0.0891;
1268.7000;0.2800;-0.0792;
1269.0000;0.2808;-0.0718;
1269.3000;0.2800;-0.0669;
1269.6000;0.2800;-0.0644;
1269.9000;0.2816;-0.0669;
1270.2000;0.2808;-0.0693;
1270.5000;0.2784;-0.0867;
1270.8000;0.2800;-0.0768;
1271.1000;0.2800;-0.0693;
1271.4000;0.2808;-0.0693;
1271.7000;0.2816;-0.0619;
1272.0000;0.2800;-0.0520;
1272.3000;0.2816;-0.0470;
1272.6000;0.2792;-0.0520;
1272.9000;0.2800;-0.0446;
1273.2000;0.2816;-0.0396;
1273.5000;0.2808;-0.0520;
1273.8000;0.2792;-0.0446;
1274.1000;0.2792;-0.0396;
1274.4000;0.2792;-0.0371;
1274.7000;0.2825;-0.0223;
1275.0000;0.2833;-0.0198;
1275.3000;0.2759;-0.0446;
1275.6000;0.2792;-0.0371;
1275.9000;0.2816;-0.0248;
1276.2000;0.2776;-0.0421;
1276.5000;0.2808;-0.0371;
1276.8000;0.2833;-0.0371;
1277.1000;0.2833;-0.0322;
1277.4000;0.2833;-0.0347;
1277.7000;0.2792;-0.0396;
1278.0000;0.2784;-0.0495;
1278.3000;0.2808;-0.0446;
1278.6000;0.2833;-0.0322;
1278.9000;0.2800;-0.0371;
1279.2000;0.2816;-0.0347;
1279.5000;0.2833;-0.0322;
1279.8000;0.2849;-0.0248;
1280.1000;0.2808;-0.0272;
1280.4000;0.2784;-0.0297;
1280.7000;0.2800;-0.0347;
1281.0000;0.2808;-0.0297;
1281.3000;0.2865;-0.0149;
1281.6000;0.2800;-0.0297;
1281.9000;0.2800;-0.0347;
1282.2000;0.2816;-0.0322;
1282.5000;0.2800;-0.0297;
1282.8000;0.2792;-0.0223;
1283.1000;0.2800;-0.0272;
1283.4000;0.2825;-0.0173;
1283.7000;0.2808;-0.0198;
1284.0000;0.2825;-0.0173;
1284.3000;0.2816;-0.0297;
1284.6000;0.2833;-0.0223;
1284.9000;0.2808;-0.0322;
1285.2000;0.2825;-0.0223;
1285.5000;0.2808;-0.0223;
1285.8000;0.2816;-0.0198;
1286.1000;0.2825;-0.0173;
1286.4000;0.2825;-0.0248;
1286.7000;0.2727;-0.0520;
1287.0000;0.2808;-0.0322;
1287.3000;0.2816;-0.0198;
1287.6000;0.2825;-0.0173;
1287.9000;0.2808;-0.0198;
1288.2000;0.2792;-0.0248;
1288.5000;0.2833;-0.0223;
1288.8000;0.2816;-0.0272;
1289.1000;0.2808;-0.0322;
1289.4000;0.2776;-0.0371;
1289.7000;0.2816;-0.0272;
1290.0000;0.2825;-0.0272;
1290.3000;0.2825;-0.0223;
1290.6000;0.2800;-0.0223;
1290.9000;0.2816;-0.0173;
1291.2000;0.2825;-0.0124;
1291.5000;0.2800;-0.0223;
1291.8000;0.2792;-0.0272;
1292.1000;0.2816;-0.0347;
1292.4000;0.2719;-0.0570;
1292.7000;0.2816;-0.0322;
1293.0000;0.2849;-0.0272;
1293.3000;0.2776;-0.0322;
1293.6000;0.2784;-0.0272;
1293.9000;0.2808;-0.0223;
1294.2000;0.2792;-0.0272;
1294.5000;0.2792;-0.0124;
1294.8000;0.2776;-0.0198;
1295.1000;0.2816;-0.0099;
1295.4000;0.2792;-0.0173;
1295.7000;0.2808;-0.0198;
1296.0000;0.2816;-0.0272;
1296.3000;0.2841;-0.0248;
1296.6000;0.2792;-0.0371;
1296.9000;0.2825;-0.0347;
1297.2000;0.2816;-0.0322;
1297.5000;0.2800;-0.0347;
1297.8000;0.2808;-0.0248;
1298.1000;0.2825;-0.0248;
1298.4000;0.2808;-0.0396;
1298.7000;0.2808;-0.0495;
1299.0000;0.2865;-0.0371;
1299.3000;0.2719;-0.0792;
1299.6000;0.2792;-0.0594;
1299.9000;0.2776;-0.0495;
1300.2000;0.2768;-0.0470;
1300.5000;0.2833;-0.0371;
1300.8000;0.2768;-0.0421;
1301.1000;0.2800;-0.0272;
1301.4000;0.2833;-0.0297;
1301.7000;0.2808;-0.0347;
1302.0000;0.2800;-0.0322;
1302.3000;0.2784;-0.0396;
1302.6000;0.2816;-0.0322;
1302.9000;0.2833;-0.0322;
1303.2000;0.2816;-0.0322;
1303.5000;0.2792;-0.0495;
1303.8000;0.2800;-0.0446;
1304.1000;0.2784;-0.0421;
1304.4000;0.2776;-0.0396;
1304.7000;0.2800;-0.0347;
1305.0000;0.2800;-0.0322;
1305.3000;0.2808;-0.0347;
1305.6000;0.2833;-0.0297;
1305.9000;0.2800;-0.0446;
1306.2000;0.2816;-0.0371;
1306.5000;0.2816;-0.0421;
1306.8000;0.2808;-0.0495;
1307.1000;0.2808;-0.0470;
1307.4000;0.2825;-0.0446;
1307.7000;0.2800;-0.0470;
1308.0000;0.2833;-0.0495;
1308.3000;0.2833;-0.0470;
1308.6000;0.2816;-0.0446;
1308.9000;0.2808;-0.0570;
1309.2000;0.2825;-0.0520;
1309.5000;0.2792;-0.0545;
1309.8000;0.2808;-0.0421;
1310.1000;0.2825;-0.0347;
1310.4000;0.2808;-0.0520;
1310.7000;0.2808;-0.0570;
1311.0000;0.2808;-0.0570;
1311.3000;0.2808;-0.0470;
1311.6000;0.2816;-0.0495;
1311.9000;0.2825;-0.0495;
1312.2000;0.2841;-0.0520;
1312.5000;0.2816;-0.0594;
1312.8000;0.2825;-0.0520;
1313.1000;0.2800;-0.0421;
1313.4000;0.2808;-0.0446;
1313.7000;0.2825;-0.0446;
1314.0000;0.2816;-0.0396;
1314.3000;0.2849;-0.0322;
1314.6000;0.2816;-0.0396;
1314.9000;0.2825;-0.0322;
1315.2000;0.2776;-0.0371;
1315.5000;0.2792;-0.0371;
1315.8000;0.2808;-0.0322;
1316.1000;0.2800;-0.0297;
1316.4000;0.2816;-0.0297;
1316.7000;0.2825;-0.0248;
1317.0000;0.2808;-0.0248;
1317.3000;0.2735;-0.0545;
1317.6000;0.2816;-0.0470;
1317.9000;0.2800;-0.0446;
1318.2000;0.2825;-0.0322;
1318.5000;0.2833;-0.0248;
1318.8000;0.2833;-0.0371;
1319.1000;0.2825;-0.0396;
1319.4000;0.2808;-0.0347;
1319.7000;0.2825;-0.0347;
1320.0000;0.2800;-0.0396;
1320.3000;0.2808;-0.0421;
1320.6000;0.2800;-0.0421;
1320.9000;0.2800;-0.0272;
1321.2000;0.2808;-0.0347;
1321.5000;0.2816;-0.0421;
1321.8000;0.2825;-0.0470;
1322.1000;0.2825;-0.0545;
1322.4000;0.2833;-0.0495;
1322.7000;0.2800;-0.0495;
1323.0000;0.2833;-0.0396;
1323.3000;0.2808;-0.0446;
1323.6000;0.2816;-0.0371;
1323.9000;0.2816;-0.0322;
1324.2000;0.2808;-0.0371;
1324.5000;0.2792;-0.0248;
1324.8000;0.2792;-0.0149;
1325.1000;0.2808;-0.0124;
1325.4000;0.2808;-0.0149;
1325.7000;0.2784;-0.0149;
1326.0000;0.2784;-0.0124;
1326.3000;0.2808;-0.0099;
1326.6000;0.2808;-0.0198;
1326.9000;0.2808;-0.0149;
1327.2000;0.2825;-0.0198;
1327.5000;0.2816;-0.0248;
1327.8000;0.2808;-0.0347;
1328.1000;0.2800;-0.0322;
1328.4000;0.2800;-0.0396;
1328.7000;0.2808;-0.0347;
1329.0000;0.2816;-0.0322;
1329.3000;0.2784;-0.0347;
1329.6000;0.2808;-0.0322;
1329.9000;0.2808;-0.0371;
1330.2000;0.2816;-0.0371;
1330.5000;0.2825;-0.0322;
1330.8000;0.2816;-0.0322;
1331.1000;0.2816;-0.0371;
1331.4000;0.2857;-0.0371;
1331.7000;0.2833;-0.0396;
1332.0000;0.2800;-0.0470;
1332.3000;0.2808;-0.0520;
1332.6000;0.2816;-0.0470;
1332.9000;0.2841;-0.0322;
1333.2000;0.2808;-0.0421;
1333.5000;0.2808;-0.0347;
1333.8000;0.2808;-0.0371;
1334.1000;0.2825;-0.0297;
1334.4000;0.2808;-0.0223;
1334.7000;0.2808;-0.0124;
1335.0000;0.2816;-0.0149;
1335.3000;0.2784;-0.0223;
1335.6000;0.2800;-0.0272;
1335.9000;0.2800;-0.0223;
1336.2000;0.2784;-0.0272;
1336.5000;0.2800;-0.0248;
1336.8000;0.2808;-0.0248;
1337.1000;0.2800;-0.0396;
1337.4000;0.2816;-0.0322;
1337.7000;0.2808;-0.0297;
1338.0000;0.2792;-0.0322;
1338.3000;0.2808;-0.0248;
1338.6000;0.2800;-0.0272;
1338.9000;0.2816;-0.0223;
1339.2000;0.2784;-0.0223;
1339.5000;0.2808;-0.0149;
1339.8000;0.2784;-0.0297;
1340.1000;0.2898;-0.0050;
1340.4000;0.2816;-0.0347;
1340.7000;0.2816;-0.0371;
1341.0000;0.2800;-0.0446;
1341.3000;0.2816;-0.0470;
1341.6000;0.2808;-0.0545;
1341.9000;0.2816;-0.0446;
1342.2000;0.2816;-0.0495;
1342.5000;0.2768;-0.0594;
1342.8000;0.2816;-0.0495;
1343.1000;0.2825;-0.0470;
1343.4000;0.2816;-0.0570;
1343.7000;0.2808;-0.0594;
1344.0000;0.2841;-0.0594;
1344.3000;0.2808;-0.0718;
1344.6000;0.2816;-0.0768;
1344.9000;0.2808;-0.0792;
1345.2000;0.2808;-0.0718;
1345.5000;0.2816;-0.0669;
1345.8000;0.2808;-0.0669;
1346.1000;0.2808;-0.0669;
1346.4000;0.2800;-0.0743;
1346.7000;0.2800;-0.0768;
1347.0000;0.2816;-0.0669;
1347.3000;0.2808;-0.0619;
1347.6000;0.2800;-0.0619;
1347.9000;0.2727;-0.0768;
1348.2000;0.2808;-0.0669;
1348.5000;0.2816;-0.0669;
1348.8000;0.2800;-0.0718;
1349.1000;0.2792;-0.0693;
1349.4000;0.2825;-0.0594;
1349.7000;0.2833;-0.0545;
1350.0000;0.2816;-0.0545;
1350.3000;0.2825;-0.0594;
1350.6000;0.2857;-0.0297;
1350.9000;0.2816;-0.0347;
1351.2000;0.2816;-0.0371;
1351.5000;0.2816;-0.0347;
1351.8000;0.2800;-0.0396;
1352.1000;0.2808;-0.0495;
1352.4000;0.2833;-0.0446;
1352.7000;0.2800;-0.0520;
1353.0000;0.2735;-0.0718;
1353.3000;0.2825;-0.0470;
1353.6000;0.2808;-0.0520;
1353.9000;0.2816;-0.0470;
1354.2000;0.2808;-0.0495;
1354.5000;0.2800;-0.0495;
1354.8000;0.2825;-0.0347;
1355.1000;0.2816;-0.0371;
1355.4000;0.2808;-0.0371;
1355.7000;0.2808;-0.0248;
1356.0000;0.2825;-0.0198;
1356.3000;0.2816;-0.0248;
1356.6000;0.2800;-0.0272;
1356.9000;0.2857;-0.0272;
1357.2000;0.2816;-0.0371;
1357.5000;0.2816;-0.0297;
1357.8000;0.2808;-0.0322;
1358.1000;0.2808;-0.0297;
1358.4000;0.2792;-0.0322;
1358.7000;0.2808;-0.0223;
1359.0000;0.2751;-0.0322;
1359.3000;0.2800;-0.0248;
1359.6000;0.2800;-0.0297;
1359.9000;0.2825;-0.0173;
1360.2000;0.2841;-0.0149;
1360.5000;0.2800;-0.0297;
1360.8000;0.2808;-0.0347;
1361.1000;0.2808;-0.0421;
1361.4000;0.2808;-0.0421;
1361.7000;0.2833;-0.0396;
1362.0000;0.2768;-0.0619;
1362.3000;0.2800;-0.0520;
1362.6000;0.2816;-0.0520;
1362.9000;0.2816;-0.0495;
1363.2000;0.2808;-0.0545;
1363.5000;0.2808;-0.0594;
1363.8000;0.2808;-0.0594;
1364.1000;0.2800;-0.0594;
1364.4000;0.2800;-0.0570;
1364.7000;0.2800;-0.0594;
1365.0000;0.2825;-0.0446;
1365.3000;0.2808;-0.0371;
1365.6000;0.2808;-0.0347;
1365.9000;0.2816;-0.0347;
1366.2000;0.2833;-0.0272;
1366.5000;0.2825;-0.0248;
1366.8000;0.2825;-0.0223;
1367.1000;0.2816;-0.0223;
1367.4000;0.2808;-0.0272;
1367.7000;0.2808;-0.0272;
1368.0000;0.2816;-0.0322;
1368.3000;0.2808;-0.0371;
1368.6000;0.2849;-0.0248;
1368.9000;0.2808;-0.0347;
1369.2000;0.2833;-0.0396;
1369.5000;0.2865;-0.0297;
1369.8000;0.2849;-0.0322;
1370.1000;0.2800;-0.0297;
1370.4000;0.2816;-0.0297;
1370.7000;0.2792;-0.0347;
1371.0000;0.2784;-0.0421;
1371.3000;0.2833;-0.0272;
1371.6000;0.2816;-0.0322;
1371.9000;0.2800;-0.0396;
1372.2000;0.2808;-0.0470;
1372.5000;0.2800;-0.0495;
1372.8000;0.2808;-0.0470;
1373.1000;0.2816;-0.0396;
1373.4000;0.2800;-0.0396;
1373.7000;0.2800;-0.0198;
1374.0000;0.2800;-0.0149;
1374.3000;0.2792;-0.0149;
1374.6000;0.2792;-0.0272;
1374.9000;0.2784;-0.0248;
1375.2000;0.2808;-0.0198;
1375.5000;0.2955;0.0149;
1375.8000;0.2816;-0.0149;
1376.1000;0.2833;-0.0099;
1376.4000;0.2800;-0.0223;
1376.7000;0.2759;-0.0347;
1377.0000;0.2808;-0.0248;
1377.3000;0.2816;-0.0248;
1377.6000;0.2816;-0.0322;
1377.9000;0.2849;-0.0297;
1378.2000;0.2743;-0.0545;
1378.5000;0.2727;-0.0669;
1378.8000;0.2808;-0.0396;
1379.1000;0.2890;-0.0149;
1379.4000;0.2833;-0.0322;
1379.7000;0.2825;-0.0322;
1380.0000;0.2833;-0.0322;
1380.3000;0.2808;-0.0272;
1380.6000;0.2833;-0.0149;
1380.9000;0.2816;-0.0223;
1381.2000;0.2808;-0.0223;
1381.5000;0.2808;-0.0198;
1381.8000;0.2833;-0.0149;
1382.1000;0.2816;-0.0198;
1382.4000;0.2816;-0.0149;
1382.7000;0.2833;-0.0099;
1383.0000;0.2841;-0.0050;
1383.3000;0.2816;-0.0149;
1383.6000;0.2800;-0.0223;
1383.9000;0.2808;-0.0149;
1384.2000;0.2865;0.0025;
1384.5000;0.2833;-0.0074;
1384.8000;0.2800;-0.0050;
1385.1000;0.2816;-0.0124;
1385.4000;0.2792;-0.0223;
1385.7000;0.2833;-0.0347;
1386.0000;0.2800;-0.0446;
1386.3000;0.2816;-0.0396;
1386.6000;0.2800;-0.0248;
1386.9000;0.2808;-0.0173;
1387.2000;0.2816;-0.0124;
1387.5000;0.2825;-0.0025;
1387.8000;0.2800;0.0025;
1388.1000;0.2800;0.0099;
1388.4000;0.2808;0.0000;
1388.7000;0.2882;0.0173;
1389.0000;0.2776;-0.0149;
1389.3000;0.2825;-0.0050;
1389.6000;0.2825;-0.0050;
1389.9000;0.2808;-0.0074;
1390.2000;0.2808;0.0025;
1390.5000;0.2808;0.0000;
1390.8000;0.2800;0.0000;
1391.1000;0.2825;0.0074;
1391.4000;0.2808;-0.0025;
1391.7000;0.2808;-0.0124;
1392.0000;0.2800;-0.0025;
1392.3000;0.2833;0.0050;
1392.6000;0.2816;0.0050;
1392.9000;0.2808;-0.0050;
1393.2000;0.2808;-0.0124;
1393.5000;0.2768;-0.0223;
1393.8000;0.2792;-0.0173;
1394.1000;0.2808;-0.0223;
1394.4000;0.2808;-0.0248;
1394.7000;0.2833;-0.0223;
1395.0000;0.2849;-0.0149;
1395.3000;0.2808;-0.0272;
1395.6000;0.2800;-0.0297;
1395.9000;0.2825;-0.0272;
1396.2000;0.2808;-0.0248;
1396.5000;0.2792;-0.0248;
1396.8000;0.2808;-0.0198;
1397.1000;0.2808;-0.0149;
1397.4000;0.2808;-0.0149;
1397.7000;0.2800;-0.0173;
1398.0000;0.2808;-0.0223;
1398.3000;0.2784;-0.0272;
1398.6000;0.2792;-0.0248;
1398.9000;0.2841;-0.0050;
1399.2000;0.2849;0.0000;
1399.5000;0.2857;0.0000;
1399.8000;0.2776;-0.0149;
